timestamp,ax,ay,az,gx,gy,gz,mx,my,mz,altitude,relative_altitude
161225_15.00.29.115,0.02500,-0.05400,1.01800,0.08700,-0.14000,0.01800,-0.92900,-0.28300,-0.63300,192.13000,0.00000
161225_15.00.29.127,0.02900,-0.05900,0.99400,0.03500,-0.05300,0.00000,-0.93000,-0.28100,-0.63100,192.01000,-0.12000
161225_15.00.29.138,0.02700,-0.06300,0.98700,0.07000,-0.12300,0.01800,-0.92900,-0.28200,-0.63600,193.07000,1.06000
161225_15.00.29.150,0.02400,-0.05900,1.00500,0.12300,-0.24500,0.00000,-0.93000,-0.28400,-0.63700,192.90000,-0.17000
161225_15.00.29.161,0.02500,-0.05600,1.01400,0.10500,-0.14000,-0.01800,-0.93000,-0.28400,-0.63700,192.36000,-0.54000
161225_15.00.29.173,0.02700,-0.05900,0.99600,0.03500,-0.07000,0.01800,-0.92700,-0.28600,-0.63600,192.25000,-0.11000
161225_15.00.29.184,0.02400,-0.06100,0.99300,0.10500,-0.26200,0.00000,-0.92600,-0.28800,-0.63600,192.42000,0.17000
161225_15.00.29.196,0.02900,-0.05400,1.01600,0.08700,-0.17500,0.00000,-0.92600,-0.28900,-0.64000,192.37000,-0.05000
161225_15.00.29.207,0.02700,-0.05700,0.98800,0.07000,0.00000,0.00000,-0.92700,-0.28800,-0.64000,192.65000,0.28000
161225_15.00.29.219,0.02800,-0.06200,0.98900,0.12300,-0.24500,-0.01800,-0.92700,-0.28800,-0.64000,192.40000,-0.25000
161225_15.00.29.230,0.02600,-0.06000,1.01900,0.14000,-0.19200,-0.01800,-0.93300,-0.28500,-0.63500,192.05000,-0.35000
161225_15.00.29.242,0.02700,-0.05500,1.00800,0.07000,-0.08700,0.00000,-0.93000,-0.28700,-0.63500,192.36000,0.31000
161225_15.00.29.253,0.02800,-0.05800,0.99300,0.05300,-0.05300,0.00000,-0.93100,-0.29000,-0.63000,192.27000,-0.09000
161225_15.00.29.265,0.02900,-0.06200,1.00000,0.10500,-0.26200,0.01800,-0.92800,-0.28500,-0.63200,192.52000,0.25000
161225_15.00.29.276,0.02700,-0.05500,1.01800,0.08700,-0.19200,0.00000,-0.92800,-0.28500,-0.63200,192.73000,0.21000
161225_15.00.29.287,0.02700,-0.05600,1.00500,0.03500,-0.01800,-0.01800,-0.93100,-0.28600,-0.63500,192.27000,-0.46000
161225_15.00.29.299,0.03100,-0.06100,0.98800,0.03500,-0.10500,-0.01800,-0.92600,-0.28500,-0.62800,192.40000,0.13000
161225_15.00.29.310,0.02600,-0.06000,1.01900,0.10500,-0.21000,-0.03500,-0.93300,-0.28500,-0.63100,192.51000,0.11000
161225_15.00.29.322,0.02700,-0.05800,1.00700,0.01800,-0.07000,0.00000,-0.93000,-0.28700,-0.62900,192.56000,0.05000
161225_15.00.29.333,0.02900,-0.06100,0.98700,0.07000,-0.12300,0.03500,-0.93000,-0.28700,-0.62900,192.43000,-0.13000
161225_15.00.29.345,0.02700,-0.06000,1.00000,0.10500,-0.19200,0.00000,-0.93300,-0.28500,-0.62800,192.75000,0.32000
161225_15.00.29.356,0.02900,-0.05400,1.02000,0.10500,-0.17500,-0.01800,-0.93200,-0.28400,-0.63500,192.66000,-0.09000
161225_15.00.29.367,0.03000,-0.05800,0.99100,0.01800,0.03500,0.00000,-0.92900,-0.28900,-0.63000,192.47000,-0.19000
161225_15.00.29.379,0.03000,-0.06400,0.98300,0.08700,-0.15700,0.03500,-0.93100,-0.29200,-0.63100,192.84000,0.37000
161225_15.00.29.390,0.02800,-0.06100,1.01200,0.08700,-0.26200,0.01800,-0.93100,-0.29200,-0.63100,192.83000,-0.01000
161225_15.00.29.402,0.02800,-0.05300,1.01200,0.03500,-0.10500,0.01800,-0.93300,-0.28700,-0.63400,192.51000,-0.32000
161225_15.00.29.413,0.02700,-0.06000,0.98400,0.01800,0.00000,0.00000,-0.93200,-0.28600,-0.63700,191.90000,-0.61000
161225_15.00.29.424,0.02700,-0.06200,0.98800,0.10500,-0.19200,0.00000,-0.93200,-0.28800,-0.63200,192.45000,0.55000
161225_15.00.29.436,0.02500,-0.05900,1.00300,0.03500,-0.05300,0.00000,-0.93100,-0.28400,-0.63200,192.13000,-0.32000
161225_15.00.29.447,0.02800,-0.06300,0.99400,0.05300,-0.08700,0.03500,-0.93100,-0.28400,-0.63200,193.10000,0.97000
161225_15.00.29.459,0.02600,-0.06200,0.99400,0.12300,-0.19200,0.01800,-0.93200,-0.28600,-0.63300,192.29000,-0.81000
161225_15.00.29.470,0.02600,-0.05700,1.01100,0.12300,-0.17500,0.01800,-0.93400,-0.28600,-0.63800,192.63000,0.34000
161225_15.00.29.482,0.02700,-0.05900,1.00000,0.05300,-0.05300,0.00000,-0.93000,-0.28700,-0.63400,192.59000,-0.04000
161225_15.00.29.493,0.02500,-0.06300,0.98700,0.05300,-0.03500,-0.01800,-0.93000,-0.29100,-0.63100,192.81000,0.22000
161225_15.00.29.504,0.02600,-0.06200,1.00100,0.12300,-0.21000,0.00000,-0.93000,-0.29100,-0.63100,192.40000,-0.41000
161225_15.00.29.516,0.02800,-0.05700,1.02700,0.07000,-0.19200,0.00000,-0.93000,-0.28700,-0.63100,192.77000,0.37000
161225_15.00.29.527,0.02900,-0.05900,1.00000,0.03500,0.00000,0.01800,-0.93200,-0.29000,-0.63100,192.38000,-0.39000
161225_15.00.29.539,0.02700,-0.06500,0.98400,0.10500,-0.08700,0.01800,-0.92700,-0.28500,-0.64000,192.22000,-0.16000
161225_15.00.29.550,0.02800,-0.06100,1.01500,0.07000,-0.05300,-0.01800,-0.93100,-0.29000,-0.63100,192.01000,-0.21000
161225_15.00.29.562,0.02700,-0.06000,0.99000,0.05300,0.03500,-0.01800,-0.93100,-0.29000,-0.63100,192.34000,0.33000
161225_15.00.29.573,0.02700,-0.06300,0.99700,0.08700,-0.19200,0.00000,-0.93100,-0.28800,-0.63300,192.26000,-0.08000
161225_15.00.29.585,0.02500,-0.05600,1.02300,0.12300,-0.21000,0.01800,-0.92900,-0.29100,-0.63500,192.58000,0.32000
161225_15.00.29.596,0.02500,-0.05700,1.01100,0.05300,-0.01800,0.01800,-0.92300,-0.28400,-0.64100,192.95000,0.37000
161225_15.00.29.608,0.02900,-0.06100,0.98800,0.05300,-0.05300,0.00000,-0.92400,-0.28600,-0.64100,193.04000,0.09000
161225_15.00.29.619,0.02600,-0.06000,1.00000,0.08700,-0.15700,-0.01800,-0.92400,-0.28600,-0.64100,192.73000,-0.31000
161225_15.00.29.631,0.02700,-0.05800,1.01600,0.08700,-0.15700,-0.05300,-0.92600,-0.28600,-0.63900,192.71000,-0.02000
161225_15.00.29.642,0.02600,-0.06000,1.00700,0.03500,0.00000,-0.03500,-0.92700,-0.28800,-0.64500,192.53000,-0.18000
161225_15.00.29.653,0.02800,-0.06200,0.98600,0.07000,-0.07000,-0.01800,-0.92500,-0.28600,-0.64300,192.83000,0.30000
161225_15.00.29.665,0.02400,-0.06000,1.00500,0.14000,-0.21000,-0.03500,-0.92500,-0.28300,-0.64100,192.45000,-0.38000
161225_15.00.29.676,0.02500,-0.05400,1.01800,0.03500,0.01800,-0.05300,-0.92500,-0.28300,-0.64100,192.64000,0.19000
161225_15.00.29.688,0.02600,-0.06300,0.97900,0.12300,-0.10500,-0.05300,-0.92600,-0.28400,-0.64000,192.52000,-0.12000
161225_15.00.29.699,0.02400,-0.06100,1.01500,0.10500,-0.26200,-0.05300,-0.92600,-0.28200,-0.64000,192.77000,0.25000
161225_15.00.29.711,0.02700,-0.05600,1.01700,0.01800,-0.08700,-0.05300,-0.92700,-0.28200,-0.64700,192.56000,-0.21000
161225_15.00.29.722,0.02900,-0.06300,0.98600,0.05300,0.01800,-0.05300,-0.92600,-0.28900,-0.64400,192.40000,-0.16000
161225_15.00.29.733,0.02500,-0.06300,0.98900,0.14000,-0.21000,-0.05300,-0.92600,-0.28900,-0.64400,192.58000,0.18000
161225_15.00.29.745,0.02600,-0.05500,1.01900,0.08700,-0.28000,-0.07000,-0.92600,-0.28600,-0.64000,193.40000,0.82000
161225_15.00.29.756,0.02600,-0.05800,1.00400,0.05300,0.00000,-0.03500,-0.92700,-0.28900,-0.64100,191.47000,-1.93000
161225_15.00.29.768,0.02800,-0.06300,0.98400,0.05300,-0.05300,-0.03500,-0.93100,-0.28300,-0.64000,193.09000,1.62000
161225_15.00.29.779,0.02400,-0.05900,1.00200,0.10500,-0.22800,0.00000,-0.92800,-0.28100,-0.64500,192.54000,-0.55000
161225_15.00.29.791,0.02800,-0.05700,1.01900,0.03500,-0.21000,4.46300,-0.92800,-0.28100,-0.64500,192.33000,-0.21000
161225_15.00.29.802,0.02800,-0.05700,1.00700,0.05300,-0.07000,-0.01800,-0.92900,-0.28400,-0.64800,192.18000,-0.15000
161225_15.00.29.813,0.02900,-0.05900,1.00000,0.08700,-0.26200,-0.01800,-0.92900,-0.28000,-0.63900,192.57000,0.39000
161225_15.00.29.825,0.02800,-0.05500,1.01800,0.07000,-0.17500,-0.01800,-0.93000,-0.28200,-0.63900,191.88000,-0.69000
161225_15.00.29.836,0.02800,-0.05900,0.99400,0.05300,-0.03500,0.00000,-0.92700,-0.28300,-0.63900,192.29000,0.41000
161225_15.00.29.848,0.02900,-0.06100,0.98600,0.07000,-0.17500,0.01800,-0.92700,-0.28300,-0.63900,192.48000,0.19000
161225_15.00.29.859,0.02700,-0.05800,1.01700,0.08700,-0.29800,0.01800,-0.93100,-0.28600,-0.64300,192.16000,-0.32000
161225_15.00.29.871,0.02600,-0.05300,1.01300,0.01800,-0.07000,0.01800,-0.92500,-0.28400,-0.62900,192.96000,0.80000
161225_15.00.29.882,0.02600,-0.06000,0.98600,0.01800,-0.03500,0.00000,-0.92700,-0.28400,-0.63500,192.03000,-0.93000
161225_15.00.29.893,0.02700,-0.06400,0.99300,0.12300,-0.22800,0.00000,-0.93100,-0.28700,-0.63900,192.99000,0.96000
161225_15.00.29.905,0.02800,-0.05700,1.02200,0.12300,-0.28000,0.00000,-0.93100,-0.28700,-0.63900,191.89000,-1.10000
161225_15.00.29.916,0.02800,-0.05800,1.00500,0.05300,-0.05300,0.00000,-0.93200,-0.28600,-0.64400,192.12000,0.23000
161225_15.00.29.928,0.02700,-0.06200,0.99700,0.12300,-0.21000,0.01800,-0.93200,-0.28700,-0.63700,192.47000,0.35000
161225_15.00.29.939,0.02500,-0.05700,1.01500,0.10500,-0.19200,0.00000,-0.92600,-0.28400,-0.64400,192.19000,-0.28000
161225_15.00.29.950,0.02400,-0.06000,1.00500,0.01800,-0.01800,-0.01800,-0.93000,-0.28800,-0.64400,192.48000,0.29000
161225_15.00.29.962,0.02900,-0.06300,0.98500,0.07000,-0.07000,0.01800,-0.93000,-0.28800,-0.64400,192.39000,-0.09000
161225_15.00.29.973,0.02900,-0.06100,1.01100,0.10500,-0.22800,0.01800,-0.93300,-0.28800,-0.64100,192.31000,-0.08000
161225_15.00.29.985,0.02900,-0.06000,1.01100,0.07000,-0.07000,0.01800,-0.92900,-0.28800,-0.63400,192.96000,0.65000
161225_15.00.29.996,0.02800,-0.06000,0.98700,0.10500,0.01800,0.01800,-0.93500,-0.28600,-0.63100,192.85000,-0.11000
161225_15.00.30.007,0.03000,-0.06700,0.99700,0.12300,-0.22800,0.01800,-0.93600,-0.28500,-0.63900,191.81000,-1.04000
161225_15.00.30.019,0.02600,-0.06300,1.02600,0.03500,-0.05300,0.00000,-0.93600,-0.28500,-0.63900,192.88000,1.07000
161225_15.00.30.030,0.02700,-0.05700,1.00500,0.03500,0.03500,0.01800,-0.93800,-0.28800,-0.63400,192.06000,-0.82000
161225_15.00.30.042,0.02700,-0.06100,0.98600,0.05300,-0.26200,0.01800,-0.93600,-0.29200,-0.63700,192.37000,0.31000
161225_15.00.30.053,0.02900,-0.03200,1.02100,0.12300,-0.19200,-0.01800,-0.93500,-0.29100,-0.63700,192.79000,0.42000
161225_15.00.30.065,0.03000,-0.05800,1.00500,0.05300,-0.05300,0.00000,-0.93400,-0.28600,-0.63600,192.42000,-0.37000
161225_15.00.30.076,0.02900,-0.06100,0.98600,0.07000,-0.03500,0.01800,-0.93400,-0.28600,-0.63600,192.64000,0.22000
161225_15.00.30.088,0.02600,-0.05900,0.99500,0.12300,-0.17500,0.00000,-0.93200,-0.28600,-0.63800,192.09000,-0.55000
161225_15.00.30.099,0.02500,-0.05500,1.02100,0.05300,-0.19200,0.00000,-0.93400,-0.28800,-0.63600,191.93000,-0.16000
161225_15.00.30.110,0.02600,-0.06000,1.00200,0.01800,-0.05300,0.00000,-0.92800,-0.28900,-0.63600,192.22000,0.29000
161225_15.00.30.122,0.02500,-0.06100,0.99000,0.07000,-0.07000,0.00000,-0.93500,-0.29100,-0.63300,192.17000,-0.05000
161225_15.00.30.133,0.02700,-0.05900,1.01500,0.10500,-0.24500,-0.01800,-0.93500,-0.29100,-0.63300,191.74000,-0.43000
161225_15.00.30.145,0.02500,-0.05800,1.01600,0.03500,0.01800,-0.01800,-0.93000,-0.29000,-0.63400,192.59000,0.85000
161225_15.00.30.156,0.02900,-0.06100,0.98300,0.08700,0.05300,-0.01800,-0.93000,-0.29000,-0.63600,192.65000,0.06000
161225_15.00.30.168,0.02600,-0.06400,0.99300,0.12300,-0.21000,0.01800,-0.93100,-0.28400,-0.63400,192.49000,-0.16000
161225_15.00.30.179,0.02800,-0.05900,1.00900,0.07000,0.00000,0.01800,-0.93400,-0.28400,-0.64000,192.55000,0.06000
161225_15.00.30.190,0.02700,-0.06500,0.98100,0.07000,0.03500,0.01800,-0.93400,-0.28400,-0.64000,192.49000,-0.06000
161225_15.00.30.202,0.02700,-0.05800,1.00000,0.12300,-0.17500,0.00000,-0.93300,-0.28500,-0.64200,192.46000,-0.03000
161225_15.00.30.213,0.02700,-0.05500,1.01500,0.08700,-0.12300,-0.01800,-0.93300,-0.28800,-0.63200,192.67000,0.21000
161225_15.00.30.225,0.02800,-0.06000,0.99700,0.05300,-0.05300,0.00000,-0.93500,-0.28800,-0.63400,192.40000,-0.27000
161225_15.00.30.236,0.02600,-0.06300,0.98800,0.07000,-0.12300,0.00000,-0.93400,-0.28400,-0.64000,192.63000,0.23000
161225_15.00.30.248,0.02400,-0.05600,1.00700,0.10500,-0.28000,-0.01800,-0.93400,-0.28400,-0.64000,192.84000,0.21000
161225_15.00.30.259,0.02200,-0.05400,1.01400,0.05300,-0.15700,-0.03500,-0.93200,-0.28400,-0.64200,192.96000,0.12000
161225_15.00.30.270,0.02100,-0.05600,0.98700,0.05300,-0.07000,-0.01800,-0.93100,-0.28600,-0.63800,192.97000,0.01000
161225_15.00.30.282,0.02300,-0.05600,0.98300,0.12300,-0.22800,0.00000,-0.93400,-0.28400,-0.64000,193.00000,0.03000
161225_15.00.30.293,0.02200,-0.05400,1.01800,0.01800,-0.12300,-0.01800,-0.93400,-0.28500,-0.63400,193.09000,0.09000
161225_15.00.30.305,0.02400,-0.06000,0.98100,0.01800,-0.12300,-0.03500,-0.93400,-0.28500,-0.63400,192.76000,-0.33000
161225_15.00.30.317,0.02300,-0.05800,1.00400,0.12300,-0.35000,-0.01800,-0.93300,-0.28400,-0.64100,192.91000,0.15000
161225_15.00.30.329,0.02100,-0.05200,1.02500,0.07000,-0.22800,-0.03500,-0.93000,-0.28800,-0.63800,192.19000,-0.72000
161225_15.00.30.340,0.02500,-0.05800,0.99200,0.03500,-0.03500,-0.03500,-0.93100,-0.28900,-0.64100,192.17000,-0.02000
161225_15.00.30.351,0.02500,-0.06300,0.98600,0.07000,-0.14000,-0.01800,-0.92800,-0.28500,-0.63300,192.61000,0.44000
161225_15.00.30.363,0.02900,-0.05800,1.02200,0.10500,-0.40300,-0.01800,-0.92800,-0.28500,-0.63300,192.68000,0.07000
161225_15.00.30.374,0.02800,-0.05700,1.01200,0.00000,-0.10500,-0.03500,-0.92800,-0.28600,-0.63800,192.21000,-0.47000
161225_15.00.30.386,0.03100,-0.06400,0.98900,0.07000,-0.14000,-0.01800,-0.92100,-0.28400,-0.64900,192.45000,0.24000
161225_15.00.30.397,0.02900,-0.06300,1.00400,0.08700,-0.24500,-0.01800,-0.92100,-0.28700,-0.64800,192.62000,0.17000
161225_15.00.30.409,0.03000,-0.05700,1.01600,0.10500,-0.14000,0.00000,-0.92500,-0.28600,-0.64700,192.00000,-0.62000
161225_15.00.30.420,0.03000,-0.06200,0.99700,0.12300,-0.14000,0.01800,-0.92500,-0.28600,-0.64700,192.55000,0.55000
161225_15.00.30.432,0.03400,-0.06100,1.01000,0.12300,-0.21000,0.03500,-0.92800,-0.28500,-0.64400,192.82000,0.27000
161225_15.00.30.443,0.03400,-0.05800,1.01600,0.07000,-0.19200,0.03500,-0.92800,-0.28500,-0.64400,192.66000,-0.16000
161225_15.00.30.455,0.03100,-0.06400,0.99400,0.05300,-0.01800,0.03500,-0.92900,-0.28700,-0.64200,192.54000,-0.12000
161225_15.00.30.466,0.03200,-0.06600,0.98400,0.10500,-0.12300,0.01800,-0.92500,-0.28600,-0.64500,192.43000,-0.11000
161225_15.00.30.477,0.03100,-0.06200,1.01000,0.15700,-0.24500,0.03500,-0.92500,-0.28600,-0.64500,192.60000,0.17000
161225_15.00.30.489,0.03000,-0.06000,1.01400,0.07000,-0.14000,0.01800,-0.92200,-0.29000,-0.64700,193.09000,0.49000
161225_15.00.30.500,0.03000,-0.06400,0.98800,0.05300,-0.01800,0.03500,-0.92400,-0.28500,-0.64000,193.07000,-0.02000
161225_15.00.30.512,0.02900,-0.06400,0.99300,0.12300,-0.21000,0.01800,-0.92500,-0.28400,-0.64400,192.41000,-0.66000
161225_15.00.30.522,0.02600,-0.05700,1.01900,0.07000,-0.15700,0.01800,-0.92400,-0.28400,-0.64300,193.01000,0.60000
161225_15.00.30.534,0.02700,-0.06100,0.99100,0.05300,0.03500,0.00000,-0.92400,-0.28400,-0.64300,192.81000,-0.20000
161225_15.00.30.545,0.02800,-0.06500,1.01300,0.12300,-0.22800,-0.01800,-0.92500,-0.28200,-0.64000,192.45000,-0.36000
161225_15.00.30.557,0.02900,-0.05900,1.02000,0.05300,-0.08700,-0.01800,-0.92900,-0.28500,-0.64500,192.92000,0.47000
161225_15.00.30.568,0.02800,-0.06100,0.99300,0.05300,0.05300,-0.01800,-0.92900,-0.29000,-0.64100,191.88000,-1.04000
161225_15.00.30.580,0.02600,-0.06000,0.98600,0.08700,-0.08700,-0.01800,-0.92700,-0.28600,-0.64000,192.53000,0.65000
161225_15.00.30.591,0.02900,-0.05700,1.00900,0.08700,-0.17500,0.00000,-0.92700,-0.28600,-0.64000,192.55000,0.02000
161225_15.00.30.602,0.02900,-0.05700,1.01200,0.08700,-0.05300,-0.01800,-0.92900,-0.28400,-0.63700,192.02000,-0.53000
161225_15.00.30.614,0.02900,-0.06100,0.99300,0.05300,0.01800,0.00000,-0.92800,-0.28500,-0.64000,192.68000,0.66000
161225_15.00.30.625,0.02700,-0.05800,0.99700,0.08700,-0.12300,0.01800,-0.92500,-0.28700,-0.64000,192.12000,-0.56000
161225_15.00.30.637,0.02600,-0.05300,1.01900,0.10500,-0.21000,0.00000,-0.92500,-0.28700,-0.63700,192.46000,0.34000
161225_15.00.30.648,0.02300,-0.05400,1.00300,0.01800,0.03500,-0.03500,-0.92500,-0.28700,-0.63700,192.30000,-0.16000
161225_15.00.30.659,0.02700,-0.05900,0.98400,0.05300,-0.19200,0.00000,-0.92400,-0.28500,-0.64400,192.04000,-0.26000
161225_15.00.30.671,0.02300,-0.05700,1.02700,0.03500,-0.17500,-0.01800,-0.92600,-0.28300,-0.64700,192.54000,0.50000
161225_15.00.30.682,0.02500,-0.05600,0.99600,0.00000,0.10500,0.00000,-0.92500,-0.29000,-0.64400,193.16000,0.62000
161225_15.00.30.694,0.02200,-0.05500,0.98200,0.10500,-0.12300,0.03500,-0.93000,-0.28700,-0.64200,192.22000,-0.94000
161225_15.00.30.705,0.02400,-0.05300,1.02900,0.07000,-0.35000,0.01800,-0.93000,-0.28700,-0.64200,193.08000,0.86000
161225_15.00.30.717,0.02300,-0.05500,1.01000,0.00000,0.05300,0.01800,-0.92800,-0.28400,-0.65100,193.17000,0.09000
161225_15.00.30.728,0.02100,-0.05600,0.98300,0.08700,0.01800,0.01800,-0.92500,-0.28400,-0.64600,192.56000,-0.61000
161225_15.00.30.739,0.02400,-0.05500,1.00400,0.05300,-0.22800,0.01800,-0.92400,-0.28400,-0.64000,192.50000,-0.06000
161225_15.00.30.751,0.02400,-0.05100,1.01900,0.01800,-0.10500,0.00000,-0.92700,-0.28700,-0.64200,192.80000,0.30000
161225_15.00.30.762,0.02100,-0.05500,0.99800,0.01800,0.00000,-0.01800,-0.92700,-0.28700,-0.64200,192.81000,0.01000
161225_15.00.30.774,0.02100,-0.06100,0.98600,0.01800,-0.08700,-0.01800,-0.92900,-0.28400,-0.63800,192.52000,-0.29000
161225_15.00.30.785,0.02800,-0.05800,0.99800,0.05300,-0.21000,-0.01800,-0.93100,-0.28200,-0.63800,192.44000,-0.08000
161225_15.00.30.797,0.02700,-0.06600,0.99000,0.00000,-0.03500,-0.01800,-0.93200,-0.28400,-0.63400,192.81000,0.37000
161225_15.00.30.808,0.02600,-0.06600,0.99100,0.08700,-0.29800,-0.01800,-0.93000,-0.28400,-0.63500,192.53000,-0.28000
161225_15.00.30.819,0.02400,-0.05700,1.02200,0.07000,-0.36800,0.00000,-0.93000,-0.28400,-0.63500,192.25000,-0.28000
161225_15.00.30.831,0.02700,-0.06100,0.99800,0.00000,-0.08700,-0.01800,-0.93100,-0.28500,-0.63300,192.38000,0.13000
161225_15.00.30.842,0.02900,-0.07000,0.97700,0.08700,-0.08700,0.01800,-0.93600,-0.29000,-0.63900,192.18000,-0.20000
161225_15.00.30.854,0.02800,-0.06700,1.00600,0.10500,-0.28000,0.01800,-0.93300,-0.29300,-0.63100,193.05000,0.87000
161225_15.00.30.865,0.02900,-0.06000,1.02000,0.01800,-0.17500,0.01800,-0.93200,-0.29200,-0.64000,192.30000,-0.75000
161225_15.00.30.877,0.02800,-0.06400,0.99000,0.01800,0.00000,0.01800,-0.93200,-0.29200,-0.64000,192.75000,0.45000
161225_15.00.30.888,0.03000,-0.06400,0.98800,0.12300,-0.22800,0.03500,-0.93200,-0.29400,-0.64000,192.03000,-0.72000
161225_15.00.30.899,0.02400,-0.05900,1.01200,0.12300,-0.19200,0.01800,-0.93600,-0.29300,-0.63500,192.88000,0.85000
161225_15.00.30.911,0.02500,-0.06400,1.00800,0.08700,-0.05300,0.00000,-0.93500,-0.29400,-0.62800,192.41000,-0.47000
161225_15.00.30.922,0.02900,-0.06400,1.00000,0.12300,-0.19200,0.00000,-0.93200,-0.28700,-0.63200,192.83000,0.42000
161225_15.00.30.934,0.03000,-0.05900,1.01700,0.08700,-0.22800,0.00000,-0.93200,-0.28700,-0.63200,191.89000,-0.94000
161225_15.00.30.945,0.02800,-0.05900,1.00400,0.07000,-0.08700,-0.01800,-0.93100,-0.29400,-0.64200,192.46000,0.57000
161225_15.00.30.956,0.02800,-0.06200,0.98200,0.10500,-0.10500,-0.03500,-0.93600,-0.29300,-0.63500,192.45000,-0.01000
161225_15.00.30.968,0.02800,-0.05900,1.00900,0.15700,-0.38500,-0.03500,-0.93600,-0.29200,-0.63700,192.69000,0.24000
161225_15.00.30.979,0.02700,-0.05900,1.02800,0.08700,-0.22800,-0.03500,-0.93900,-0.29300,-0.63300,192.82000,0.13000
161225_15.00.30.991,0.02700,-0.06200,0.99800,0.07000,-0.01800,-0.03500,-0.93900,-0.29300,-0.63300,192.39000,-0.43000
161225_15.00.31.002,0.02800,-0.06400,0.98900,0.08700,-0.14000,-0.01800,-0.93800,-0.29500,-0.63200,192.61000,0.22000
161225_15.00.31.014,0.02800,-0.05500,1.02200,0.10500,-0.31500,0.00000,-0.93800,-0.29300,-0.63300,192.58000,-0.03000
161225_15.00.31.026,0.02600,-0.05500,1.01300,0.01800,-0.01800,-0.03500,-0.93500,-0.29600,-0.63300,192.65000,0.07000
161225_15.00.31.037,0.02600,-0.06100,0.97600,0.14000,-0.31500,-0.01800,-0.93100,-0.29500,-0.63400,192.29000,-0.36000
161225_15.00.31.049,0.02800,-0.05600,1.01900,0.05300,-0.22800,-0.01800,-0.93100,-0.29500,-0.63400,193.07000,0.78000
161225_15.00.31.061,0.02500,-0.06000,0.99500,0.07000,-0.01800,0.00000,-0.93600,-0.30100,-0.63200,192.56000,-0.51000
161225_15.00.31.072,0.02700,-0.06100,0.98800,0.10500,-0.21000,0.03500,-0.93500,-0.29600,-0.63700,192.66000,0.10000
161225_15.00.31.084,0.02700,-0.05000,1.01400,0.08700,-0.24500,0.01800,-0.93500,-0.29600,-0.63200,192.74000,0.08000
161225_15.00.31.096,0.02600,-0.05500,1.00700,0.05300,-0.07000,0.00000,-0.93200,-0.29700,-0.63800,192.56000,-0.18000
161225_15.00.31.107,0.02800,-0.06100,0.98400,0.07000,0.01800,0.00000,-0.93200,-0.29700,-0.63800,192.36000,-0.20000
161225_15.00.31.119,0.03200,-0.06000,0.99300,0.14000,-0.26200,0.03500,-0.93700,-0.29600,-0.64300,192.39000,0.03000
161225_15.00.31.130,0.03200,-0.05900,1.02300,0.08700,-0.24500,0.03500,-0.93700,-0.29300,-0.63900,192.17000,-0.22000
161225_15.00.31.142,0.02700,-0.05600,1.00000,0.05300,-0.05300,0.03500,-0.93300,-0.29100,-0.63700,191.86000,-0.31000
161225_15.00.31.154,0.02700,-0.05800,0.98000,0.05300,-0.05300,0.05300,-0.94000,-0.29300,-0.64400,193.58000,1.72000
161225_15.00.31.165,0.02800,-0.05900,1.00200,0.10500,-0.15700,0.03500,-0.94000,-0.29300,-0.64400,192.59000,-0.99000
161225_15.00.31.177,0.02700,-0.06200,0.98600,0.07000,-0.03500,0.03500,-0.93300,-0.29200,-0.64900,192.56000,-0.03000
161225_15.00.31.189,0.02800,-0.06500,0.99000,0.15700,-0.24500,0.05300,-0.93600,-0.29600,-0.64600,192.53000,-0.03000
161225_15.00.31.200,0.02800,-0.05500,1.02400,0.14000,-0.29800,0.05300,-0.93400,-0.29700,-0.64900,192.65000,0.12000
161225_15.00.31.212,0.02400,-0.05900,1.00900,0.05300,0.01800,0.01800,-0.92900,-0.29700,-0.64700,192.53000,-0.12000
161225_15.00.31.224,0.02500,-0.06400,0.98000,0.05300,-0.01800,0.01800,-0.92900,-0.29700,-0.64700,192.64000,0.11000
161225_15.00.31.235,0.02500,-0.06100,1.00800,0.10500,-0.26200,0.01800,-0.93000,-0.29700,-0.65400,192.37000,-0.27000
161225_15.00.31.247,0.02800,-0.05800,1.02000,0.05300,-0.15700,-0.01800,-0.93300,-0.30100,-0.64800,193.07000,0.70000
161225_15.00.31.258,0.02800,-0.06200,0.99700,0.07000,-0.01800,-0.01800,-0.93200,-0.29700,-0.64600,192.38000,-0.69000
161225_15.00.31.270,0.02800,-0.06300,0.99300,0.08700,-0.15700,-0.01800,-0.93400,-0.29500,-0.64100,192.17000,-0.21000
161225_15.00.31.282,0.02500,-0.05500,1.01200,0.10500,-0.07000,-0.01800,-0.93400,-0.29500,-0.64100,192.98000,0.81000
161225_15.00.31.293,0.03000,-0.05800,0.98700,0.05300,-0.01800,-0.03500,-0.93000,-0.29800,-0.64300,193.08000,0.10000
161225_15.00.31.305,0.02700,-0.05800,0.99800,0.12300,-0.21000,-0.03500,-0.93000,-0.29500,-0.64900,192.01000,-1.07000
161225_15.00.31.317,0.03100,-0.05600,1.02200,0.10500,-0.31500,-0.01800,-0.93400,-0.29700,-0.64500,192.30000,0.29000
161225_15.00.31.328,0.02800,-0.05900,1.00300,0.03500,-0.03500,-0.03500,-0.93500,-0.29600,-0.64800,192.23000,-0.07000
161225_15.00.31.340,0.02800,-0.06100,0.98200,0.12300,-0.10500,-0.01800,-0.93500,-0.29600,-0.64800,192.41000,0.18000
161225_15.00.31.352,0.02400,-0.05500,1.01300,0.14000,-0.28000,-0.03500,-0.93500,-0.29600,-0.64500,192.44000,0.03000
161225_15.00.31.363,0.03300,-0.05900,1.01000,0.03500,-0.14000,-0.03500,-0.93500,-0.29400,-0.64800,192.12000,-0.32000
161225_15.00.31.375,0.02600,-0.06000,0.98400,0.12300,0.03500,-0.01800,-0.93500,-0.29100,-0.64700,192.79000,0.67000
161225_15.00.31.386,0.03100,-0.06300,1.00000,0.12300,-0.29800,0.00000,-0.93500,-0.29400,-0.65000,192.23000,-0.56000
161225_15.00.31.397,0.02700,-0.05700,1.01700,0.05300,-0.24500,0.01800,-0.93500,-0.29400,-0.65000,192.70000,0.47000
161225_15.00.31.408,0.02200,-0.05500,1.00200,0.05300,-0.10500,0.01800,-0.93500,-0.29400,-0.64800,192.40000,-0.30000
161225_15.00.31.419,0.02600,-0.06100,1.00000,0.12300,-0.15700,0.01800,-0.93600,-0.29500,-0.64500,192.92000,0.52000
161225_15.00.31.429,0.02900,-0.05300,1.01400,0.12300,-0.24500,0.01800,-0.93400,-0.29300,-0.65000,192.77000,-0.15000
161225_15.00.31.440,0.03500,-0.06500,1.00000,0.05300,-0.03500,0.03500,-0.94000,-0.29300,-0.64500,192.72000,-0.05000
161225_15.00.31.451,0.02400,-0.06200,0.98400,0.14000,-0.10500,0.03500,-0.94000,-0.29300,-0.64500,192.40000,-0.32000
161225_15.00.31.461,0.02700,-0.05800,1.01600,0.12300,-0.28000,0.05300,-0.93800,-0.29200,-0.64300,192.61000,0.21000
161225_15.00.31.472,0.02200,-0.05800,1.01600,0.05300,-0.05300,0.01800,-0.93600,-0.29400,-0.64500,192.53000,-0.08000
161225_15.00.31.483,0.02500,-0.05900,0.98500,0.05300,0.07000,0.01800,-0.93300,-0.29300,-0.65300,192.01000,-0.52000
161225_15.00.31.494,0.02600,-0.06200,0.99600,0.08700,-0.26200,0.03500,-0.93800,-0.29400,-0.65300,192.72000,0.71000
161225_15.00.31.504,0.03000,-0.05900,1.02000,0.07000,-0.21000,0.01800,-0.93800,-0.29400,-0.65300,192.57000,-0.15000
161225_15.00.31.515,0.02900,-0.05700,1.00100,0.08700,-0.03500,0.01800,-0.93600,-0.29500,-0.65200,192.58000,0.01000
161225_15.00.31.526,0.02600,-0.06400,0.98400,0.12300,-0.29800,0.00000,-0.94000,-0.29400,-0.65100,193.02000,0.44000
161225_15.00.31.537,0.02600,-0.05600,1.02000,0.05300,-0.15700,-0.01800,-0.94000,-0.29500,-0.65200,192.54000,-0.48000
161225_15.00.31.548,0.02600,-0.06100,0.99000,0.05300,0.00000,-0.01800,-0.94200,-0.29900,-0.65000,191.90000,-0.64000
161225_15.00.31.560,0.03000,-0.06200,0.99200,0.12300,-0.24500,-0.01800,-0.94200,-0.29900,-0.65000,193.01000,1.11000
161225_15.00.31.571,0.02700,-0.05300,1.02000,0.10500,-0.29800,-0.01800,-0.94500,-0.29400,-0.64800,192.79000,-0.22000
161225_15.00.31.583,0.02700,-0.05700,1.01000,0.05300,-0.08700,-0.01800,-0.94200,-0.29500,-0.64500,192.66000,-0.13000
161225_15.00.31.594,0.02600,-0.06200,0.98200,0.10500,-0.05300,-0.03500,-0.94300,-0.29600,-0.64900,192.44000,-0.22000
161225_15.00.31.605,0.02500,-0.06000,1.00200,0.14000,-0.24500,-0.01800,-0.94300,-0.29700,-0.64400,192.31000,-0.13000
161225_15.00.31.617,0.02600,-0.05500,1.01700,0.07000,-0.17500,-0.05300,-0.94300,-0.29700,-0.64400,192.21000,-0.10000
161225_15.00.31.628,0.02900,-0.06100,1.00000,0.05300,-0.05300,-0.05300,-0.94300,-0.29600,-0.64400,192.79000,0.58000
161225_15.00.31.640,0.02800,-0.06000,0.99000,0.10500,-0.14000,-0.01800,-0.94200,-0.29700,-0.64000,192.15000,-0.64000
161225_15.00.31.652,0.03300,-0.05500,1.01600,0.03500,-0.08700,-0.01800,-0.94300,-0.30200,-0.64700,192.69000,0.54000
161225_15.00.31.663,0.03000,-0.06100,0.98300,0.08700,0.01800,0.00000,-0.93800,-0.29600,-0.64100,192.31000,-0.38000
161225_15.00.31.674,0.03200,-0.06000,0.99300,0.12300,-0.24500,0.01800,-0.93800,-0.29600,-0.64100,192.43000,0.12000
161225_15.00.31.686,0.02900,-0.05700,1.02100,0.10500,-0.22800,0.01800,-0.94200,-0.29600,-0.64400,192.94000,0.51000
161225_15.00.31.697,0.03000,-0.05900,1.00300,0.05300,-0.05300,0.01800,-0.94300,-0.29700,-0.64500,192.59000,-0.35000
161225_15.00.31.709,0.02600,-0.06200,0.98200,0.05300,-0.07000,0.01800,-0.94100,-0.30000,-0.64600,192.79000,0.20000
161225_15.00.31.720,0.03000,-0.05800,1.01100,0.12300,-0.31500,0.03500,-0.93600,-0.29900,-0.64700,192.69000,-0.10000
161225_15.00.31.732,0.02500,-0.05800,1.01400,0.03500,-0.08700,0.03500,-0.93600,-0.29900,-0.64700,191.80000,-0.89000
161225_15.00.31.743,0.02800,-0.06000,0.98700,0.05300,-0.03500,0.03500,-0.93800,-0.30100,-0.65000,192.96000,1.16000
161225_15.00.31.754,0.02400,-0.06100,0.99500,0.08700,-0.21000,0.05300,-0.93900,-0.29900,-0.64700,193.14000,0.18000
161225_15.00.31.766,0.02400,-0.05100,1.02100,0.08700,-0.22800,0.05300,-0.93800,-0.29800,-0.64000,193.23000,0.09000
161225_15.00.31.777,0.02200,-0.05900,0.97600,0.08700,0.00000,0.03500,-0.93900,-0.29500,-0.64500,192.22000,-1.01000
161225_15.00.31.789,0.02700,-0.05800,1.00900,0.10500,-0.21000,0.01800,-0.93900,-0.29500,-0.64500,192.54000,0.32000
161225_15.00.31.800,0.02800,-0.05700,1.01500,0.03500,-0.05300,0.01800,-0.94300,-0.29600,-0.64600,192.40000,-0.14000
161225_15.00.31.811,0.03000,-0.06300,0.99600,0.03500,0.01800,0.01800,-0.94000,-0.29700,-0.65000,191.17000,-1.23000
161225_15.00.31.823,0.02700,-0.06000,0.99000,0.10500,-0.08700,0.01800,-0.94000,-0.29400,-0.64400,192.92000,1.75000
161225_15.00.31.834,0.02800,-0.05600,1.01400,0.07000,-0.19200,-0.03500,-0.94100,-0.29600,-0.64400,192.39000,-0.53000
161225_15.00.31.846,0.02800,-0.06100,1.00700,0.05300,-0.03500,-0.01800,-0.94100,-0.29600,-0.64400,192.13000,-0.26000
161225_15.00.31.857,0.02400,-0.06200,0.98500,0.07000,0.00000,-0.01800,-0.94000,-0.29800,-0.64600,192.61000,0.48000
161225_15.00.31.869,0.03100,-0.06100,1.00200,0.14000,-0.24500,0.00000,-0.93900,-0.29600,-0.63800,192.58000,-0.03000
161225_15.00.31.880,0.02900,-0.05900,1.02400,0.10500,-0.19200,0.00000,-0.93800,-0.30000,-0.64500,193.10000,0.52000
161225_15.00.31.892,0.02500,-0.05800,0.99900,0.07000,-4.46300,0.00000,-0.93600,-0.29800,-0.64000,192.78000,-0.32000
161225_15.00.31.903,0.02600,-0.06300,1.01100,0.10500,-0.29800,-0.01800,-0.93600,-0.29800,-0.64000,192.98000,0.20000
161225_15.00.31.915,0.02500,-0.06100,1.01100,0.05300,-0.07000,-0.01800,-0.94100,-0.29500,-0.64000,192.95000,-0.03000
161225_15.00.31.927,0.02600,-0.06100,0.98600,0.08700,-0.07000,0.01800,-0.94300,-0.30000,-0.64000,192.75000,-0.20000
161225_15.00.31.938,0.02600,-0.05800,0.99900,0.12300,-0.24500,0.00000,-0.93600,-0.29700,-0.65400,193.05000,0.30000
161225_15.00.31.950,0.02700,-0.05500,1.02000,0.10500,-0.26200,0.00000,-0.93500,-0.29800,-0.66000,192.53000,-0.52000
161225_15.00.31.961,0.02500,-0.06200,0.99600,0.03500,0.07000,0.01800,-0.93500,-0.29800,-0.66000,192.83000,0.30000
161225_15.00.31.973,0.02500,-0.06400,0.98800,0.10500,-0.14000,0.00000,-0.93600,-0.29600,-0.65300,191.63000,-1.20000
161225_15.00.31.984,0.02600,-0.05800,1.00900,0.07000,-0.17500,0.01800,-0.93500,-0.30000,-0.65400,192.77000,1.14000
161225_15.00.31.995,0.02700,-0.05900,1.01100,0.07000,-0.12300,0.00000,-0.93900,-0.29600,-0.65200,192.22000,-0.55000
161225_15.00.32.007,0.02600,-0.06200,0.99100,0.05300,0.01800,0.00000,-0.94100,-0.30100,-0.64800,192.70000,0.48000
161225_15.00.32.018,0.02500,-0.05700,0.99700,0.12300,-0.17500,0.01800,-0.94100,-0.30100,-0.64800,193.19000,0.49000
161225_15.00.32.030,0.02800,-0.05900,1.00000,0.03500,0.00000,0.01800,-0.94200,-0.29500,-0.64100,192.81000,-0.38000
161225_15.00.32.041,0.02700,-0.05900,0.98400,0.10500,-0.03500,0.01800,-0.93900,-0.29600,-0.65000,192.73000,-0.08000
161225_15.00.32.053,0.03200,-0.05700,1.00200,0.12300,-0.28000,0.03500,-0.93900,-0.29600,-0.64600,192.99000,0.26000
161225_15.00.32.064,0.02800,-0.05500,1.02100,0.07000,-0.15700,0.01800,-0.94000,-0.29500,-0.65100,192.82000,-0.17000
161225_15.00.32.076,0.02900,-0.05800,0.99000,0.07000,0.00000,0.01800,-0.94000,-0.29500,-0.65100,192.24000,-0.58000
161225_15.00.32.087,0.03000,-0.05900,0.99400,0.10500,-0.19200,0.01800,-0.93900,-0.29800,-0.65200,192.41000,0.17000
161225_15.00.32.098,0.02900,-0.05400,1.01700,0.08700,-0.22800,0.00000,-0.93700,-0.30000,-0.64800,192.86000,0.45000
161225_15.00.32.110,0.02700,-0.05700,1.00200,0.03500,-0.01800,0.01800,-0.94200,-0.29300,-0.65200,192.07000,-0.79000
161225_15.00.32.121,0.02900,-0.06300,0.98600,0.12300,-0.12300,0.01800,-0.93800,-0.29900,-0.65100,192.36000,0.29000
161225_15.00.32.133,0.02800,-0.05900,1.01000,0.12300,-0.29800,0.01800,-0.93800,-0.29900,-0.65100,192.63000,0.27000
161225_15.00.32.144,0.02800,-0.05400,1.02000,0.07000,0.00000,0.01800,-0.94000,-0.29900,-0.65300,191.77000,-0.86000
161225_15.00.32.156,0.02600,-0.06300,0.98900,0.10500,-0.12300,0.00000,-0.93800,-0.29900,-0.65400,192.39000,0.62000
161225_15.00.32.167,0.02900,-0.05900,1.01100,0.08700,-0.17500,0.00000,-0.93800,-0.29900,-0.65000,192.61000,0.22000
161225_15.00.32.178,0.02900,-0.06100,1.01100,0.07000,-0.10500,0.00000,-0.94000,-0.30000,-0.64700,192.45000,-0.16000
161225_15.00.32.190,0.02900,-0.06300,0.99300,0.08700,-0.03500,0.03500,-0.94000,-0.30000,-0.64700,193.05000,0.60000
161225_15.00.32.201,0.02800,-0.05900,0.99500,0.12300,-0.15700,0.01800,-0.93700,-0.29800,-0.65100,193.24000,0.19000
161225_15.00.32.213,0.02700,-0.05700,1.02000,0.10500,-0.19200,0.01800,-0.93900,-0.29800,-0.65000,192.11000,-1.13000
161225_15.00.32.224,0.02800,-0.06200,1.00300,0.05300,0.00000,0.00000,-0.93200,-0.29600,-0.65000,192.78000,0.67000
161225_15.00.32.235,0.02800,-0.06200,0.98300,0.12300,0.03500,0.01800,-0.93500,-0.29500,-0.65400,192.02000,-0.76000
161225_15.00.32.247,0.03100,-0.06000,1.00800,0.10500,-0.24500,0.03500,-0.93500,-0.29500,-0.65400,192.48000,0.46000
161225_15.00.32.258,0.02800,-0.05800,1.01700,0.03500,-0.10500,0.01800,-0.93700,-0.29400,-0.64900,192.25000,-0.23000
161225_15.00.32.269,0.03000,-0.06000,0.98800,0.15700,-0.15700,0.03500,-0.93600,-0.29700,-0.64600,193.08000,0.83000
161225_15.00.32.281,0.02600,-0.05600,1.01700,0.10500,-0.21000,0.01800,-0.93900,-0.29600,-0.64300,192.57000,-0.51000
161225_15.00.32.292,0.02600,-0.06000,1.00300,0.05300,0.00000,0.03500,-0.93800,-0.29600,-0.65200,192.72000,0.15000
161225_15.00.32.304,0.02600,-0.06300,0.98500,0.12300,-0.03500,0.07000,-0.93800,-0.29600,-0.65200,192.44000,-0.28000
161225_15.00.32.315,0.02600,-0.05700,1.00700,0.14000,-0.28000,0.07000,-0.94200,-0.29300,-0.65100,191.96000,-0.48000
161225_15.00.32.327,0.02700,-0.05500,1.01800,0.03500,-0.12300,0.05300,-0.94000,-0.29400,-0.64300,193.15000,1.19000
161225_15.00.32.338,0.02600,-0.06100,0.99300,0.08700,0.00000,0.05300,-0.94500,-0.29600,-0.64000,192.37000,-0.78000
161225_15.00.32.349,0.02600,-0.06100,0.99000,0.12300,-0.12300,0.03500,-0.94400,-0.29600,-0.64100,192.61000,0.24000
161225_15.00.32.361,0.02500,-0.05400,1.00900,0.10500,-0.22800,0.01800,-0.94400,-0.29600,-0.64100,192.85000,0.24000
161225_15.00.32.372,0.02300,-0.05700,1.01100,0.05300,-0.08700,0.03500,-0.94000,-0.29200,-0.64400,192.65000,-0.20000
161225_15.00.32.384,0.02300,-0.06100,0.99300,0.08700,-0.05300,0.03500,-0.94500,-0.29200,-0.64300,193.09000,0.44000
161225_15.00.32.395,0.02400,-0.05300,0.99900,0.05300,-0.19200,0.00000,-0.94400,-0.29300,-0.64500,192.34000,-0.75000
161225_15.00.32.406,0.02000,-0.05500,1.00300,0.01800,0.03500,-0.01800,-0.93500,-0.29500,-0.64300,192.66000,0.32000
161225_15.00.32.418,0.02300,-0.06100,0.98100,0.07000,0.00000,-0.01800,-0.93500,-0.29500,-0.64300,192.52000,-0.14000
161225_15.00.32.429,0.02300,-0.05600,1.00300,0.15700,-0.35000,-0.01800,-0.93900,-0.29800,-0.64200,192.30000,-0.22000
161225_15.00.32.441,0.03200,-0.05800,1.02900,0.03500,-0.24500,-0.03500,-0.94000,-0.29600,-0.64700,192.28000,-0.02000
161225_15.00.32.452,0.03300,-0.06100,0.99300,0.07000,0.01800,-0.01800,-0.94100,-0.29400,-0.64500,192.39000,0.11000
161225_15.00.32.464,0.02500,-0.05900,0.98800,0.14000,-0.12300,-0.01800,-0.94400,-0.29400,-0.64500,192.79000,0.40000
161225_15.00.32.475,0.03000,-0.05200,1.02000,0.03500,-0.28000,-0.03500,-0.94400,-0.29400,-0.64500,191.91000,-0.88000
161225_15.00.32.486,0.03000,-0.05900,1.00200,-0.01800,0.01800,-0.01800,-0.94700,-0.29400,-0.64700,192.62000,0.71000
161225_15.00.32.498,0.03000,-0.05800,0.98200,0.17500,-0.10500,0.00000,-0.94000,-0.29400,-0.65000,192.33000,-0.29000
161225_15.00.32.509,0.02900,-0.05500,1.00600,0.12300,-0.35000,0.00000,-0.94000,-0.29500,-0.63900,192.93000,0.60000
161225_15.00.32.521,0.03200,-0.05800,0.99500,0.05300,0.00000,0.01800,-0.94200,-0.29400,-0.64100,191.86000,-1.07000
161225_15.00.32.532,0.02900,-0.05900,0.98700,0.14000,-0.15700,0.01800,-0.94200,-0.29400,-0.64100,192.33000,0.47000
161225_15.00.32.543,0.02800,-0.05400,1.01300,0.07000,-0.22800,0.03500,-0.93700,-0.29100,-0.64400,192.86000,0.53000
161225_15.00.32.555,0.02800,-0.06400,1.00500,0.03500,-0.14000,0.03500,-0.93900,-0.29100,-0.64400,192.57000,-0.29000
161225_15.00.32.566,0.02400,-0.06200,0.99000,0.12300,-0.05300,0.03500,-0.94400,-0.29400,-0.64200,193.05000,0.48000
161225_15.00.32.578,0.02900,-0.05900,1.00200,0.12300,-0.29800,0.01800,-0.94200,-0.29400,-0.64100,193.22000,0.17000
161225_15.00.32.589,0.02500,-0.05900,1.02000,0.01800,-0.10500,0.00000,-0.94200,-0.29400,-0.64100,192.64000,-0.58000
161225_15.00.32.601,0.02800,-0.06300,0.99300,0.03500,0.01800,0.00000,-0.94100,-0.29400,-0.63700,192.08000,-0.56000
161225_15.00.32.612,0.02500,-0.06100,0.99100,0.10500,-0.08700,0.01800,-0.94200,-0.29100,-0.64200,192.61000,0.53000
161225_15.00.32.624,0.03300,-0.05800,1.01600,0.10500,-0.29800,0.00000,-0.94100,-0.28700,-0.63600,192.14000,-0.47000
161225_15.00.32.635,0.03200,-0.06200,1.00900,0.03500,-0.10500,0.00000,-0.94000,-0.28900,-0.62600,192.31000,0.17000
161225_15.00.32.647,0.03100,-0.06300,1.00500,0.08700,-0.19200,0.00000,-0.94000,-0.28900,-0.62600,192.71000,0.40000
161225_15.00.32.658,0.02200,-0.05700,1.00700,0.08700,-0.10500,0.00000,-0.94200,-0.29200,-0.63300,192.47000,-0.24000
161225_15.00.32.670,0.02600,-0.05800,1.00000,0.10500,-0.12300,-0.01800,-0.94000,-0.29400,-0.63800,192.14000,-0.33000
161225_15.00.32.681,0.02900,-0.06000,0.99800,0.10500,-0.26200,0.01800,-0.93700,-0.29100,-0.63100,191.74000,-0.40000
161225_15.00.32.693,0.02500,-0.05400,1.01200,0.08700,-0.21000,-0.01800,-0.94000,-0.29400,-0.63900,192.74000,1.00000
161225_15.00.32.704,0.03000,-0.06100,1.00900,0.07000,-0.22800,0.00000,-0.94000,-0.29400,-0.63900,193.23000,0.49000
161225_15.00.32.716,0.02500,-0.06500,0.99400,0.12300,-0.03500,-0.01800,-0.94200,-0.29300,-0.63500,191.87000,-1.36000
161225_15.00.32.727,0.02600,-0.05400,0.99700,0.22800,-0.29800,-0.05300,-0.93300,-0.29600,-0.64500,192.78000,0.91000
161225_15.00.32.738,0.02300,-0.05600,1.01700,0.08700,-0.19200,-0.07000,-0.93500,-0.29500,-0.64400,192.44000,-0.34000
161225_15.00.32.750,0.02500,-0.05900,0.99200,0.17500,-0.10500,-0.05300,-0.93300,-0.29500,-0.64600,192.29000,-0.15000
161225_15.00.32.761,0.02500,-0.05600,0.99200,0.08700,-0.21000,0.00000,-0.93300,-0.29500,-0.64600,192.69000,0.40000
161225_15.00.32.773,0.02700,-0.05800,1.01300,0.07000,-0.03500,0.00000,-0.93500,-0.29600,-0.64300,192.23000,-0.46000
161225_15.00.32.784,0.02900,-0.06100,0.98500,0.08700,0.05300,-0.01800,-0.93400,-0.29600,-0.64200,192.28000,0.05000
161225_15.00.32.796,0.02800,-0.05700,0.99600,0.17500,-0.19200,0.00000,-0.93600,-0.29600,-0.63900,193.28000,1.00000
161225_15.00.32.807,0.03000,-0.05800,1.02500,0.05300,-0.24500,0.01800,-0.93300,-0.29800,-0.63600,192.90000,-0.38000
161225_15.00.32.818,0.02800,-0.05900,1.00100,0.05300,0.01800,0.01800,-0.93300,-0.29800,-0.63600,192.89000,-0.01000
161225_15.00.32.830,0.02900,-0.06200,0.98300,0.14000,-0.10500,0.00000,-0.93400,-0.29400,-0.64500,191.91000,-0.98000
161225_15.00.32.841,0.02900,-0.05700,1.01300,0.08700,-0.29800,0.01800,-0.93200,-0.29500,-0.64300,192.51000,0.60000
161225_15.00.32.853,0.02700,-0.06000,1.01600,0.01800,-0.07000,-0.01800,-0.93400,-0.29600,-0.64200,192.41000,-0.10000
161225_15.00.32.864,0.02900,-0.06400,0.98800,0.08700,-0.03500,0.01800,-0.92900,-0.29700,-0.64100,191.83000,-0.58000
161225_15.00.32.876,0.02600,-0.05900,0.99500,0.15700,-0.29800,0.01800,-0.92900,-0.29700,-0.64100,192.30000,0.47000
161225_15.00.32.887,0.02900,-0.05600,1.02100,0.10500,0.00000,-0.01800,-0.93500,-0.29400,-0.64000,192.07000,-0.23000
161225_15.00.32.898,0.02600,-0.06100,0.98100,0.22800,-0.17500,0.00000,-0.93300,-0.29300,-0.64500,192.52000,0.45000
161225_15.00.32.910,0.02800,-0.05700,1.00400,0.15700,-0.29800,-0.01800,-0.92800,-0.29500,-0.64600,191.99000,-0.53000
161225_15.00.32.921,0.02700,-0.05900,1.01200,0.08700,-0.12300,0.00000,-0.93100,-0.29000,-0.64400,192.57000,0.58000
161225_15.00.32.933,0.02800,-0.06000,0.98800,0.10500,-0.01800,-0.01800,-0.93100,-0.29000,-0.64400,192.48000,-0.09000
161225_15.00.32.944,0.02600,-0.05700,0.99100,0.10500,-0.14000,0.01800,-0.93200,-0.29200,-0.63800,192.42000,-0.06000
161225_15.00.32.956,0.02800,-0.05600,1.01700,0.05300,-0.19200,0.01800,-0.93100,-0.29200,-0.64100,191.89000,-0.53000
161225_15.00.32.967,0.02600,-0.05900,1.00600,0.03500,0.03500,0.00000,-0.92800,-0.29200,-0.63500,192.42000,0.53000
161225_15.00.32.978,0.02800,-0.05900,0.98200,0.10500,0.03500,0.01800,-0.93200,-0.28900,-0.64300,192.36000,-0.06000
161225_15.00.32.990,0.03100,-0.05700,1.00700,0.10500,-0.28000,0.00000,-0.93200,-0.28900,-0.64300,193.01000,0.65000
161225_15.00.33.001,0.03000,-0.05800,1.02300,0.05300,-0.10500,0.00000,-0.92300,-0.29200,-0.63500,192.00000,-1.01000
161225_15.00.33.013,0.02900,-0.05900,0.98900,0.08700,-0.14000,-0.01800,-0.92400,-0.29100,-0.64600,192.47000,0.47000
161225_15.00.33.024,0.02900,-0.06100,1.01900,0.03500,-0.26200,-0.01800,-0.92300,-0.28800,-0.64000,192.21000,-0.26000
161225_15.00.33.035,0.02600,-0.06100,1.00900,0.01800,0.01800,0.01800,-0.92500,-0.29100,-0.64200,192.70000,0.49000
161225_15.00.33.046,0.02800,-0.06300,0.98000,0.10500,0.00000,0.01800,-0.92500,-0.29100,-0.64200,192.44000,-0.26000
161225_15.00.33.058,0.03400,-0.05800,1.00900,0.08700,-0.35000,0.01800,-0.92800,-0.28700,-0.64600,192.57000,0.13000
161225_15.00.33.069,0.03600,-0.05800,1.02800,0.01800,-0.15700,0.01800,-0.92600,-0.28700,-0.64200,192.90000,0.33000
161225_15.00.33.081,0.02800,-0.04200,0.96200,0.15700,0.22800,0.05300,-0.92700,-0.29000,-0.64200,192.22000,-0.68000
161225_15.00.33.093,0.00200,-0.05000,0.98900,0.22800,-0.45500,-0.01800,-0.93100,-0.29000,-0.64000,192.87000,0.65000
161225_15.00.33.104,0.06600,-0.00200,1.12200,-0.50700,-0.12300,-0.03500,-0.93100,-0.29000,-0.64000,194.51000,1.64000
161225_15.00.33.116,0.03900,-0.05600,0.89000,0.57700,1.06700,-0.05300,-0.93000,-0.29000,-0.63600,194.04000,-0.47000
161225_15.00.33.127,0.04700,-0.08200,1.02600,0.12300,-1.54000,0.08700,-0.93000,-0.28900,-0.63200,194.83000,0.79000
161225_15.00.33.138,-0.01300,-0.11100,0.85300,0.59500,0.64700,0.14000,-0.92900,-0.28300,-0.63400,192.16000,-2.67000
161225_15.00.33.150,-0.02800,-0.04100,1.01400,0.10500,-0.40300,0.01800,-0.93000,-0.28700,-0.64100,190.57000,-1.59000
161225_15.00.33.161,0.01100,-0.06500,1.07400,-0.22800,-0.38500,-0.08700,-0.93000,-0.28700,-0.64100,190.93000,0.36000
161225_15.00.33.173,0.04900,-0.08300,1.02000,0.07000,0.05300,-0.07000,-0.92800,-0.28700,-0.62800,194.02000,3.09000
161225_15.00.33.184,0.00700,-0.03100,0.92900,0.26200,0.57700,0.00000,-0.93000,-0.29000,-0.63800,193.96000,-0.06000
161225_15.00.33.196,0.01200,-0.04800,0.98900,-0.05300,-0.45500,-0.05300,-0.93200,-0.29100,-0.63700,191.85000,-2.11000
161225_15.00.33.207,0.01800,-0.08900,1.02200,-0.26200,-0.01800,-0.05300,-0.92800,-0.28900,-0.63200,190.68000,-1.17000
161225_15.00.33.219,0.01000,-0.06100,0.98800,0.28000,-0.10500,-0.01800,-0.92800,-0.28900,-0.63200,192.60000,1.92000
161225_15.00.33.230,0.04000,-0.07100,1.06500,-0.10500,-0.68300,-0.01800,-0.93300,-0.28800,-0.63500,193.66000,1.06000
161225_15.00.33.242,0.02800,-0.08900,0.97600,-0.14000,0.68300,-0.03500,-0.93000,-0.29200,-0.63600,193.08000,-0.58000
161225_15.00.33.253,0.02300,-0.03300,0.94400,0.50700,-0.63000,-0.05300,-0.92900,-0.28900,-0.63500,192.71000,-0.37000
161225_15.00.33.265,0.03300,-0.09300,0.99100,0.03500,0.21000,0.00000,-0.92800,-0.29100,-0.62900,191.61000,-1.10000
161225_15.00.33.276,0.02600,-0.04400,0.98100,0.28000,-0.36800,0.01800,-0.92800,-0.29100,-0.62900,192.47000,0.86000
161225_15.00.33.288,0.03300,-0.05300,1.01800,-0.03500,-0.31500,0.00000,-0.93000,-0.29200,-0.63500,192.72000,0.25000
161225_15.00.33.300,0.02800,-0.06100,0.99600,0.12300,-0.14000,0.00000,-0.93200,-0.28900,-0.64000,192.61000,-0.11000
161225_15.00.33.311,0.02800,-0.06200,0.98500,0.07000,-0.17500,0.01800,-0.93200,-0.28900,-0.63700,192.44000,-0.17000
161225_15.00.33.323,0.03200,-0.06200,1.01300,0.15700,-0.47200,0.03500,-0.93300,-0.28400,-0.63500,192.16000,-0.28000
161225_15.00.33.334,0.02300,-0.06900,1.02300,0.01800,-0.21000,0.03500,-0.93300,-0.28400,-0.63500,192.82000,0.66000
161225_15.00.33.346,0.02000,-0.06800,0.98600,0.10500,0.01800,0.03500,-0.93400,-0.28300,-0.63600,192.11000,-0.71000
161225_15.00.33.357,0.03100,-0.06700,1.00400,0.14000,-0.42000,0.03500,-0.93600,-0.28500,-0.63300,192.47000,0.36000
161225_15.00.33.368,0.03100,-0.06200,1.00700,0.03500,-0.10500,0.01800,-0.93200,-0.28600,-0.64200,192.45000,-0.02000
161225_15.00.33.380,0.03700,-0.05200,1.00500,0.07000,-0.03500,0.01800,-0.93400,-0.28500,-0.63800,193.12000,0.67000
161225_15.00.33.391,0.02800,-0.05200,0.99800,0.15700,-0.24500,-0.01800,-0.93400,-0.28500,-0.63800,192.67000,-0.45000
161225_15.00.33.403,0.02900,-0.04800,1.02200,0.05300,-0.21000,-0.01800,-0.93200,-0.28400,-0.63300,192.30000,-0.37000
161225_15.00.33.414,0.02600,-0.05600,0.99200,0.05300,-0.01800,0.01800,-0.93400,-0.28700,-0.63800,193.00000,0.70000
161225_15.00.33.426,0.03300,-0.05900,0.98600,0.10500,-0.15700,0.01800,-0.93500,-0.28900,-0.63800,192.87000,-0.13000
161225_15.00.33.437,0.03600,-0.05600,1.00900,0.12300,-0.29800,-0.01800,-0.93300,-0.28800,-0.63300,192.73000,-0.14000
161225_15.00.33.449,0.03100,-0.06200,1.01800,0.03500,-0.14000,-0.03500,-0.93300,-0.28800,-0.63300,192.76000,0.03000
161225_15.00.33.461,0.03200,-0.06200,0.98800,0.07000,0.00000,-0.03500,-0.92900,-0.28600,-0.63900,192.87000,0.11000
161225_15.00.33.473,0.03100,-0.05400,0.99600,0.10500,-0.26200,-0.03500,-0.93400,-0.28800,-0.64300,192.69000,-0.18000
161225_15.00.33.485,0.02800,-0.05100,1.01700,0.03500,-0.19200,-0.07000,-0.93100,-0.28400,-0.64500,192.37000,-0.32000
161225_15.00.33.496,0.02800,-0.05300,1.00600,0.03500,-0.14000,-0.05300,-0.93500,-0.28700,-0.64800,192.06000,-0.31000
161225_15.00.33.507,0.02700,-0.05300,0.98900,0.08700,-0.28000,-0.07000,-0.93500,-0.28700,-0.64800,192.76000,0.70000
161225_15.00.33.519,0.03100,-0.05500,1.01900,0.00000,-0.15700,-0.08700,-0.93100,-0.28800,-0.65100,192.60000,-0.16000
161225_15.00.33.530,0.02700,-0.05700,0.99000,0.03500,0.07000,-0.10500,-0.93100,-0.28600,-0.63600,192.75000,0.15000
161225_15.00.33.542,0.02700,-0.05800,0.99000,0.08700,-0.19200,-0.10500,-0.93300,-0.28600,-0.64300,192.18000,-0.57000
161225_15.00.33.553,0.02800,-0.05900,1.01600,0.03500,-0.26200,-0.08700,-0.93300,-0.28700,-0.64100,192.39000,0.21000
161225_15.00.33.565,0.02500,-0.06200,1.01200,0.01800,-0.07000,-0.07000,-0.93300,-0.28700,-0.64100,192.74000,0.35000
161225_15.00.33.576,0.02500,-0.06200,0.98800,0.07000,0.00000,-0.07000,-0.93100,-0.29000,-0.64100,192.07000,-0.67000
161225_15.00.33.588,0.02700,-0.05600,1.00100,0.10500,-0.24500,-0.03500,-0.93100,-0.28600,-0.63900,192.77000,0.70000
161225_15.00.33.599,0.02700,-0.05800,1.01900,0.01800,-0.14000,-0.03500,-0.93000,-0.28400,-0.63700,192.90000,0.13000
161225_15.00.33.610,0.02500,-0.06000,0.99200,0.05300,0.03500,-0.05300,-0.93100,-0.28400,-0.64100,192.34000,-0.56000
161225_15.00.33.622,0.02500,-0.05800,0.98900,0.12300,-0.14000,-0.03500,-0.93100,-0.28400,-0.64100,192.55000,0.21000
161225_15.00.33.633,0.02300,-0.05600,1.01300,0.03500,-0.10500,-0.05300,-0.92500,-0.28500,-0.63900,193.19000,0.64000
161225_15.00.33.645,0.02400,-0.06500,0.98500,0.10500,-0.03500,-0.03500,-0.92700,-0.28600,-0.63700,192.73000,-0.46000
161225_15.00.33.656,0.02600,-0.06100,0.99800,0.14000,-0.26200,-0.03500,-0.93200,-0.28500,-0.64100,192.01000,-0.72000
161225_15.00.33.668,0.02500,-0.06400,1.01700,0.05300,-0.19200,-0.03500,-0.92800,-0.28100,-0.64300,192.64000,0.63000
161225_15.00.33.679,0.02400,-0.06800,0.99700,0.07000,-0.03500,-0.01800,-0.92800,-0.28100,-0.64300,192.36000,-0.28000
161225_15.00.33.691,0.02400,-0.06200,0.99000,0.14000,-0.19200,0.00000,-0.92600,-0.28400,-0.63500,192.79000,0.43000
161225_15.00.33.702,0.02600,-0.06000,1.01200,0.10500,-0.26200,-0.01800,-0.92300,-0.28600,-0.63700,192.96000,0.17000
161225_15.00.33.713,0.02500,-0.06200,1.01000,0.05300,-0.10500,-0.03500,-0.92500,-0.28300,-0.63900,192.17000,-0.79000
161225_15.00.33.725,0.02500,-0.06100,0.98600,0.08700,-0.01800,-0.01800,-0.92500,-0.28600,-0.64100,192.89000,0.72000
161225_15.00.33.736,0.03000,-0.05900,0.99600,0.12300,-0.24500,-0.01800,-0.92500,-0.28600,-0.64100,192.01000,-0.88000
161225_15.00.33.748,0.02700,-0.05800,1.01900,0.08700,-0.24500,-0.05300,-0.92100,-0.28400,-0.64000,192.62000,0.61000
161225_15.00.33.759,0.02600,-0.05900,0.96800,0.14000,-0.17500,-0.05300,-0.92300,-0.28300,-0.64000,192.77000,0.15000
161225_15.00.33.771,0.02800,-0.05700,1.01100,0.12300,-0.28000,-0.07000,-0.92500,-0.28400,-0.64300,191.79000,-0.98000
161225_15.00.33.782,0.02900,-0.06200,1.01500,0.05300,-0.15700,-0.07000,-0.92300,-0.28200,-0.64300,193.07000,1.28000
161225_15.00.33.793,0.03300,-0.06400,0.98700,0.07000,0.00000,-0.05300,-0.92300,-0.28200,-0.64300,192.36000,-0.71000
161225_15.00.33.805,0.03100,-0.05900,0.99400,0.17500,-0.31500,-0.03500,-0.92400,-0.28800,-0.64200,192.75000,0.39000
161225_15.00.33.816,0.03100,-0.05500,1.02200,0.08700,-0.31500,-0.07000,-0.92700,-0.28700,-0.64100,192.77000,0.02000
161225_15.00.33.828,0.02800,-0.06000,1.00200,0.07000,-0.05300,-0.08700,-0.92800,-0.28600,-0.63900,192.43000,-0.34000
161225_15.00.33.839,0.02600,-0.05600,0.98600,0.15700,-0.14000,-0.07000,-0.92500,-0.28200,-0.63800,192.55000,0.12000
161225_15.00.33.850,0.02800,-0.05200,1.00700,0.14000,-0.28000,-0.07000,-0.92500,-0.28200,-0.63800,192.37000,-0.18000
161225_15.00.33.862,0.02900,-0.05800,1.01900,0.05300,-0.19200,-0.05300,-0.92300,-0.28400,-0.63800,192.62000,0.25000
161225_15.00.33.873,0.03000,-0.06100,0.99700,0.08700,-0.14000,-0.03500,-0.92200,-0.28700,-0.64100,192.72000,0.10000
161225_15.00.33.885,0.03000,-0.05700,1.01600,0.10500,-0.28000,-0.05300,-0.92500,-0.28400,-0.64000,192.39000,-0.33000
161225_15.00.33.896,0.02900,-0.06200,1.01100,0.01800,-0.05300,-0.07000,-0.92600,-0.28300,-0.63700,192.31000,-0.08000
161225_15.00.33.908,0.02700,-0.05900,0.98200,0.12300,0.00000,-0.03500,-0.92600,-0.28300,-0.63700,192.92000,0.61000
161225_15.00.33.919,0.03000,-0.05500,1.00100,0.12300,-0.26200,-0.03500,-0.93100,-0.28600,-0.63400,192.33000,-0.59000
161225_15.00.33.931,0.03000,-0.05500,1.02300,0.01800,-0.24500,-0.03500,-0.93100,-0.28900,-0.63300,192.75000,0.42000
161225_15.00.33.942,0.02600,-0.05900,0.99800,0.05300,0.03500,-0.01800,-0.93100,-0.29000,-0.63200,192.23000,-0.52000
161225_15.00.33.954,0.02900,-0.05800,0.98500,0.15700,-0.14000,-0.01800,-0.92900,-0.28700,-0.63300,192.72000,0.49000
161225_15.00.33.966,0.02800,-0.05300,1.01300,0.10500,-0.24500,-0.03500,-0.92900,-0.28700,-0.63300,192.73000,0.01000
161225_15.00.33.977,0.02600,-0.05800,1.01100,0.03500,-0.08700,-0.03500,-0.92800,-0.28200,-0.63200,192.52000,-0.21000
161225_15.00.33.989,0.02600,-0.06200,0.98400,0.08700,0.01800,0.00000,-0.92900,-0.28700,-0.63400,193.54000,1.02000
161225_15.00.34.000,0.02800,-0.05800,0.99600,0.05300,-0.24500,0.00000,-0.92900,-0.28700,-0.62900,192.39000,-1.15000
161225_15.00.34.012,0.02900,-0.06300,1.00200,0.01800,0.07000,-0.01800,-0.92600,-0.28900,-0.63700,192.42000,0.03000
161225_15.00.34.023,0.02700,-0.06100,0.98200,0.14000,-0.03500,0.01800,-0.92600,-0.28900,-0.63700,192.42000,0.00000
161225_15.00.34.035,0.02900,-0.05500,1.00900,0.15700,-0.24500,0.00000,-0.93100,-0.28800,-0.63300,192.49000,0.07000
161225_15.00.34.046,0.02900,-0.06200,1.01400,0.07000,-0.12300,-0.01800,-0.92900,-0.28600,-0.63300,192.22000,-0.27000
161225_15.00.34.058,0.02500,-0.06000,0.98900,0.08700,0.03500,0.01800,-0.92600,-0.28600,-0.62800,192.51000,0.29000
161225_15.00.34.069,0.02800,-0.05700,0.99300,0.15700,-0.15700,0.00000,-0.93200,-0.28600,-0.63700,192.45000,-0.06000
161225_15.00.34.080,0.02600,-0.06200,1.02000,0.05300,-0.22800,-0.01800,-0.93200,-0.28600,-0.63700,192.00000,-0.45000
161225_15.00.34.092,0.02400,-0.06500,1.00400,0.01800,0.05300,-0.03500,-0.92800,-0.28300,-0.63600,192.05000,0.05000
161225_15.00.34.103,0.02600,-0.06300,0.98100,0.14000,0.00000,-0.03500,-0.92800,-0.28800,-0.63200,192.91000,0.86000
161225_15.00.34.115,0.02900,-0.06100,1.01000,0.14000,-0.26200,0.00000,-0.92800,-0.29000,-0.63400,192.24000,-0.67000
161225_15.00.34.126,0.02700,-0.06100,1.02000,0.10500,0.10500,-0.01800,-0.93000,-0.29100,-0.63500,192.77000,0.53000
161225_15.00.34.138,0.02700,-0.06000,0.99000,0.19200,-0.15700,0.00000,-0.93000,-0.29100,-0.63500,193.04000,0.27000
161225_15.00.34.150,0.02700,-0.05700,1.02200,0.10500,-0.21000,0.00000,-0.93200,-0.28900,-0.63300,192.77000,-0.27000
161225_15.00.34.161,0.02400,-0.06100,1.00200,0.05300,0.07000,0.00000,-0.92900,-0.29000,-0.63400,192.67000,-0.10000
161225_15.00.34.173,0.02700,-0.06100,0.98200,0.14000,-0.05300,0.01800,-0.93000,-0.29200,-0.63100,192.31000,-0.36000
161225_15.00.34.184,0.02900,-0.05600,1.01200,0.12300,-0.28000,0.01800,-0.93200,-0.28800,-0.63300,192.13000,-0.18000
161225_15.00.34.196,0.02800,-0.06100,1.01700,0.07000,-0.10500,0.01800,-0.93200,-0.28800,-0.63300,192.76000,0.63000
161225_15.00.34.207,0.02800,-0.06300,0.98800,0.08700,0.01800,0.01800,-0.93200,-0.28700,-0.62900,192.29000,-0.47000
161225_15.00.34.218,0.02600,-0.06000,0.98900,0.14000,-0.17500,0.00000,-0.92900,-0.28500,-0.63800,192.44000,0.15000
161225_15.00.34.230,0.02800,-0.05800,1.01700,0.07000,-0.24500,0.00000,-0.93200,-0.29000,-0.63400,192.41000,-0.03000
161225_15.00.34.241,0.02600,-0.06200,1.00500,0.03500,-0.05300,-0.01800,-0.92800,-0.28800,-0.63600,192.08000,-0.33000
161225_15.00.34.253,0.02700,-0.05900,0.98500,0.10500,-0.24500,0.03500,-0.92800,-0.28800,-0.63600,192.55000,0.47000
161225_15.00.34.264,0.02700,-0.05700,1.01600,0.05300,-0.15700,0.03500,-0.93100,-0.29100,-0.63700,192.74000,0.19000
161225_15.00.34.275,0.02500,-0.05600,0.99100,0.07000,0.00000,0.00000,-0.93300,-0.28600,-0.64200,192.48000,-0.26000
161225_15.00.34.287,0.02800,-0.05700,0.99000,0.15700,-0.19200,0.01800,-0.93300,-0.28900,-0.64500,193.14000,0.66000
161225_15.00.34.298,0.02900,-0.05700,1.02200,0.10500,-0.29800,0.01800,-0.92500,-0.28800,-0.64900,192.07000,-1.07000
161225_15.00.34.310,0.02600,-0.05800,1.00800,0.07000,-0.05300,0.00000,-0.92500,-0.28800,-0.64900,192.84000,0.77000
161225_15.00.34.321,0.02700,-0.05700,0.98500,0.15700,-0.07000,0.00000,-0.92900,-0.28500,-0.64900,191.99000,-0.85000
161225_15.00.34.332,0.02900,-0.05500,1.00300,0.15700,-0.26200,0.00000,-0.92800,-0.28500,-0.64200,192.77000,0.78000
161225_15.00.34.344,0.02800,-0.05600,1.01600,0.07000,-0.19200,0.00000,-0.93500,-0.28600,-0.63800,192.52000,-0.25000
161225_15.00.34.355,0.02800,-0.05800,0.99300,0.08700,-0.01800,-0.01800,-0.93000,-0.29100,-0.64000,192.84000,0.32000
161225_15.00.34.366,0.02800,-0.05500,0.98900,0.15700,-0.21000,0.00000,-0.93000,-0.29100,-0.64000,192.80000,-0.04000
161225_15.00.34.378,0.02800,-0.05200,1.01400,0.01800,-0.12300,-0.01800,-0.92700,-0.28800,-0.63800,192.36000,-0.44000
161225_15.00.34.390,0.02500,-0.06000,0.98600,0.07000,-0.10500,0.00000,-0.92600,-0.28900,-0.63500,192.35000,-0.01000
161225_15.00.34.401,0.02700,-0.05400,0.99900,0.08700,-0.24500,0.00000,-0.92500,-0.28100,-0.64000,192.82000,0.47000
161225_15.00.34.412,0.02800,-0.05900,1.01400,0.01800,-0.22800,0.01800,-0.92700,-0.28300,-0.63500,191.92000,-0.90000
161225_15.00.34.424,0.02600,-0.06300,0.99800,0.03500,-0.07000,0.00000,-0.92700,-0.28300,-0.63500,192.22000,0.30000
161225_15.00.34.435,0.02800,-0.05800,0.99000,0.10500,-0.19200,0.03500,-0.93000,-0.28500,-0.63700,192.36000,0.14000
161225_15.00.34.447,0.02500,-0.05500,1.01400,0.05300,-0.29800,0.03500,-0.92600,-0.28500,-0.64300,192.50000,0.14000
161225_15.00.34.458,0.02300,-0.06000,1.01100,0.01800,-0.12300,0.01800,-0.92700,-0.28600,-0.63300,192.37000,-0.13000
161225_15.00.34.469,0.02400,-0.06000,0.98600,0.07000,-0.07000,0.07000,-0.93000,-0.28300,-0.64200,192.48000,0.11000
161225_15.00.34.481,0.02900,-0.05900,0.99200,0.07000,-0.31500,0.10500,-0.93000,-0.28300,-0.64200,192.74000,0.26000
161225_15.00.34.493,0.02900,-0.05900,1.01800,-0.01800,-0.14000,0.10500,-0.92900,-0.28400,-0.64600,192.56000,-0.18000
161225_15.00.34.504,0.02900,-0.06100,0.98600,0.07000,-0.14000,0.07000,-0.92600,-0.28200,-0.64500,192.19000,-0.37000
161225_15.00.34.516,0.03100,-0.05800,1.01200,0.03500,-0.28000,0.03500,-0.92700,-0.28400,-0.64300,192.49000,0.30000
161225_15.00.34.527,0.02800,-0.06100,1.01200,0.00000,-0.10500,0.03500,-0.92500,-0.28900,-0.64100,192.71000,0.22000
161225_15.00.34.539,0.02900,-0.06200,0.99100,0.07000,-0.03500,0.03500,-0.92500,-0.28900,-0.64100,192.48000,-0.23000
161225_15.00.34.550,0.02900,-0.06100,0.99700,0.12300,-0.24500,0.01800,-0.92600,-0.29100,-0.64000,192.79000,0.31000
161225_15.00.34.562,0.02800,-0.05700,1.02300,0.10500,-0.28000,0.03500,-0.93000,-0.28900,-0.64300,192.62000,-0.17000
161225_15.00.34.573,0.02700,-0.06100,1.00500,0.07000,0.00000,0.01800,-0.92800,-0.29100,-0.64400,191.92000,-0.70000
161225_15.00.34.585,0.02600,-0.06000,0.98500,0.15700,-0.08700,0.03500,-0.92900,-0.28800,-0.64500,192.61000,0.69000
161225_15.00.34.596,0.02800,-0.05900,1.01100,0.14000,-0.24500,0.00000,-0.92900,-0.28800,-0.64500,192.81000,0.20000
161225_15.00.34.607,0.02900,-0.06000,1.01800,0.07000,-0.15700,0.00000,-0.92500,-0.28500,-0.64200,192.58000,-0.23000
161225_15.00.34.619,0.02600,-0.06200,0.99800,0.10500,-0.14000,0.03500,-0.92200,-0.28800,-0.64100,192.32000,-0.26000
161225_15.00.34.630,0.02700,-0.05900,1.01800,0.03500,-0.29800,0.03500,-0.92900,-0.28400,-0.63800,192.58000,0.26000
161225_15.00.34.642,0.02700,-0.06300,1.00900,-0.03500,-0.03500,0.05300,-0.92600,-0.28600,-0.64100,192.25000,-0.33000
161225_15.00.34.653,0.03000,-0.06000,0.98100,0.07000,0.00000,0.08700,-0.92600,-0.28600,-0.64100,192.75000,0.50000
161225_15.00.34.665,0.03100,-0.05900,0.99900,0.08700,-0.26200,0.07000,-0.92600,-0.28500,-0.64100,192.70000,-0.05000
161225_15.00.34.676,0.03300,-0.05900,1.02000,0.01800,-0.24500,0.03500,-0.92800,-0.28700,-0.63700,191.90000,-0.80000
161225_15.00.34.687,0.02900,-0.05900,0.99800,0.08700,0.01800,0.01800,-0.92900,-0.28600,-0.63700,192.34000,0.44000
161225_15.00.34.699,0.03000,-0.05900,0.98200,0.14000,-0.12300,0.01800,-0.92900,-0.28600,-0.63000,192.40000,0.06000
161225_15.00.34.710,0.02800,-0.05600,1.01300,0.10500,-0.31500,0.00000,-0.92900,-0.28600,-0.63000,192.30000,-0.10000
161225_15.00.34.722,0.02700,-0.05800,1.01000,0.03500,-0.08700,0.00000,-0.93100,-0.28600,-0.63400,192.68000,0.38000
161225_15.00.34.733,0.02800,-0.06100,0.98400,0.08700,-0.01800,0.00000,-0.92900,-0.28900,-0.63600,192.62000,-0.06000
161225_15.00.34.744,0.02800,-0.05800,0.99400,0.07000,-0.24500,0.00000,-0.92800,-0.28700,-0.64100,192.31000,-0.31000
161225_15.00.34.756,0.02500,-0.05900,1.00100,0.03500,0.00000,0.01800,-0.93300,-0.28500,-0.63600,192.06000,-0.25000
161225_15.00.34.767,0.02800,-0.05800,0.98600,0.12300,-0.10500,0.01800,-0.93300,-0.28500,-0.63600,193.06000,1.00000
161225_15.00.34.778,0.02800,-0.05400,1.00600,0.08700,-0.21000,0.01800,-0.93100,-0.28700,-0.63600,192.74000,-0.32000
161225_15.00.34.790,0.03000,-0.05800,1.01300,0.03500,-0.12300,0.01800,-0.93000,-0.28400,-0.64100,192.50000,-0.24000
161225_15.00.34.801,0.02700,-0.05700,0.99600,0.05300,-0.01800,0.03500,-0.92600,-0.29200,-0.63600,192.60000,0.10000
161225_15.00.34.813,0.02900,-0.05300,0.98800,0.12300,-0.14000,0.05300,-0.92900,-0.28700,-0.63300,192.76000,0.16000
161225_15.00.34.824,0.03000,-0.05600,1.01600,0.05300,-0.29800,0.05300,-0.92900,-0.28700,-0.63300,192.26000,-0.50000
161225_15.00.34.836,0.02800,-0.06000,1.01200,-0.01800,-0.07000,0.05300,-0.92700,-0.28800,-0.64100,192.43000,0.17000
161225_15.00.34.847,0.02800,-0.05600,0.98500,0.05300,0.05300,0.03500,-0.93200,-0.28600,-0.64300,192.33000,-0.10000
161225_15.00.34.858,0.03000,-0.05600,0.99900,0.08700,-0.22800,0.03500,-0.93300,-0.28900,-0.64200,193.00000,0.67000
161225_15.00.34.870,0.03000,-0.05600,1.02400,0.01800,0.05300,0.03500,-0.92900,-0.28700,-0.64300,193.20000,0.20000
161225_15.00.34.881,0.02800,-0.06100,0.98300,0.07000,-0.14000,0.03500,-0.92900,-0.28700,-0.64300,192.64000,-0.56000
161225_15.00.34.893,0.02600,-0.05500,1.01700,0.05300,-0.29800,0.01800,-0.93100,-0.28800,-0.64000,192.05000,-0.59000
161225_15.00.34.904,0.02500,-0.05900,1.01300,0.01800,-0.05300,0.01800,-0.93200,-0.28300,-0.64100,192.84000,0.79000
161225_15.00.34.915,0.02700,-0.06100,0.98800,0.08700,-0.01800,0.01800,-0.92700,-0.28400,-0.63900,192.42000,-0.42000
161225_15.00.34.927,0.02700,-0.05700,1.00300,0.12300,-0.26200,0.03500,-0.92900,-0.28000,-0.63300,192.64000,0.22000
161225_15.00.34.938,0.02800,-0.05700,1.02200,0.05300,-0.22800,0.01800,-0.92900,-0.28000,-0.63300,192.64000,0.00000
161225_15.00.34.950,0.02600,-0.06100,0.99900,0.05300,0.00000,0.00000,-0.93000,-0.28600,-0.63800,192.56000,-0.08000
161225_15.00.34.961,0.02700,-0.06200,0.98600,0.12300,-0.08700,0.00000,-0.93000,-0.28700,-0.62700,192.81000,0.25000
161225_15.00.34.973,0.02900,-0.05800,1.00600,0.10500,-0.21000,-0.01800,-0.92900,-0.28700,-0.63500,192.45000,-0.36000
161225_15.00.34.984,0.02900,-0.06100,1.01300,0.03500,-0.10500,-0.01800,-0.92800,-0.28600,-0.63300,192.70000,0.25000
161225_15.00.34.996,0.02900,-0.06300,0.99100,0.14000,-0.19200,0.00000,-0.92800,-0.28600,-0.63300,192.59000,-0.11000
161225_15.00.35.007,0.03000,-0.05800,1.01800,0.07000,-0.24500,0.00000,-0.92800,-0.28400,-0.63900,192.37000,-0.22000
161225_15.00.35.018,0.03000,-0.06400,1.00500,0.05300,-0.07000,0.00000,-0.93100,-0.28500,-0.63600,192.31000,-0.06000
161225_15.00.35.030,0.02800,-0.06100,0.98200,0.12300,-0.05300,-0.01800,-0.93200,-0.28600,-0.63500,192.37000,0.06000
161225_15.00.35.041,0.03000,-0.05900,1.00500,0.12300,-0.26200,-0.01800,-0.92800,-0.28500,-0.63900,192.37000,0.00000
161225_15.00.35.053,0.03000,-0.05900,1.01800,0.05300,-0.21000,-0.01800,-0.92800,-0.28500,-0.63900,192.69000,0.32000
161225_15.00.35.064,0.02800,-0.06100,0.99200,0.07000,0.01800,0.00000,-0.93100,-0.28600,-0.63600,192.68000,-0.01000
161225_15.00.35.075,0.02900,-0.06100,0.98900,0.14000,-0.19200,0.01800,-0.92400,-0.28500,-0.64900,192.54000,-0.14000
161225_15.00.35.087,0.02900,-0.05700,1.01700,0.07000,-0.26200,0.00000,-0.92200,-0.28300,-0.64700,192.85000,0.31000
161225_15.00.35.098,0.02900,-0.06200,1.00500,0.03500,-0.07000,-0.01800,-0.92600,-0.28500,-0.64800,192.18000,-0.67000
161225_15.00.35.110,0.02600,-0.06400,0.98100,0.10500,-0.03500,0.01800,-0.92600,-0.28500,-0.64800,192.75000,0.57000
161225_15.00.35.121,0.03000,-0.05600,1.01600,0.03500,-0.19200,0.01800,-0.92600,-0.28500,-0.64900,192.47000,-0.28000
161225_15.00.35.133,0.02800,-0.06000,0.99400,0.03500,0.00000,0.01800,-0.92700,-0.28500,-0.64900,193.09000,0.62000
161225_15.00.35.144,0.03100,-0.05700,0.98600,0.08700,-0.15700,0.03500,-0.92400,-0.28300,-0.64700,191.84000,-1.25000
161225_15.00.35.155,0.03100,-0.05700,1.01600,0.08700,-0.22800,0.03500,-0.92900,-0.28800,-0.65200,192.97000,1.13000
161225_15.00.35.167,0.03000,-0.05900,1.00500,0.05300,-0.07000,0.01800,-0.92900,-0.28800,-0.65200,192.91000,-0.06000
161225_15.00.35.178,0.03100,-0.05800,0.98900,0.08700,-0.05300,0.03500,-0.92700,-0.28300,-0.64500,192.20000,-0.71000
161225_15.00.35.190,0.02800,-0.05400,0.99600,0.14000,-0.21000,0.01800,-0.93100,-0.28300,-0.64500,191.98000,-0.22000
161225_15.00.35.201,0.02700,-0.05600,1.01800,0.07000,-0.24500,0.00000,-0.92900,-0.28900,-0.65100,192.49000,0.51000
161225_15.00.35.213,0.02600,-0.05700,1.00100,0.05300,0.00000,0.01800,-0.92400,-0.28900,-0.64600,191.97000,-0.52000
161225_15.00.35.224,0.02800,-0.05600,0.98400,0.12300,-0.05300,0.03500,-0.92400,-0.28900,-0.64600,192.03000,0.06000
161225_15.00.35.236,0.03000,-0.05600,1.01100,0.14000,-0.10500,0.01800,-0.92800,-0.28600,-0.64900,192.69000,0.66000
161225_15.00.35.247,0.03100,-0.05700,0.99100,0.12300,0.03500,0.01800,-0.92400,-0.28700,-0.64900,192.10000,-0.59000
161225_15.00.35.258,0.02800,-0.05800,0.99600,0.14000,-0.17500,0.00000,-0.93100,-0.28700,-0.63600,192.29000,0.19000
161225_15.00.35.270,0.02600,-0.05400,1.02200,0.08700,-0.19200,0.00000,-0.92900,-0.28700,-0.63500,193.18000,0.89000
161225_15.00.35.281,0.02600,-0.05900,1.00300,0.07000,0.00000,-0.01800,-0.92900,-0.28700,-0.63500,192.68000,-0.50000
161225_15.00.35.293,0.02800,-0.06000,0.99000,0.10500,-0.07000,0.00000,-0.92800,-0.28300,-0.64700,192.21000,-0.47000
161225_15.00.35.304,0.02700,-0.05500,1.01200,0.14000,-0.19200,-0.01800,-0.92800,-0.28700,-0.64000,192.38000,0.17000
161225_15.00.35.316,0.02900,-0.05600,1.01600,0.08700,-0.12300,-0.01800,-0.92900,-0.29000,-0.64400,192.02000,-0.36000
161225_15.00.35.327,0.02800,-0.06100,0.99900,0.08700,0.01800,-0.01800,-0.93000,-0.28700,-0.63700,192.29000,0.27000
161225_15.00.35.338,0.02600,-0.05900,0.99200,0.10500,-0.10500,-0.01800,-0.93000,-0.28700,-0.63700,192.54000,0.25000
161225_15.00.35.350,0.02700,-0.05600,1.01400,0.07000,-0.21000,-0.01800,-0.92800,-0.29100,-0.63800,192.20000,-0.34000
161225_15.00.35.361,0.02700,-0.05800,1.01200,0.05300,-0.01800,0.00000,-0.93400,-0.28800,-0.64200,192.57000,0.37000
161225_15.00.35.373,0.02800,-0.05800,0.99900,0.08700,-0.22800,0.00000,-0.93100,-0.29100,-0.64300,192.90000,0.33000
161225_15.00.35.384,0.02800,-0.05800,1.02100,0.01800,-0.17500,-0.01800,-0.93000,-0.28800,-0.63700,192.78000,-0.12000
161225_15.00.35.396,0.02300,-0.06000,0.99600,0.01800,0.03500,-0.01800,-0.93000,-0.28800,-0.63700,192.99000,0.21000
161225_15.00.35.408,0.02600,-0.06000,0.98600,0.07000,-0.10500,0.00000,-0.92800,-0.28800,-0.64400,192.28000,-0.71000
161225_15.00.35.419,0.02600,-0.06000,1.00800,0.07000,-0.24500,0.00000,-0.92600,-0.28800,-0.64000,192.30000,0.02000
161225_15.00.35.431,0.02600,-0.05700,1.01100,0.05300,-0.14000,0.01800,-0.92900,-0.28900,-0.64400,192.48000,0.18000
161225_15.00.35.442,0.02800,-0.06100,0.99200,0.05300,-0.05300,0.01800,-0.92600,-0.28600,-0.63700,192.61000,0.13000
161225_15.00.35.453,0.02800,-0.06000,0.99400,0.10500,-0.21000,0.01800,-0.92600,-0.28600,-0.63700,192.11000,-0.50000
161225_15.00.35.465,0.02600,-0.05500,1.01000,0.07000,-0.22800,0.00000,-0.92700,-0.27900,-0.63700,192.25000,0.14000
161225_15.00.35.477,0.02500,-0.06100,1.00100,0.03500,-0.10500,0.01800,-0.93500,-0.28600,-0.63400,192.84000,0.59000
161225_15.00.35.488,0.02700,-0.06400,0.98800,0.08700,-0.26200,0.01800,-0.93300,-0.28600,-0.63600,192.52000,-0.32000
161225_15.00.35.500,0.02700,-0.05700,1.01600,0.08700,-0.24500,0.01800,-0.93200,-0.28300,-0.63500,192.11000,-0.41000
161225_15.00.35.512,0.02700,-0.06100,0.99800,0.07000,-0.05300,0.01800,-0.93200,-0.28300,-0.63500,192.80000,0.69000
161225_15.00.35.523,0.02600,-0.06100,0.98400,0.10500,-0.12300,0.00000,-0.93300,-0.28400,-0.63600,192.89000,0.09000
161225_15.00.35.535,0.02900,-0.05900,1.00800,0.12300,-0.28000,-0.01800,-0.93100,-0.28300,-0.63900,192.17000,-0.72000
161225_15.00.35.546,0.03000,-0.06000,1.01300,0.07000,-0.14000,-0.01800,-0.93700,-0.28500,-0.63400,192.33000,0.16000
161225_15.00.35.558,0.02800,-0.06200,0.99100,0.10500,0.00000,0.00000,-0.93900,-0.28500,-0.63800,192.55000,0.22000
161225_15.00.35.569,0.02900,-0.06100,0.99200,0.14000,-0.22800,0.00000,-0.93900,-0.28500,-0.63800,192.91000,0.36000
161225_15.00.35.580,0.03000,-0.05800,1.02200,0.08700,-0.28000,0.01800,-0.93300,-0.28800,-0.63600,193.20000,0.29000
161225_15.00.35.592,0.02800,-0.06100,1.00400,0.05300,-0.03500,0.00000,-0.93900,-0.28600,-0.63300,192.82000,-0.38000
161225_15.00.35.603,0.03100,-0.06200,0.98500,0.12300,-0.05300,0.00000,-0.93300,-0.28700,-0.63900,193.11000,0.29000
161225_15.00.35.615,0.03000,-0.06100,1.00900,0.05300,-0.15700,-0.01800,-0.93200,-0.28700,-0.63500,191.99000,-1.12000
161225_15.00.35.626,0.03100,-0.06000,0.99500,0.08700,-0.07000,-0.01800,-0.93200,-0.28700,-0.63500,192.96000,0.97000
161225_15.00.35.638,0.03000,-0.06100,0.99300,0.12300,-0.22800,0.00000,-0.93400,-0.28500,-0.63100,193.00000,0.04000
161225_15.00.35.649,0.02700,-0.05500,1.01100,0.08700,-0.22800,0.00000,-0.93500,-0.28500,-0.63400,192.71000,-0.29000
161225_15.00.35.661,0.02700,-0.06000,1.00800,0.05300,-0.12300,0.00000,-0.93200,-0.28800,-0.64000,192.36000,-0.35000
161225_15.00.35.673,0.02600,-0.06000,0.99300,0.07000,-0.03500,0.01800,-0.93300,-0.28700,-0.63300,192.67000,0.31000
161225_15.00.35.684,0.02800,-0.05500,0.99600,0.10500,-0.22800,0.03500,-0.93300,-0.28700,-0.63300,192.96000,0.29000
161225_15.00.35.696,0.02800,-0.05600,1.01800,0.05300,-0.26200,0.00000,-0.93100,-0.28600,-0.64100,193.00000,0.04000
161225_15.00.35.708,0.02600,-0.06100,1.00200,0.05300,-0.03500,0.01800,-0.92900,-0.28900,-0.63400,192.71000,-0.29000
161225_15.00.35.719,0.02500,-0.05800,0.98600,0.12300,-0.10500,0.01800,-0.92900,-0.28600,-0.63700,192.39000,-0.32000
161225_15.00.35.731,0.02600,-0.05600,1.00700,0.08700,-0.28000,0.01800,-0.92700,-0.28600,-0.64200,192.40000,0.01000
161225_15.00.35.742,0.02700,-0.05700,0.99300,0.08700,0.03500,0.01800,-0.92700,-0.28600,-0.64200,192.92000,0.52000
161225_15.00.35.754,0.02700,-0.05800,0.98900,0.10500,-0.19200,0.03500,-0.93500,-0.29000,-0.64100,192.09000,-0.83000
161225_15.00.35.766,0.02800,-0.05400,1.01700,0.05300,-0.28000,0.00000,-0.93500,-0.28800,-0.63700,192.79000,0.70000
161225_15.00.35.777,0.02900,-0.05500,1.00500,0.03500,-0.08700,0.00000,-0.93200,-0.28900,-0.64400,192.82000,0.03000
161225_15.00.35.789,0.02900,-0.06100,0.98200,0.12300,-0.07000,0.01800,-0.93100,-0.28700,-0.64400,192.48000,-0.34000
161225_15.00.35.801,0.02900,-0.05800,1.00000,0.10500,-0.24500,0.03500,-0.93100,-0.28700,-0.64400,192.61000,0.13000
161225_15.00.35.812,0.03100,-0.05500,1.02000,0.05300,-0.24500,0.01800,-0.93100,-0.28200,-0.64500,192.07000,-0.54000
161225_15.00.35.824,0.03100,-0.05800,1.00200,0.05300,-0.03500,0.00000,-0.93400,-0.28500,-0.64700,192.77000,0.70000
161225_15.00.35.835,0.02800,-0.06000,0.98900,0.14000,-0.14000,0.00000,-0.93000,-0.28400,-0.63900,192.65000,-0.12000
161225_15.00.35.847,0.02700,-0.05600,1.00900,0.12300,-0.26200,0.00000,-0.93700,-0.28500,-0.64100,192.95000,0.30000
161225_15.00.35.859,0.02800,-0.06100,1.01100,0.08700,-0.03500,0.00000,-0.93700,-0.28500,-0.64100,192.47000,-0.48000
161225_15.00.35.870,0.02900,-0.05800,0.99400,0.14000,-0.19200,0.00000,-0.92800,-0.28400,-0.65300,192.45000,-0.02000
161225_15.00.35.882,0.02800,-0.05700,1.02100,0.07000,-0.28000,-0.01800,-0.92400,-0.28700,-0.65500,192.40000,-0.05000
161225_15.00.35.893,0.02800,-0.05900,1.00500,0.01800,-0.05300,-0.01800,-0.93000,-0.28700,-0.64500,192.53000,0.13000
161225_15.00.35.905,0.02900,-0.06100,0.98100,0.08700,-0.05300,0.01800,-0.92600,-0.28300,-0.64600,191.97000,-0.56000
161225_15.00.35.917,0.02900,-0.06000,1.00600,0.08700,-0.24500,0.01800,-0.92600,-0.28300,-0.64600,192.15000,0.18000
161225_15.00.35.928,0.02900,-0.05800,1.01900,0.03500,-0.12300,0.00000,-0.92600,-0.28500,-0.64200,192.80000,0.65000
161225_15.00.35.940,0.03100,-0.06100,0.98900,0.07000,0.03500,0.00000,-0.92700,-0.28200,-0.64500,192.41000,-0.39000
161225_15.00.35.951,0.03300,-0.06200,0.99000,0.08700,-0.21000,0.01800,-0.92700,-0.28600,-0.63900,192.46000,0.05000
161225_15.00.35.963,0.02800,-0.05800,1.02400,0.05300,-0.22800,0.00000,-0.92800,-0.28700,-0.64100,192.57000,0.11000
161225_15.00.35.975,0.02700,-0.05900,1.00200,0.03500,-0.01800,-0.01800,-0.92800,-0.28700,-0.64100,192.52000,-0.05000
161225_15.00.35.986,0.03000,-0.06300,0.98300,0.10500,-0.21000,-0.01800,-0.92500,-0.28100,-0.64300,192.59000,0.07000
161225_15.00.35.998,0.02700,-0.05400,1.01700,0.10500,-0.10500,0.00000,-0.92500,-0.28900,-0.64100,192.51000,-0.08000
161225_15.00.36.009,0.02900,-0.06100,0.99700,0.07000,-0.03500,0.00000,-0.92400,-0.28800,-0.64000,192.61000,0.10000
161225_15.00.36.021,0.02900,-0.06200,0.99000,0.08700,-0.10500,0.00000,-0.92500,-0.28300,-0.64400,192.52000,-0.09000
161225_15.00.36.032,0.02500,-0.05700,1.00900,0.10500,-0.17500,0.00000,-0.92500,-0.28300,-0.64400,192.26000,-0.26000
161225_15.00.36.044,0.02900,-0.05900,1.01000,0.03500,-0.10500,-0.01800,-0.92400,-0.28400,-0.64100,192.93000,0.67000
161225_15.00.36.055,0.02800,-0.06100,0.98800,0.08700,0.00000,-0.01800,-0.92500,-0.28700,-0.64100,192.43000,-0.50000
161225_15.00.36.067,0.02600,-0.06000,0.99100,0.14000,-0.15700,0.00000,-0.92700,-0.28400,-0.64300,192.75000,0.32000
161225_15.00.36.078,0.02700,-0.05600,1.01700,0.08700,-0.28000,0.00000,-0.92600,-0.28400,-0.64500,192.43000,-0.32000
161225_15.00.36.089,0.03100,-0.05700,1.00700,0.05300,-0.10500,0.00000,-0.92600,-0.28400,-0.64500,192.10000,-0.33000
161225_15.00.36.101,0.02600,-0.05600,0.98400,0.10500,-0.01800,0.00000,-0.92800,-0.28200,-0.63800,192.59000,0.49000
161225_15.00.36.112,0.02700,-0.05900,1.00100,0.03500,-0.15700,0.01800,-0.92800,-0.28400,-0.64300,192.84000,0.25000
161225_15.00.36.124,0.02600,-0.05800,0.99700,0.08700,0.00000,0.01800,-0.93000,-0.28300,-0.64000,192.68000,-0.16000
161225_15.00.36.135,0.02700,-0.06000,0.99400,0.10500,-0.15700,0.01800,-0.92800,-0.28200,-0.63800,192.19000,-0.49000
161225_15.00.36.147,0.02700,-0.05700,1.01400,0.07000,-0.22800,0.01800,-0.92800,-0.28200,-0.63800,192.67000,0.48000
161225_15.00.36.158,0.02700,-0.05300,1.01100,0.05300,-0.10500,0.01800,-0.93100,-0.28100,-0.64400,192.22000,-0.45000
161225_15.00.36.170,0.02600,-0.06100,0.99500,0.03500,-0.03500,0.01800,-0.92700,-0.28400,-0.65100,192.66000,0.44000
161225_15.00.36.181,0.02700,-0.05900,0.99400,0.05300,-0.17500,0.01800,-0.92700,-0.28300,-0.64200,192.68000,0.02000
161225_15.00.36.193,0.02600,-0.05100,1.01500,0.07000,-0.17500,0.01800,-0.93000,-0.28800,-0.64700,192.37000,-0.31000
161225_15.00.36.204,0.03100,-0.05600,1.01000,0.05300,-0.10500,0.00000,-0.93000,-0.28800,-0.64700,192.52000,0.15000
161225_15.00.36.216,0.03000,-0.05600,0.99200,0.07000,-0.07000,0.01800,-0.92600,-0.28800,-0.64200,192.15000,-0.37000
161225_15.00.36.228,0.02800,-0.05600,1.00100,0.08700,-0.21000,0.00000,-0.92500,-0.28500,-0.64200,191.93000,-0.22000
161225_15.00.36.239,0.03000,-0.05300,1.02000,0.03500,-0.01800,0.00000,-0.92700,-0.28400,-0.64800,192.62000,0.69000
161225_15.00.36.251,0.03000,-0.06000,0.98400,0.08700,-0.14000,0.01800,-0.92900,-0.28400,-0.64200,192.44000,-0.18000
161225_15.00.36.262,0.02900,-0.06000,1.01200,0.08700,-0.31500,0.01800,-0.92900,-0.28400,-0.64200,192.52000,0.08000
161225_15.00.36.273,0.02800,-0.05600,1.01900,0.07000,-0.14000,0.00000,-0.93000,-0.28600,-0.63800,192.83000,0.31000
161225_15.00.36.285,0.02800,-0.06200,0.98900,0.07000,-0.01800,0.00000,-0.92800,-0.28900,-0.63600,192.75000,-0.08000
161225_15.00.36.296,0.02800,-0.06200,0.99200,0.07000,-0.21000,0.00000,-0.93200,-0.28500,-0.63400,192.84000,0.09000
161225_15.00.36.308,0.02700,-0.05500,1.01300,0.07000,-0.17500,-0.01800,-0.93100,-0.28800,-0.63300,192.73000,-0.11000
161225_15.00.36.319,0.02800,-0.06000,1.00100,0.05300,-0.08700,-0.01800,-0.93100,-0.28800,-0.63300,191.68000,-1.05000
161225_15.00.36.330,0.02800,-0.06400,0.98900,0.08700,-0.08700,0.00000,-0.93200,-0.28600,-0.63500,193.01000,1.33000
161225_15.00.36.342,0.02700,-0.05800,0.99700,0.08700,-0.17500,0.00000,-0.92900,-0.28800,-0.63100,192.31000,-0.70000
161225_15.00.36.353,0.02800,-0.05600,1.00800,0.07000,-0.14000,-0.01800,-0.92900,-0.28400,-0.63300,192.35000,0.04000
161225_15.00.36.365,0.03000,-0.06100,0.98600,0.08700,-0.10500,-0.01800,-0.93200,-0.29000,-0.63300,192.28000,-0.07000
161225_15.00.36.376,0.02900,-0.05800,1.00300,0.10500,-0.21000,0.00000,-0.93200,-0.29000,-0.63300,192.66000,0.38000
161225_15.00.36.387,0.02900,-0.05800,1.01300,0.05300,-0.12300,0.01800,-0.93300,-0.29000,-0.64000,192.52000,-0.14000
161225_15.00.36.399,0.02900,-0.05900,0.99200,0.05300,0.00000,0.01800,-0.92900,-0.28800,-0.63200,192.55000,0.03000
161225_15.00.36.410,0.02600,-0.05900,0.98900,0.10500,-0.12300,0.03500,-0.93300,-0.28700,-0.63400,192.49000,-0.06000
161225_15.00.36.422,0.02600,-0.05800,1.01500,0.07000,-0.22800,0.03500,-0.93300,-0.28500,-0.63600,192.26000,-0.23000
161225_15.00.36.433,0.02700,-0.05800,1.01300,0.03500,-0.05300,0.03500,-0.93300,-0.28500,-0.63600,192.23000,-0.03000
161225_15.00.36.444,0.02800,-0.06100,0.99200,0.10500,0.03500,0.05300,-0.92800,-0.28600,-0.64100,192.68000,0.45000
161225_15.00.36.456,0.02800,-0.06000,1.00400,0.12300,-0.19200,0.08700,-0.92900,-0.28400,-0.63700,192.82000,0.14000
161225_15.00.36.467,0.03100,-0.05600,1.02500,0.03500,-0.17500,0.05300,-0.92800,-0.28900,-0.63600,192.52000,-0.30000
161225_15.00.36.479,0.02900,-0.06100,1.00200,0.08700,-0.05300,0.03500,-0.93000,-0.28400,-0.63600,193.14000,0.62000
161225_15.00.36.491,0.02700,-0.06100,1.00900,0.12300,-0.21000,0.03500,-0.93000,-0.28400,-0.63600,192.51000,-0.63000
161225_15.00.36.502,0.03000,-0.05800,1.01600,0.08700,-0.10500,0.05300,-0.92700,-0.28300,-0.63700,192.17000,-0.34000
161225_15.00.36.514,0.02800,-0.06000,0.99700,0.14000,-0.03500,0.05300,-0.93300,-0.28300,-0.63400,192.61000,0.44000
161225_15.00.36.525,0.02800,-0.05800,0.99100,0.15700,-0.15700,0.07000,-0.93300,-0.28600,-0.63500,192.68000,0.07000
161225_15.00.36.537,0.02800,-0.05600,1.01000,0.12300,-0.22800,0.05300,-0.93400,-0.28600,-0.63500,192.00000,-0.68000
161225_15.00.36.548,0.02800,-0.05900,1.00700,0.08700,-0.05300,0.03500,-0.93400,-0.28600,-0.63500,192.45000,0.45000
161225_15.00.36.559,0.02700,-0.06000,0.98600,0.15700,0.07000,0.01800,-0.93000,-0.28700,-0.63400,192.17000,-0.28000
161225_15.00.36.571,0.02500,-0.06000,0.99200,0.15700,-0.19200,0.03500,-0.93300,-0.28500,-0.63600,192.13000,-0.04000
161225_15.00.36.582,0.02600,-0.05700,1.01900,0.10500,-0.22800,0.05300,-0.93000,-0.28600,-0.63300,193.18000,1.05000
161225_15.00.36.593,0.02800,-0.05900,1.00400,0.08700,0.03500,0.05300,-0.93100,-0.28500,-0.64100,192.75000,-0.43000
161225_15.00.36.605,0.02800,-0.06000,0.98700,0.17500,-0.19200,0.03500,-0.93100,-0.28500,-0.64100,192.36000,-0.39000
161225_15.00.36.616,0.02800,-0.05900,1.01200,0.10500,-0.07000,-0.01800,-0.93000,-0.28500,-0.63600,192.83000,0.47000
161225_15.00.36.628,0.02900,-0.06200,0.98800,0.12300,0.07000,0.00000,-0.93400,-0.28600,-0.63900,192.85000,0.02000
161225_15.00.36.639,0.02700,-0.05900,0.99000,0.15700,-0.17500,0.00000,-0.93000,-0.28500,-0.64300,192.35000,-0.50000
161225_15.00.36.650,0.02800,-0.05400,1.01500,0.07000,-0.22800,0.00000,-0.92500,-0.28800,-0.64500,192.70000,0.35000
161225_15.00.36.662,0.02900,-0.05900,1.00800,0.05300,-0.05300,0.00000,-0.92500,-0.28800,-0.64500,193.46000,0.76000
161225_15.00.36.673,0.02800,-0.05800,0.99000,0.10500,-0.01800,0.01800,-0.92700,-0.28600,-0.64700,193.04000,-0.42000
161225_15.00.36.685,0.02800,-0.05500,1.00100,0.12300,-0.15700,0.00000,-0.92700,-0.28800,-0.63800,192.88000,-0.16000
161225_15.00.36.696,0.03100,-0.05600,1.01500,0.05300,-0.15700,0.01800,-0.92600,-0.28800,-0.64400,192.44000,-0.44000
161225_15.00.36.708,0.03000,-0.06000,1.00200,0.08700,-0.03500,0.00000,-0.92500,-0.29400,-0.64200,192.14000,-0.30000
161225_15.00.36.719,0.02700,-0.05800,0.98900,0.12300,-0.12300,0.01800,-0.92500,-0.29400,-0.64200,193.30000,1.16000
161225_15.00.36.731,0.02600,-0.05600,1.00700,0.03500,-0.17500,0.01800,-0.92700,-0.29200,-0.64200,192.25000,-1.05000
161225_15.00.36.742,0.02600,-0.05700,0.99300,0.05300,0.00000,0.00000,-0.92400,-0.28700,-0.64200,191.73000,-0.52000
161225_15.00.36.754,0.02700,-0.05800,0.99400,0.10500,-0.15700,0.00000,-0.92400,-0.28900,-0.64100,192.54000,0.81000
161225_15.00.36.765,0.02700,-0.05400,1.02100,0.08700,-0.22800,-0.01800,-0.92700,-0.29100,-0.63800,192.25000,-0.29000
161225_15.00.36.777,0.02900,-0.05600,1.00900,0.03500,0.01800,0.00000,-0.92700,-0.29100,-0.63800,192.81000,0.56000
161225_15.00.36.789,0.03000,-0.06000,0.98500,0.10500,-0.03500,-0.01800,-0.92200,-0.28900,-0.64500,192.41000,-0.40000
161225_15.00.36.800,0.02800,-0.05800,1.00300,0.10500,-0.12300,-0.07000,-0.92900,-0.29300,-0.63900,192.73000,0.32000
161225_15.00.36.812,0.03000,-0.05500,1.01600,0.05300,-0.10500,-0.14000,-0.92800,-0.29200,-0.63400,192.10000,-0.63000
161225_15.00.36.823,0.02700,-0.06300,0.99700,0.01800,0.01800,-0.14000,-0.92600,-0.28900,-0.63900,192.27000,0.17000
161225_15.00.36.835,0.02800,-0.06100,0.99000,0.07000,-0.24500,-0.07000,-0.92600,-0.28900,-0.63900,192.84000,0.57000
161225_15.00.36.846,0.02700,-0.05700,1.01600,0.01800,-0.36800,-0.01800,-0.92600,-0.28700,-0.64600,192.45000,-0.39000
161225_15.00.36.858,0.03300,-0.05900,1.01700,0.05300,0.01800,0.05300,-0.92600,-0.29000,-0.64600,192.52000,0.07000
161225_15.00.36.869,0.02800,-0.06000,0.99000,0.10500,-0.10500,0.01800,-0.92400,-0.28900,-0.65200,192.54000,0.02000
161225_15.00.36.881,0.02800,-0.06000,1.01300,0.08700,-0.19200,0.00000,-0.92900,-0.28900,-0.65000,192.28000,-0.26000
161225_15.00.36.893,0.02800,-0.05900,1.00700,0.05300,-0.10500,-0.01800,-0.92900,-0.28900,-0.65000,192.53000,0.25000
161225_15.00.36.904,0.02900,-0.06000,0.98600,0.05300,-0.05300,-0.01800,-0.92700,-0.29200,-0.64400,192.71000,0.18000
161225_15.00.36.916,0.02800,-0.06100,1.00400,0.07000,-0.24500,0.00000,-0.92700,-0.29000,-0.64100,192.10000,-0.61000
161225_15.00.36.928,0.02700,-0.05600,1.01800,0.03500,-0.14000,-0.01800,-0.92300,-0.28600,-0.64400,192.54000,0.44000
161225_15.00.36.939,0.02500,-0.05800,0.99400,0.05300,0.03500,-0.03500,-0.92900,-0.29100,-0.64100,192.51000,-0.03000
161225_15.00.36.950,0.02700,-0.06200,0.98500,0.07000,-0.08700,0.00000,-0.92900,-0.29100,-0.64100,192.21000,-0.30000
161225_15.00.36.962,0.02600,-0.05900,1.00700,0.05300,-0.17500,-0.01800,-0.92400,-0.29000,-0.64200,192.61000,0.40000
161225_15.00.36.973,0.02800,-0.05600,1.01200,0.01800,-0.07000,-0.05300,-0.92700,-0.29000,-0.64200,192.72000,0.11000
161225_15.00.36.984,0.03000,-0.06100,0.99100,0.07000,-0.14000,-0.03500,-0.92800,-0.28800,-0.64400,192.45000,-0.27000
161225_15.00.36.996,0.02600,-0.05600,1.00800,0.03500,-0.15700,-0.03500,-0.92700,-0.28800,-0.64300,192.52000,0.07000
161225_15.00.37.007,0.02800,-0.05900,1.00600,-0.01800,-0.05300,-0.03500,-0.92700,-0.28800,-0.64300,192.63000,0.11000
161225_15.00.37.019,0.02700,-0.06100,0.99100,-0.01800,0.00000,-0.01800,-0.92800,-0.28700,-0.64600,192.96000,0.33000
161225_15.00.37.030,0.02500,-0.06000,0.99600,0.05300,-0.19200,0.00000,-0.92600,-0.28700,-0.64500,192.29000,-0.67000
161225_15.00.37.042,0.02800,-0.05800,1.02300,0.05300,-0.26200,0.00000,-0.92800,-0.29100,-0.63800,192.35000,0.06000
161225_15.00.37.054,0.02800,-0.05900,1.01000,0.08700,-0.07000,0.00000,-0.93400,-0.28800,-0.63500,193.00000,0.65000
161225_15.00.37.065,0.02700,-0.06100,0.98500,0.15700,-0.05300,0.00000,-0.93400,-0.28800,-0.63500,191.92000,-1.08000
161225_15.00.37.077,0.02700,-0.06100,1.00200,0.19200,-0.28000,-0.01800,-0.93100,-0.28500,-0.64000,192.97000,1.05000
161225_15.00.37.088,0.02700,-0.05600,1.01700,0.14000,-0.19200,-0.03500,-0.92800,-0.28700,-0.63300,192.31000,-0.66000
161225_15.00.37.100,0.02600,-0.05900,0.99800,0.10500,-0.19200,-0.01800,-0.93200,-0.28800,-0.63800,192.42000,0.11000
161225_15.00.37.111,0.02600,-0.06200,1.01600,0.10500,-0.24500,0.00000,-0.93700,-0.28800,-0.63500,193.04000,0.62000
161225_15.00.37.123,0.02600,-0.05500,1.01400,0.07000,-0.10500,-0.01800,-0.93700,-0.28800,-0.63500,192.33000,-0.71000
161225_15.00.37.135,0.02800,-0.06100,0.99300,0.07000,-0.01800,-0.01800,-0.93300,-0.29300,-0.63900,192.35000,0.02000
161225_15.00.37.146,0.02700,-0.06000,0.99500,0.10500,-0.17500,-0.03500,-0.93200,-0.29400,-0.63200,192.51000,0.16000
161225_15.00.37.158,0.02900,-0.05500,1.01800,0.08700,-0.21000,0.00000,-0.93100,-0.28800,-0.63500,192.27000,-0.24000
161225_15.00.37.169,0.02900,-0.05700,1.01200,0.07000,-0.07000,0.00000,-0.93000,-0.28700,-0.63400,192.62000,0.35000
161225_15.00.37.181,0.03000,-0.05800,0.99100,0.07000,-0.07000,0.01800,-0.93000,-0.28700,-0.63400,192.11000,-0.51000
161225_15.00.37.193,0.02800,-0.05800,1.00000,0.08700,-0.21000,0.00000,-0.92900,-0.29200,-0.63500,192.64000,0.53000
161225_15.00.37.204,0.02800,-0.05500,1.01800,0.03500,-0.19200,-0.03500,-0.92900,-0.29200,-0.63200,192.75000,0.11000
161225_15.00.37.216,0.02800,-0.05500,1.00100,0.03500,-0.03500,-0.01800,-0.93300,-0.29200,-0.63600,192.52000,-0.23000
161225_15.00.37.228,0.02900,-0.05800,0.98600,0.08700,-0.28000,0.00000,-0.92800,-0.29200,-0.63800,192.62000,0.10000
161225_15.00.37.239,0.02900,-0.05500,1.01300,0.05300,-0.14000,-0.01800,-0.92800,-0.29200,-0.63800,192.85000,0.23000
161225_15.00.37.251,0.02800,-0.06000,0.98700,0.07000,-0.01800,0.00000,-0.93100,-0.28700,-0.62900,192.41000,-0.44000
161225_15.00.37.262,0.02800,-0.06100,0.98800,0.10500,-0.22800,0.00000,-0.93100,-0.28900,-0.63200,192.34000,-0.07000
161225_15.00.37.274,0.02600,-0.05500,1.01100,0.05300,-0.21000,-0.01800,-0.93200,-0.28800,-0.63400,192.35000,0.01000
161225_15.00.37.286,0.02800,-0.05900,1.00400,0.03500,-0.08700,-0.03500,-0.93100,-0.29200,-0.63000,192.78000,0.43000
161225_15.00.37.297,0.02700,-0.06300,0.98800,0.05300,-0.08700,0.00000,-0.93100,-0.29200,-0.63000,193.15000,0.37000
161225_15.00.37.309,0.02800,-0.05900,0.99900,0.08700,-0.22800,0.01800,-0.92800,-0.28900,-0.63200,192.67000,-0.48000
161225_15.00.37.320,0.02900,-0.05900,1.01300,0.07000,-0.19200,0.00000,-0.93200,-0.28900,-0.63800,192.79000,0.12000
161225_15.00.37.331,0.02800,-0.06000,0.99800,0.07000,-0.05300,-0.01800,-0.93500,-0.28400,-0.63600,192.43000,-0.36000
161225_15.00.37.343,0.02800,-0.06100,0.98400,0.08700,-0.05300,0.00000,-0.92900,-0.28600,-0.63700,192.62000,0.19000
161225_15.00.37.355,0.02800,-0.06100,1.00100,0.08700,-0.19200,0.01800,-0.92900,-0.28600,-0.63700,193.21000,0.59000
161225_15.00.37.366,0.02800,-0.05900,0.99800,0.05300,-0.01800,0.01800,-0.92500,-0.29200,-0.63000,192.47000,-0.74000
161225_15.00.37.378,0.02800,-0.06000,0.99100,0.10500,-0.14000,0.00000,-0.93100,-0.28300,-0.63500,192.35000,-0.12000
161225_15.00.37.389,0.02800,-0.05900,1.01500,0.07000,-0.24500,0.00000,-0.92600,-0.28600,-0.63800,192.54000,0.19000
161225_15.00.37.401,0.02800,-0.05900,1.00800,0.05300,-0.07000,-0.01800,-0.92800,-0.28600,-0.62800,193.22000,0.68000
161225_15.00.37.413,0.02900,-0.06200,0.98700,0.08700,-0.03500,0.00000,-0.92800,-0.28600,-0.62800,192.56000,-0.66000
161225_15.00.37.424,0.02800,-0.06100,1.00100,0.12300,-0.24500,0.01800,-0.92700,-0.28800,-0.63100,192.27000,-0.29000
161225_15.00.37.436,0.02800,-0.05500,1.02200,0.08700,-0.21000,0.01800,-0.92200,-0.28600,-0.64200,192.18000,-0.09000
161225_15.00.37.447,0.02800,-0.05800,1.00200,0.05300,-0.01800,0.00000,-0.92100,-0.28400,-0.64500,192.45000,0.27000
161225_15.00.37.459,0.02700,-0.06000,0.98900,0.08700,-0.14000,0.00000,-0.92100,-0.28700,-0.64500,192.39000,-0.06000
161225_15.00.37.471,0.02600,-0.05600,1.00600,0.08700,-0.21000,-0.01800,-0.92100,-0.28700,-0.64500,192.83000,0.44000
161225_15.00.37.482,0.02700,-0.05700,1.01400,0.05300,-0.05300,0.00000,-0.92400,-0.29000,-0.65000,192.02000,-0.81000
161225_15.00.37.494,0.02800,-0.05800,0.99300,0.10500,-0.17500,0.00000,-0.92400,-0.29000,-0.64000,192.45000,0.43000
161225_15.00.37.505,0.02600,-0.05700,1.01400,0.08700,-0.24500,0.00000,-0.92600,-0.29200,-0.65000,192.82000,0.37000
161225_15.00.37.517,0.02700,-0.05600,1.01200,0.03500,-0.08700,-0.01800,-0.92800,-0.29200,-0.64100,192.06000,-0.76000
161225_15.00.37.529,0.02700,-0.05700,0.98900,0.05300,0.01800,-0.01800,-0.92800,-0.29200,-0.64100,192.59000,0.53000
161225_15.00.37.540,0.03000,-0.05900,0.99500,0.08700,-0.19200,0.00000,-0.92400,-0.28500,-0.64400,192.61000,0.02000
161225_15.00.37.552,0.03000,-0.05600,1.02000,0.07000,-0.21000,0.00000,-0.92100,-0.29100,-0.64700,192.35000,-0.26000
161225_15.00.37.564,0.02900,-0.05600,1.00100,0.07000,-0.03500,0.01800,-0.92500,-0.28800,-0.63900,192.34000,-0.01000
161225_15.00.37.575,0.03000,-0.06000,0.98700,0.10500,-0.12300,0.00000,-0.92200,-0.28900,-0.64200,192.69000,0.35000
161225_15.00.37.587,0.02700,-0.05900,1.00500,0.08700,-0.19200,0.00000,-0.92200,-0.28900,-0.64200,192.47000,-0.22000
161225_15.00.37.598,0.02900,-0.05400,1.01100,0.07000,-0.12300,0.00000,-0.92200,-0.29100,-0.64500,193.13000,0.66000
161225_15.00.37.610,0.03000,-0.06100,0.99200,0.07000,-0.15700,0.00000,-0.92400,-0.28800,-0.63900,192.27000,-0.86000
161225_15.00.37.622,0.02800,-0.05600,1.01200,0.08700,-0.24500,0.01800,-0.92400,-0.28700,-0.63900,192.40000,0.13000
161225_15.00.37.633,0.02900,-0.05600,1.01000,0.07000,-0.12300,0.00000,-0.92200,-0.28400,-0.64200,193.16000,0.76000
161225_15.00.37.645,0.03100,-0.06000,0.99000,0.07000,-0.05300,0.01800,-0.92200,-0.28400,-0.64200,192.76000,-0.40000
161225_15.00.37.656,0.02600,-0.05800,0.99000,0.07000,-0.17500,0.01800,-0.92400,-0.28500,-0.63900,192.88000,0.12000
161225_15.00.37.668,0.02600,-0.05700,1.01400,0.05300,-0.21000,-0.01800,-0.92500,-0.28400,-0.64000,192.57000,-0.31000
161225_15.00.37.680,0.02800,-0.05800,1.00900,0.03500,-0.05300,0.00000,-0.92400,-0.28300,-0.63400,192.71000,0.14000
161225_15.00.37.691,0.02700,-0.05900,0.98100,0.07000,-0.01800,0.00000,-0.92600,-0.28400,-0.64000,192.20000,-0.51000
161225_15.00.37.703,0.02700,-0.05900,1.00000,0.12300,-0.28000,0.00000,-0.92600,-0.28400,-0.64000,192.64000,0.44000
161225_15.00.37.714,0.02900,-0.05600,1.02400,0.03500,-0.17500,0.00000,-0.92700,-0.28700,-0.63800,192.60000,-0.04000
161225_15.00.37.726,0.02600,-0.05900,0.98900,0.07000,-0.17500,0.00000,-0.92700,-0.28500,-0.63400,192.86000,0.26000
161225_15.00.37.738,0.02900,-0.06100,1.01800,0.03500,-0.26200,-0.01800,-0.92700,-0.28800,-0.64100,192.30000,-0.56000
161225_15.00.37.749,0.02700,-0.05700,1.01200,0.05300,-0.05300,0.00000,-0.92700,-0.28400,-0.64300,192.19000,-0.11000
161225_15.00.37.761,0.02800,-0.06100,0.99100,0.05300,-0.07000,0.00000,-0.92700,-0.28400,-0.64300,191.93000,-0.26000
161225_15.00.37.773,0.02600,-0.06100,0.99700,0.10500,-0.22800,0.00000,-0.92600,-0.28500,-0.63800,192.01000,0.08000
161225_15.00.37.784,0.02700,-0.05700,1.01500,0.08700,-0.21000,0.01800,-0.92200,-0.29100,-0.63900,192.51000,0.50000
161225_15.00.37.796,0.02900,-0.05800,1.00600,0.05300,-0.08700,0.00000,-0.92200,-0.28500,-0.64300,192.04000,-0.47000
161225_15.00.37.807,0.03000,-0.06100,0.99500,0.07000,-0.08700,-0.01800,-0.92700,-0.28600,-0.64100,192.52000,0.48000
161225_15.00.37.819,0.02700,-0.06100,0.99900,0.08700,-0.21000,0.00000,-0.92700,-0.28600,-0.64100,192.26000,-0.26000
161225_15.00.37.831,0.02700,-0.05900,1.01800,0.10500,-0.24500,0.00000,-0.92300,-0.28900,-0.64000,192.66000,0.40000
161225_15.00.37.842,0.02800,-0.05800,1.00900,0.07000,-0.10500,0.00000,-0.92600,-0.28500,-0.63100,192.88000,0.22000
161225_15.00.37.854,0.02500,-0.05900,0.98700,0.14000,-0.22800,0.00000,-0.92900,-0.28400,-0.63900,192.38000,-0.50000
161225_15.00.37.865,0.02700,-0.05500,1.02200,0.08700,-0.14000,0.00000,-0.93200,-0.28600,-0.63500,192.37000,-0.01000
161225_15.00.37.877,0.03000,-0.05700,0.99700,0.05300,0.01800,0.01800,-0.93200,-0.28600,-0.63500,192.77000,0.40000
161225_15.00.37.889,0.02900,-0.06100,0.98900,0.10500,-0.14000,0.01800,-0.93200,-0.29100,-0.63600,192.31000,-0.46000
161225_15.00.37.900,0.02900,-0.05600,1.01400,0.08700,-0.28000,0.03500,-0.93600,-0.29000,-0.63900,192.92000,0.61000
161225_15.00.37.912,0.02900,-0.05500,1.00900,0.05300,-0.10500,-0.01800,-0.92700,-0.29200,-0.63200,192.73000,-0.19000
161225_15.00.37.923,0.02900,-0.06200,0.98600,0.07000,-0.03500,-0.01800,-0.92900,-0.28400,-0.63700,192.90000,0.17000
161225_15.00.37.935,0.03000,-0.05900,0.99400,0.12300,-0.21000,0.00000,-0.92900,-0.28400,-0.63700,192.25000,-0.65000
161225_15.00.37.946,0.02900,-0.05500,1.01600,0.08700,-0.22800,0.00000,-0.92600,-0.28900,-0.63000,192.34000,0.09000
161225_15.00.37.958,0.03000,-0.05600,1.00200,0.05300,-0.05300,0.00000,-0.92400,-0.28000,-0.63300,192.15000,-0.19000
161225_15.00.37.970,0.02900,-0.05800,0.98700,0.07000,-0.12300,0.00000,-0.92700,-0.28400,-0.63100,192.53000,0.38000
161225_15.00.37.981,0.02800,-0.05700,0.99800,0.05300,-0.17500,-0.01800,-0.92700,-0.28600,-0.63000,192.57000,0.04000
161225_15.00.37.993,0.02900,-0.05800,0.99900,0.03500,0.00000,-0.03500,-0.92700,-0.28600,-0.63000,192.89000,0.32000
161225_15.00.38.005,0.03100,-0.05900,0.98700,0.08700,-0.14000,0.00000,-0.92700,-0.28900,-0.63200,191.89000,-1.00000
161225_15.00.38.016,0.02900,-0.05800,1.00800,0.10500,-0.26200,0.01800,-0.93000,-0.28800,-0.63700,193.30000,1.41000
161225_15.00.38.028,0.03000,-0.05400,1.01400,0.07000,-0.15700,0.03500,-0.93100,-0.28500,-0.63400,191.50000,-1.80000
161225_15.00.38.039,0.02900,-0.05800,0.99100,0.07000,0.00000,0.01800,-0.93100,-0.28700,-0.62900,192.60000,1.10000
161225_15.00.38.051,0.02900,-0.06100,0.98900,0.08700,-0.12300,0.01800,-0.93100,-0.28700,-0.62900,192.72000,0.12000
161225_15.00.38.063,0.02700,-0.05700,1.01400,0.07000,-0.17500,-0.01800,-0.92900,-0.28600,-0.64000,192.59000,-0.13000
161225_15.00.38.074,0.02800,-0.05800,1.00900,0.03500,-0.07000,0.00000,-0.93200,-0.28300,-0.63400,192.70000,0.11000
161225_15.00.38.086,0.02900,-0.06100,0.99200,0.05300,-0.05300,0.01800,-0.93000,-0.28600,-0.64000,191.96000,-0.74000
161225_15.00.38.097,0.02700,-0.05800,1.00200,0.08700,-0.19200,0.03500,-0.93100,-0.28800,-0.63500,192.30000,0.34000
161225_15.00.38.109,0.02900,-0.05600,1.01900,0.03500,0.00000,0.01800,-0.93100,-0.28800,-0.63500,192.36000,0.06000
161225_15.00.38.121,0.02900,-0.06100,0.98600,0.08700,-0.07000,0.00000,-0.93400,-0.29100,-0.63600,192.69000,0.33000
161225_15.00.38.132,0.02800,-0.05900,1.00700,0.07000,-0.17500,-0.01800,-0.92800,-0.29100,-0.63300,191.90000,-0.79000
161225_15.00.38.144,0.02900,-0.05800,1.02000,0.05300,-0.12300,0.00000,-0.93300,-0.29200,-0.63400,192.90000,1.00000
161225_15.00.38.155,0.02800,-0.06000,1.00000,0.03500,0.00000,0.01800,-0.92900,-0.28900,-0.63500,192.52000,-0.38000
161225_15.00.38.167,0.02700,-0.06100,0.99200,0.10500,-0.14000,0.00000,-0.92900,-0.28900,-0.63500,192.25000,-0.27000
161225_15.00.38.179,0.02800,-0.05900,1.01300,0.12300,-0.22800,0.01800,-0.93500,-0.29100,-0.63400,192.51000,0.26000
161225_15.00.38.190,0.02500,-0.06000,1.01000,0.08700,-0.03500,0.00000,-0.92800,-0.28800,-0.63100,192.93000,0.42000
161225_15.00.38.202,0.02700,-0.06300,0.98800,0.08700,-0.03500,0.00000,-0.93400,-0.29100,-0.63600,192.19000,-0.74000
161225_15.00.38.213,0.02700,-0.06300,0.99800,0.08700,-0.15700,0.00000,-0.93200,-0.28700,-0.63100,192.46000,0.27000
161225_15.00.38.225,0.02800,-0.05500,1.01900,0.07000,-0.19200,0.01800,-0.93200,-0.28700,-0.63100,192.27000,-0.19000
161225_15.00.38.237,0.02700,-0.05900,0.97200,0.08700,-0.07000,0.01800,-0.92500,-0.28800,-0.64400,192.67000,0.40000
161225_15.00.38.248,0.02600,-0.05800,1.00300,0.08700,-0.19200,0.00000,-0.92600,-0.28700,-0.64000,192.82000,0.15000
161225_15.00.38.260,0.02700,-0.05700,1.01100,0.07000,-0.15700,0.00000,-0.92900,-0.28700,-0.63800,192.43000,-0.39000
161225_15.00.38.271,0.02900,-0.06100,0.99500,0.07000,-0.05300,0.00000,-0.92500,-0.28900,-0.63800,192.52000,0.09000
161225_15.00.38.283,0.02700,-0.05800,0.98900,0.10500,-0.15700,0.01800,-0.92500,-0.28900,-0.63800,192.84000,0.32000
161225_15.00.38.295,0.02500,-0.05600,1.00800,0.08700,-0.24500,0.00000,-0.92500,-0.29200,-0.64100,192.54000,-0.30000
161225_15.00.38.306,0.02700,-0.05600,1.01000,0.05300,-0.10500,-0.01800,-0.92700,-0.28800,-0.63600,192.47000,-0.07000
161225_15.00.38.318,0.02700,-0.05900,0.98800,0.05300,0.00000,-0.01800,-0.93000,-0.28900,-0.63700,192.06000,-0.41000
161225_15.00.38.329,0.02700,-0.05600,0.99200,0.08700,-0.15700,0.00000,-0.93000,-0.29100,-0.64100,192.18000,0.12000
161225_15.00.38.341,0.03000,-0.05400,1.01600,0.07000,-0.22800,0.00000,-0.93000,-0.29100,-0.64100,192.86000,0.68000
161225_15.00.38.353,0.02700,-0.05400,1.00300,0.07000,-0.05300,0.01800,-0.93100,-0.28900,-0.64100,192.03000,-0.83000
161225_15.00.38.364,0.02800,-0.05900,1.00400,0.10500,-0.24500,0.01800,-0.92800,-0.28400,-0.63800,192.23000,0.20000
161225_15.00.38.376,0.02700,-0.05300,1.01400,0.05300,-0.15700,0.00000,-0.92600,-0.28500,-0.63100,192.39000,0.16000
161225_15.00.38.387,0.02800,-0.05800,0.99300,0.03500,0.01800,0.00000,-0.92900,-0.28600,-0.64500,192.53000,0.14000
161225_15.00.38.399,0.02700,-0.06100,0.99300,0.07000,-0.14000,-0.01800,-0.92900,-0.28600,-0.64500,192.39000,-0.14000
161225_15.00.38.411,0.02600,-0.05700,1.01300,0.07000,-0.24500,0.00000,-0.92900,-0.28500,-0.64000,192.18000,-0.21000
161225_15.00.38.422,0.03000,-0.05500,1.01300,0.07000,-0.12300,0.00000,-0.93200,-0.28300,-0.64400,192.71000,0.53000
161225_15.00.38.434,0.03000,-0.06000,0.99500,0.05300,-0.07000,0.00000,-0.93000,-0.28800,-0.64200,192.84000,0.13000
161225_15.00.38.445,0.02600,-0.05800,0.99300,0.10500,-0.19200,0.01800,-0.93000,-0.28900,-0.64000,192.40000,-0.44000
161225_15.00.38.457,0.02800,-0.05800,1.01200,0.07000,-0.21000,0.00000,-0.93000,-0.28900,-0.64000,192.59000,0.19000
161225_15.00.38.469,0.02900,-0.06000,1.01300,0.05300,-0.10500,0.00000,-0.92800,-0.28700,-0.64100,192.88000,0.29000
161225_15.00.38.481,0.03000,-0.05800,0.99500,0.07000,-0.21000,0.01800,-0.92600,-0.28700,-0.63900,192.70000,-0.18000
161225_15.00.38.492,0.02800,-0.05700,1.02200,0.07000,-0.21000,0.00000,-0.92500,-0.28600,-0.64200,192.63000,-0.07000
161225_15.00.38.504,0.02800,-0.05900,1.00100,0.03500,-0.01800,-0.01800,-0.92700,-0.28600,-0.64200,192.61000,-0.02000
161225_15.00.38.515,0.02800,-0.06200,0.98400,0.08700,-0.14000,0.00000,-0.92700,-0.28600,-0.64200,192.26000,-0.35000
161225_15.00.38.527,0.02900,-0.06200,1.01000,0.07000,-0.26200,0.00000,-0.92500,-0.28600,-0.64700,192.44000,0.18000
161225_15.00.38.538,0.02900,-0.05600,1.01600,0.05300,-0.15700,0.01800,-0.92500,-0.28800,-0.64200,192.23000,-0.21000
161225_15.00.38.549,0.03000,-0.06200,0.99500,0.05300,-0.07000,0.01800,-0.92500,-0.28800,-0.64500,192.84000,0.61000
161225_15.00.38.561,0.02900,-0.06200,0.99400,0.08700,-0.21000,0.00000,-0.92800,-0.28500,-0.64400,192.08000,-0.76000
161225_15.00.38.572,0.02700,-0.05800,1.01100,0.07000,-0.17500,0.00000,-0.92800,-0.28500,-0.64400,192.66000,0.58000
161225_15.00.38.584,0.02800,-0.05800,1.00600,0.03500,-0.05300,-0.01800,-0.92900,-0.28400,-0.64400,192.33000,-0.33000
161225_15.00.38.595,0.03000,-0.06200,0.99200,0.05300,-0.05300,-0.01800,-0.93000,-0.28800,-0.64700,192.21000,-0.12000
161225_15.00.38.607,0.02800,-0.05900,0.99500,0.10500,-0.19200,-0.01800,-0.92900,-0.28600,-0.65100,191.97000,-0.24000
161225_15.00.38.618,0.03000,-0.05800,1.00800,0.07000,-0.08700,0.00000,-0.92900,-0.29000,-0.64100,192.85000,0.88000
161225_15.00.38.629,0.02900,-0.06000,0.98600,0.07000,-0.01800,0.00000,-0.92900,-0.29000,-0.64100,192.42000,-0.43000
161225_15.00.38.641,0.02800,-0.05900,0.99600,0.10500,-0.15700,0.00000,-0.93000,-0.28700,-0.64100,192.48000,0.06000
161225_15.00.38.652,0.03000,-0.05600,1.01700,0.07000,-0.15700,-0.01800,-0.93000,-0.28200,-0.64000,192.95000,0.47000
161225_15.00.38.663,0.02800,-0.05700,0.99800,0.07000,0.00000,0.00000,-0.93000,-0.28200,-0.63700,191.77000,-1.18000
161225_15.00.38.675,0.03000,-0.06000,0.98600,0.12300,-0.10500,0.01800,-0.92700,-0.28600,-0.64100,192.63000,0.86000
161225_15.00.38.686,0.02700,-0.05800,1.01000,0.12300,-0.22800,0.00000,-0.92700,-0.28600,-0.64100,192.75000,0.12000
161225_15.00.38.698,0.02900,-0.05300,1.01400,0.07000,-0.10500,0.00000,-0.93400,-0.28800,-0.63600,192.73000,-0.02000
161225_15.00.38.709,0.02900,-0.06000,0.99100,0.05300,0.01800,0.00000,-0.92700,-0.28400,-0.63400,192.70000,-0.03000
161225_15.00.38.721,0.02700,-0.05900,0.99200,0.08700,-0.17500,0.01800,-0.92700,-0.28200,-0.63200,193.32000,0.62000
161225_15.00.38.732,0.02600,-0.05500,1.01300,0.05300,-0.12300,0.01800,-0.93200,-0.28700,-0.63800,192.67000,-0.65000
161225_15.00.38.744,0.02900,-0.05600,0.99300,0.05300,-0.07000,0.00000,-0.93200,-0.28700,-0.63800,193.10000,0.43000
161225_15.00.38.756,0.02400,-0.05700,0.99100,0.08700,-0.15700,0.00000,-0.93100,-0.28400,-0.64300,191.75000,-1.35000
161225_15.00.38.767,0.02800,-0.05600,1.01900,0.07000,-0.26200,0.00000,-0.93100,-0.28300,-0.64000,192.70000,0.95000
161225_15.00.38.779,0.02600,-0.05600,1.00600,0.01800,0.00000,0.00000,-0.92900,-0.28800,-0.64000,192.47000,-0.23000
161225_15.00.38.791,0.02700,-0.06000,0.98400,0.07000,-0.01800,-0.01800,-0.92400,-0.28600,-0.63900,192.25000,-0.22000
161225_15.00.38.802,0.02700,-0.05900,1.00700,0.08700,-0.29800,-0.01800,-0.92400,-0.28600,-0.63900,193.33000,1.08000
161225_15.00.38.814,0.02800,-0.05700,1.02200,0.03500,-0.15700,-0.01800,-0.92900,-0.28400,-0.63800,192.03000,-1.30000
161225_15.00.38.825,0.02700,-0.05900,0.99300,0.05300,0.01800,0.00000,-0.93000,-0.28400,-0.63600,193.16000,1.13000
161225_15.00.38.837,0.02900,-0.06300,0.99000,0.08700,-0.21000,0.00000,-0.92700,-0.28300,-0.63300,192.30000,-0.86000
161225_15.00.38.849,0.02600,-0.06000,1.01000,0.08700,-0.17500,-0.01800,-0.93000,-0.28600,-0.63800,192.85000,0.55000
161225_15.00.38.860,0.02900,-0.05700,1.01100,0.03500,-0.01800,0.00000,-0.93000,-0.28600,-0.63800,192.89000,0.04000
161225_15.00.38.872,0.02700,-0.06100,0.99800,0.08700,-0.22800,0.00000,-0.93200,-0.28400,-0.64000,192.99000,0.10000
161225_15.00.38.883,0.02500,-0.05500,1.01500,0.05300,-0.19200,0.00000,-0.93400,-0.28700,-0.63800,192.27000,-0.72000
161225_15.00.38.895,0.02800,-0.05900,1.00200,0.08700,-0.07000,0.00000,-0.93400,-0.28700,-0.63500,192.36000,0.09000
161225_15.00.38.907,0.02800,-0.06200,0.98800,0.08700,-0.07000,0.01800,-0.93200,-0.28400,-0.63600,192.87000,0.51000
161225_15.00.38.918,0.02600,-0.05800,1.00200,0.10500,-0.19200,0.00000,-0.93200,-0.28400,-0.63600,192.36000,-0.51000
161225_15.00.38.930,0.02900,-0.05700,1.01500,0.08700,-0.15700,0.00000,-0.93000,-0.28700,-0.64200,192.83000,0.47000
161225_15.00.38.941,0.02800,-0.06000,1.00300,0.05300,-0.07000,0.00000,-0.93100,-0.28800,-0.63700,192.48000,-0.35000
161225_15.00.38.953,0.02700,-0.05900,0.98800,0.08700,-0.08700,0.00000,-0.92600,-0.28700,-0.63900,191.86000,-0.62000
161225_15.00.38.965,0.02600,-0.05700,1.00600,0.10500,-0.21000,0.00000,-0.93100,-0.28200,-0.64200,192.93000,1.07000
161225_15.00.38.976,0.02600,-0.05600,1.01400,0.07000,4.34000,-0.01800,-0.93100,-0.28200,-0.64200,192.77000,-0.16000
161225_15.00.38.988,0.02900,-0.06000,0.99100,0.10500,-0.15700,-0.01800,-0.93300,-0.28500,-0.63900,193.07000,0.30000
161225_15.00.39.000,0.02900,-0.05500,1.01800,0.10500,-0.21000,-0.01800,-0.93500,-0.28400,-0.62900,191.73000,-1.34000
161225_15.00.39.011,0.02900,-0.05700,1.00600,0.07000,-0.05300,0.00000,-0.93000,-0.28500,-0.64500,192.19000,0.46000
161225_15.00.39.023,0.03000,-0.06100,0.98700,0.08700,-0.07000,0.00000,-0.93000,-0.28500,-0.64600,192.43000,0.24000
161225_15.00.39.034,0.02700,-0.05900,1.00200,0.10500,-0.21000,0.00000,-0.93000,-0.28500,-0.64600,192.14000,-0.29000
161225_15.00.39.046,0.02800,-0.05400,1.01300,0.05300,-0.14000,-0.03500,-0.92600,-0.28500,-0.64200,192.23000,0.09000
161225_15.00.39.058,0.03000,-0.05900,0.99800,0.05300,-0.08700,-0.03500,-0.93000,-0.28900,-0.64000,192.48000,0.25000
161225_15.00.39.069,0.03000,-0.05700,0.99400,0.07000,-0.15700,-0.01800,-0.92600,-0.28900,-0.63900,192.29000,-0.19000
161225_15.00.39.081,0.02600,-0.05500,1.00400,0.10500,-0.17500,0.01800,-0.92800,-0.29000,-0.64100,192.90000,0.61000
161225_15.00.39.092,0.02800,-0.05500,1.01400,0.07000,-0.15700,0.00000,-0.92800,-0.29000,-0.64100,192.00000,-0.90000
161225_15.00.39.104,0.02600,-0.05700,0.99700,0.07000,-0.08700,-0.01800,-0.92600,-0.29100,-0.63600,192.58000,0.58000
161225_15.00.39.116,0.02700,-0.05600,1.01100,0.08700,-0.21000,0.00000,-0.92700,-0.29100,-0.64500,191.52000,-1.06000
161225_15.00.39.127,0.02800,-0.05600,1.01400,0.05300,-0.10500,0.03500,-0.92600,-0.28800,-0.64300,192.01000,0.49000
161225_15.00.39.139,0.02700,-0.05800,0.99000,0.07000,-0.03500,0.03500,-0.92500,-0.28600,-0.64300,192.44000,0.43000
161225_15.00.39.150,0.02700,-0.06000,0.99500,0.10500,-0.21000,0.01800,-0.92500,-0.28600,-0.64300,191.92000,-0.52000
161225_15.00.39.162,0.02700,-0.05600,1.01700,0.07000,-0.19200,0.00000,-0.92700,-0.29100,-0.63900,192.36000,0.44000
161225_15.00.39.174,0.02700,-0.05900,1.00000,0.05300,-0.01800,0.00000,-0.92400,-0.29200,-0.63900,192.65000,0.29000
161225_15.00.39.185,0.03000,-0.06100,0.98900,0.07000,-0.12300,-0.01800,-0.92600,-0.28800,-0.63800,192.82000,0.17000
161225_15.00.39.197,0.02900,-0.05800,1.00800,0.08700,-0.19200,0.00000,-0.92800,-0.28900,-0.64600,192.53000,-0.29000
161225_15.00.39.208,0.03000,-0.05500,1.01300,0.10500,-0.17500,0.00000,-0.92800,-0.28900,-0.64600,193.27000,0.74000
161225_15.00.39.220,0.03000,-0.06100,1.00100,0.07000,-0.08700,0.00000,-0.92400,-0.28600,-0.64900,192.70000,-0.57000
161225_15.00.39.232,0.02900,-0.06100,0.98800,0.07000,-0.17500,0.00000,-0.92700,-0.28600,-0.65000,192.63000,-0.07000
161225_15.00.39.243,0.02700,-0.05800,1.01200,0.07000,-0.17500,0.00000,-0.92700,-0.28500,-0.64500,192.57000,-0.06000
161225_15.00.39.255,0.02700,-0.06000,1.00100,0.07000,-0.03500,0.01800,-0.92400,-0.28900,-0.64900,192.60000,0.03000
161225_15.00.39.266,0.02800,-0.06000,0.99100,0.10500,-0.17500,0.00000,-0.92400,-0.28900,-0.64900,192.35000,-0.25000
161225_15.00.39.278,0.02600,-0.05800,1.01600,0.10500,-0.22800,0.00000,-0.92300,-0.28300,-0.64900,192.73000,0.38000
161225_15.00.39.290,0.02700,-0.05600,1.00800,0.07000,-0.08700,-0.01800,-0.92800,-0.28700,-0.63600,193.07000,0.34000
161225_15.00.39.301,0.02800,-0.06200,0.98600,0.05300,0.01800,0.00000,-0.92500,-0.28700,-0.63500,193.11000,0.04000
161225_15.00.39.313,0.02600,-0.06200,0.99700,0.08700,-0.24500,0.00000,-0.92500,-0.28500,-0.63700,192.48000,-0.63000
161225_15.00.39.325,0.02600,-0.05600,1.01800,0.05300,-0.15700,0.00000,-0.92500,-0.28500,-0.63700,192.43000,-0.05000
161225_15.00.39.336,0.03000,-0.05800,0.99900,0.05300,-0.07000,0.00000,-0.92400,-0.28800,-0.63700,192.37000,-0.06000
161225_15.00.39.348,0.03000,-0.06100,0.99300,0.08700,-0.12300,0.00000,-0.93100,-0.29000,-0.64100,192.65000,0.28000
161225_15.00.39.359,0.02700,-0.05700,1.00200,0.08700,-0.10500,0.00000,-0.92500,-0.28700,-0.64000,192.50000,-0.15000
161225_15.00.39.371,0.03000,-0.06000,0.99600,0.05300,-0.05300,-0.01800,-0.92700,-0.28600,-0.63400,192.89000,0.39000
161225_15.00.39.383,0.02900,-0.05900,0.99100,0.07000,-0.12300,0.00000,-0.92700,-0.28600,-0.63400,192.10000,-0.79000
161225_15.00.39.394,0.02700,-0.05900,1.00300,0.10500,-0.22800,0.00000,-0.92800,-0.28700,-0.63100,193.21000,1.11000
161225_15.00.39.406,0.03000,-0.05600,1.01600,0.07000,-0.19200,0.01800,-0.92400,-0.28700,-0.63600,192.37000,-0.84000
161225_15.00.39.417,0.03000,-0.05700,0.99600,0.05300,-0.03500,0.00000,-0.92800,-0.28900,-0.62600,192.99000,0.62000
161225_15.00.39.429,0.02800,-0.05900,0.98900,0.08700,-0.14000,0.01800,-0.93200,-0.29000,-0.62600,192.67000,-0.32000
161225_15.00.39.440,0.02800,-0.05800,1.01200,0.07000,-0.22800,0.00000,-0.93200,-0.29000,-0.62600,192.72000,0.05000
161225_15.00.39.452,0.03000,-0.05400,1.01000,0.07000,-0.08700,-0.01800,-0.93000,-0.28800,-0.63100,192.79000,0.07000
161225_15.00.39.464,0.02900,-0.05900,0.98900,0.07000,-0.05300,0.01800,-0.93400,-0.28600,-0.63000,192.05000,-0.74000
161225_15.00.39.475,0.02800,-0.06300,0.99800,0.07000,-0.24500,0.01800,-0.93200,-0.28800,-0.62500,192.13000,0.08000
161225_15.00.39.487,0.02700,-0.05500,1.01600,0.05300,-0.07000,0.00000,-0.93200,-0.29000,-0.62400,192.68000,0.55000
161225_15.00.39.498,0.02900,-0.06200,0.98900,0.07000,-0.10500,0.01800,-0.93200,-0.29000,-0.62400,192.28000,-0.40000
161225_15.00.39.510,0.02500,-0.05800,1.00400,0.08700,-0.17500,0.00000,-0.93400,-0.29100,-0.63100,192.90000,0.62000
161225_15.00.39.522,0.02900,-0.05500,1.01300,0.07000,-0.14000,0.00000,-0.93800,-0.28900,-0.63500,193.27000,0.37000
161225_15.00.39.533,0.03100,-0.06000,1.00200,0.05300,-0.08700,0.01800,-0.92900,-0.28700,-0.63400,192.28000,-0.99000
161225_15.00.39.545,0.02700,-0.06000,0.99100,0.05300,-0.10500,0.01800,-0.93100,-0.29000,-0.63400,192.92000,0.64000
161225_15.00.39.557,0.02600,-0.05800,1.00500,0.08700,-0.17500,0.01800,-0.93100,-0.29000,-0.63400,192.03000,-0.89000
161225_15.00.39.568,0.02900,-0.05600,1.01600,0.08700,-0.14000,-0.01800,-0.92800,-0.28700,-0.63500,192.58000,0.55000
161225_15.00.39.580,0.02700,-0.05800,0.99700,0.07000,0.00000,0.00000,-0.93100,-0.28300,-0.63000,192.88000,0.30000
161225_15.00.39.591,0.02900,-0.06100,0.99100,0.10500,-0.14000,0.00000,-0.93200,-0.28500,-0.63300,192.55000,-0.33000
161225_15.00.39.603,0.02800,-0.05600,1.01700,0.12300,-0.21000,0.00000,-0.93100,-0.28100,-0.63600,192.24000,-0.31000
161225_15.00.39.615,0.03000,-0.05600,0.98900,0.05300,-0.05300,0.00000,-0.93100,-0.28100,-0.63600,192.86000,0.62000
161225_15.00.39.626,0.02600,-0.06000,0.99800,0.10500,-0.22800,0.00000,-0.93200,-0.28600,-0.63700,192.14000,-0.72000
161225_15.00.39.638,0.02500,-0.05600,1.01600,0.05300,-0.15700,0.00000,-0.92900,-0.28500,-0.64200,192.93000,0.79000
161225_15.00.39.649,0.02800,-0.05900,1.00200,0.05300,-0.05300,0.00000,-0.93100,-0.28400,-0.63400,192.40000,-0.53000
161225_15.00.39.661,0.02800,-0.06100,0.99400,0.05300,-0.12300,0.00000,-0.93600,-0.28500,-0.63700,192.67000,0.27000
161225_15.00.39.673,0.02600,-0.05700,1.00600,0.10500,-0.24500,-0.01800,-0.93600,-0.28500,-0.63700,192.36000,-0.31000
161225_15.00.39.684,0.02900,-0.05600,1.01300,0.08700,-0.17500,0.00000,-0.93000,-0.28700,-0.63000,192.39000,0.03000
161225_15.00.39.696,0.02800,-0.06100,0.99700,0.07000,-0.05300,0.00000,-0.93200,-0.28700,-0.63200,191.99000,-0.40000
161225_15.00.39.707,0.02800,-0.06200,0.98700,0.08700,-0.10500,0.00000,-0.92900,-0.28400,-0.63400,193.00000,1.01000
161225_15.00.39.719,0.02600,-0.05700,1.00500,0.12300,-0.21000,-0.01800,-0.92900,-0.28800,-0.63900,193.07000,0.07000
161225_15.00.39.731,0.02800,-0.05800,1.01600,0.07000,-0.03500,0.01800,-0.92900,-0.28800,-0.63900,192.55000,-0.52000
161225_15.00.39.742,0.03000,-0.06100,0.99000,0.08700,-0.17500,0.00000,-0.92600,-0.28900,-0.63700,192.14000,-0.41000
161225_15.00.39.754,0.02900,-0.05700,1.01300,0.08700,-0.24500,0.01800,-0.93000,-0.28300,-0.63300,191.93000,-0.21000
161225_15.00.39.765,0.02900,-0.05900,1.00400,0.03500,0.01800,-0.01800,-0.93400,-0.28500,-0.63600,192.00000,0.07000
161225_15.00.39.777,0.03100,-0.06200,0.98300,0.08700,-0.10500,0.00000,-0.93300,-0.28600,-0.63200,192.20000,0.20000
161225_15.00.39.789,0.02900,-0.06100,1.00500,0.10500,-0.19200,0.00000,-0.93300,-0.28600,-0.63200,192.57000,0.37000
161225_15.00.39.800,0.02800,-0.05500,1.01500,0.07000,-0.21000,0.00000,-0.93300,-0.28800,-0.63600,192.56000,-0.01000
161225_15.00.39.812,0.02900,-0.05900,0.99900,0.03500,-0.03500,0.00000,-0.92800,-0.28400,-0.64800,192.23000,-0.33000
161225_15.00.39.823,0.02900,-0.06000,0.98900,0.10500,-0.17500,0.00000,-0.92700,-0.28700,-0.64000,193.07000,0.84000
161225_15.00.39.835,0.02600,-0.05600,1.01000,0.07000,-0.17500,0.00000,-0.92200,-0.28800,-0.64300,193.08000,0.01000
161225_15.00.39.847,0.02900,-0.05600,1.00800,0.07000,-0.12300,-0.01800,-0.92200,-0.28800,-0.64300,192.18000,-0.90000
161225_15.00.39.858,0.03000,-0.05900,0.99900,0.07000,-0.17500,0.00000,-0.92400,-0.28500,-0.64600,192.86000,0.68000
161225_15.00.39.870,0.02600,-0.05500,1.01200,0.10500,-0.21000,0.00000,-0.92500,-0.28900,-0.64100,192.48000,-0.38000
161225_15.00.39.881,0.02700,-0.05900,1.01100,0.07000,-0.14000,0.00000,-0.92800,-0.28900,-0.63900,192.86000,0.38000
161225_15.00.39.893,0.02700,-0.05900,0.99100,0.05300,0.00000,-0.01800,-0.92500,-0.28500,-0.64500,192.44000,-0.42000
161225_15.00.39.905,0.02700,-0.05900,0.99500,0.10500,-0.19200,0.00000,-0.92500,-0.28500,-0.64500,192.68000,0.24000
161225_15.00.39.916,0.02700,-0.05600,1.02000,0.05300,-0.17500,0.00000,-0.92500,-0.29200,-0.64800,192.56000,-0.12000
161225_15.00.39.928,0.03000,-0.05600,1.00300,0.07000,-0.03500,0.00000,-0.92400,-0.28700,-0.64300,192.87000,0.31000
161225_15.00.39.939,0.02900,-0.06200,0.99000,0.08700,-0.10500,0.01800,-0.92600,-0.28200,-0.64300,192.52000,-0.35000
161225_15.00.39.951,0.02700,-0.05800,1.00600,0.10500,-0.24500,0.00000,-0.92000,-0.28500,-0.64100,192.16000,-0.36000
161225_15.00.39.963,0.02800,-0.05500,1.01400,0.05300,-0.12300,0.00000,-0.92000,-0.28500,-0.64100,192.28000,0.12000
161225_15.00.39.974,0.03000,-0.06000,0.99100,0.05300,-0.03500,-0.01800,-0.92600,-0.28700,-0.64000,191.95000,-0.33000
161225_15.00.39.986,0.02800,-0.06100,0.99600,0.08700,-0.17500,0.01800,-0.92600,-0.28900,-0.64000,193.02000,1.07000
161225_15.00.39.997,0.02900,-0.05600,1.01100,0.08700,-0.14000,0.01800,-0.92900,-0.29100,-0.64000,192.47000,-0.55000
161225_15.00.40.009,0.02800,-0.05800,0.99500,0.05300,-0.05300,0.01800,-0.92700,-0.29200,-0.63900,192.66000,0.19000
161225_15.00.40.021,0.02600,-0.06000,0.99000,0.07000,-0.14000,0.00000,-0.92700,-0.29200,-0.63900,192.67000,0.01000
161225_15.00.40.032,0.02600,-0.05900,1.00900,0.07000,-0.19200,0.00000,-0.92700,-0.28800,-0.64000,192.62000,-0.05000
161225_15.00.40.044,0.02800,-0.05700,1.01100,0.07000,-0.10500,0.00000,-0.92700,-0.29100,-0.63900,192.40000,-0.22000
161225_15.00.40.056,0.02900,-0.05900,0.98800,0.07000,-0.05300,0.00000,-0.92600,-0.29100,-0.63700,192.09000,-0.31000
161225_15.00.40.067,0.02900,-0.06100,0.99800,0.10500,-0.22800,0.01800,-0.92900,-0.28800,-0.63400,192.59000,0.50000
161225_15.00.40.079,0.02700,-0.05600,1.01800,0.07000,-0.19200,0.01800,-0.92900,-0.28800,-0.63400,192.82000,0.23000
161225_15.00.40.090,0.02800,-0.05600,0.99700,0.03500,-0.01800,0.01800,-0.92900,-0.29100,-0.64100,192.29000,-0.53000
161225_15.00.40.102,0.02800,-0.06300,0.98500,0.08700,-0.10500,-4.48000,-0.93000,-0.29100,-0.63800,192.22000,-0.07000
161225_15.00.40.114,0.02600,-0.05800,1.00500,0.05300,-0.12300,0.00000,-0.92600,-0.28700,-0.64000,192.79000,0.57000
161225_15.00.40.125,0.02900,-0.06100,0.99900,0.05300,-0.08700,0.00000,-0.92600,-0.28500,-0.63600,192.89000,0.10000
161225_15.00.40.137,0.02700,-0.06000,0.99600,0.07000,-0.21000,0.01800,-0.92600,-0.28500,-0.63600,192.59000,-0.30000
161225_15.00.40.149,0.02600,-0.05800,1.00700,0.10500,-0.17500,0.00000,-0.92600,-0.29200,-0.64500,192.64000,0.05000
161225_15.00.40.160,0.02900,-0.05700,1.00900,0.07000,-0.14000,0.00000,-0.92500,-0.28500,-0.64100,192.77000,0.13000
161225_15.00.40.172,0.03000,-0.06000,0.99600,0.05300,-0.05300,0.00000,-0.92500,-0.28600,-0.64500,192.18000,-0.59000
161225_15.00.40.183,0.02800,-0.06000,0.99100,0.08700,-0.15700,0.00000,-0.92600,-0.29100,-0.64500,192.73000,0.55000
161225_15.00.40.194,0.02800,-0.05900,1.01300,0.10500,-0.24500,0.00000,-0.92600,-0.29100,-0.64500,192.63000,-0.10000
161225_15.00.40.206,0.03000,-0.05700,1.01300,0.07000,-0.14000,0.00000,-0.92400,-0.28800,-0.63800,192.52000,-0.11000
161225_15.00.40.217,0.02900,-0.05800,0.99000,0.08700,-0.05300,0.01800,-0.92900,-0.29000,-0.63900,192.05000,-0.47000
161225_15.00.40.229,0.02500,-0.06100,0.99500,0.12300,-0.19200,0.00000,-0.92500,-0.28800,-0.64300,192.29000,0.24000
161225_15.00.40.240,0.02700,-0.05600,1.00300,0.07000,-0.03500,0.00000,-0.92800,-0.28700,-0.63700,192.37000,0.08000
161225_15.00.40.252,0.03100,-0.06200,0.99300,0.08700,-0.12300,0.00000,-0.92800,-0.28700,-0.63700,192.54000,0.17000
161225_15.00.40.263,0.02600,-0.05900,1.00600,0.08700,-0.22800,0.01800,-0.93000,-0.28800,-0.64400,192.35000,-0.19000
161225_15.00.40.274,0.02900,-0.05500,1.01500,0.07000,-0.10500,0.01800,-0.93200,-0.28700,-0.64400,191.92000,-0.43000
161225_15.00.40.285,0.03000,-0.06000,0.99700,0.07000,-0.07000,0.00000,-0.92900,-0.28900,-0.64200,192.87000,0.95000
161225_15.00.40.297,0.02800,-0.06100,0.99600,0.08700,-0.12300,0.00000,-0.92800,-0.28500,-0.63700,192.49000,-0.38000
161225_15.00.40.308,0.02700,-0.05700,1.00500,0.08700,-0.15700,0.00000,-0.92800,-0.28500,-0.63700,192.44000,-0.05000
161225_15.00.40.320,0.03000,-0.05600,1.01600,0.07000,-0.14000,0.00000,-0.92800,-0.28500,-0.64600,192.51000,0.07000
161225_15.00.40.331,0.02900,-0.05700,0.99800,0.07000,-0.08700,0.00000,-0.93100,-0.28700,-0.63700,192.51000,0.00000
161225_15.00.40.343,0.02700,-0.05900,0.99000,0.08700,-0.12300,0.00000,-0.92800,-0.28400,-0.64200,192.96000,0.45000
161225_15.00.40.354,0.02600,-0.05600,1.01000,0.07000,-0.05300,-0.01800,-0.93300,-0.28500,-0.64100,192.35000,-0.61000
161225_15.00.40.365,0.02800,-0.05700,0.98600,0.05300,-0.03500,0.00000,-0.93300,-0.28500,-0.64100,192.39000,0.04000
161225_15.00.40.377,0.02700,-0.06100,0.99900,0.08700,-0.17500,0.01800,-0.93300,-0.28500,-0.64000,193.01000,0.62000
161225_15.00.40.388,0.02800,-0.05400,1.01500,0.10500,-0.21000,0.00000,-0.93000,-0.28900,-0.63600,193.23000,0.22000
161225_15.00.40.400,0.02800,-0.05600,1.00100,0.05300,-0.03500,0.03500,-0.92900,-0.28700,-0.63800,192.66000,-0.57000
161225_15.00.40.412,0.03000,-0.06200,0.98600,0.08700,-0.12300,0.01800,-0.92700,-0.29000,-0.63600,192.35000,-0.31000
161225_15.00.40.423,0.02500,-0.05900,1.00300,0.07000,-0.14000,0.00000,-0.92700,-0.29000,-0.63600,192.66000,0.31000
161225_15.00.40.435,0.02800,-0.05700,1.00600,0.05300,-0.10500,-0.01800,-0.93100,-0.29000,-0.64000,192.40000,-0.26000
161225_15.00.40.447,0.02800,-0.06100,1.00100,0.05300,-0.07000,-0.01800,-0.92900,-0.29100,-0.64200,192.29000,-0.11000
161225_15.00.40.458,0.02900,-0.06100,0.99400,0.10500,-0.17500,0.00000,-0.93300,-0.28700,-0.64500,192.99000,0.70000
161225_15.00.40.470,0.02500,-0.05800,1.00900,0.12300,-0.19200,0.01800,-0.93400,-0.28700,-0.63600,193.05000,0.06000
161225_15.00.40.481,0.03000,-0.05900,1.01100,0.07000,-0.01800,-0.01800,-0.93400,-0.28700,-0.63600,192.08000,-0.97000
161225_15.00.40.492,0.02800,-0.06000,0.98900,0.10500,-0.14000,-0.01800,-0.93300,-0.28600,-0.63800,192.65000,0.57000
161225_15.00.40.504,0.02500,-0.05900,1.01600,0.07000,-0.24500,0.01800,-0.93300,-0.28900,-0.64000,192.75000,0.10000
161225_15.00.40.515,0.02800,-0.05600,1.01000,0.05300,-0.10500,0.00000,-0.93300,-0.29000,-0.63400,192.47000,-0.28000
161225_15.00.40.527,0.02800,-0.05900,0.98900,0.08700,-0.07000,0.01800,-0.93000,-0.29100,-0.63400,192.94000,0.47000
161225_15.00.40.538,0.02600,-0.05900,1.00200,0.12300,-0.22800,0.01800,-0.93000,-0.29100,-0.63400,192.90000,-0.04000
161225_15.00.40.550,0.02700,-0.05700,1.01600,0.05300,-0.15700,0.00000,-0.92900,-0.29200,-0.63400,192.60000,-0.30000
161225_15.00.40.562,0.02700,-0.06000,0.99600,0.07000,-0.03500,-0.01800,-0.92400,-0.28900,-0.63600,193.16000,0.56000
161225_15.00.40.573,0.02800,-0.06300,0.99300,0.08700,-0.14000,-0.01800,-0.92700,-0.28900,-0.63400,192.47000,-0.69000
161225_15.00.40.585,0.02600,-0.05700,1.00900,0.08700,-0.19200,-0.01800,-0.92900,-0.29100,-0.63800,192.82000,0.35000
161225_15.00.40.597,0.02800,-0.05700,1.01300,0.07000,-0.14000,0.00000,-0.92900,-0.29100,-0.63800,192.77000,-0.05000
161225_15.00.40.608,0.03000,-0.06000,0.99800,0.08700,-0.14000,0.01800,-0.92300,-0.29200,-0.64100,192.97000,0.20000
161225_15.00.40.620,0.02700,-0.05700,1.00800,0.07000,-0.15700,0.01800,-0.92500,-0.29100,-0.64500,192.12000,-0.85000
161225_15.00.40.632,0.03100,-0.05800,1.01200,0.07000,-0.10500,0.01800,-0.92800,-0.29000,-0.65100,192.26000,0.14000
161225_15.00.40.643,0.02900,-0.05700,0.99200,0.03500,-0.05300,0.00000,-0.92600,-0.28700,-0.64500,192.81000,0.55000
161225_15.00.40.655,0.02900,-0.06000,0.99600,0.12300,-0.19200,0.01800,-0.92600,-0.28700,-0.64500,192.33000,-0.48000
161225_15.00.40.667,0.02900,-0.05800,1.01800,0.07000,-0.26200,0.00000,-0.92600,-0.28900,-0.64500,192.79000,0.46000
161225_15.00.40.678,0.02800,-0.05700,1.00500,0.05300,-0.03500,-0.01800,-0.92600,-0.28800,-0.64700,192.39000,-0.40000
161225_15.00.40.690,0.03000,-0.06000,0.98400,0.08700,-0.07000,0.00000,-0.92300,-0.28700,-0.64200,193.22000,0.83000
161225_15.00.40.702,0.02800,-0.05800,1.00700,0.08700,-0.21000,0.00000,-0.92400,-0.28900,-0.64000,192.79000,-0.43000
161225_15.00.40.713,0.02800,-0.05400,1.01300,0.07000,-0.12300,-0.01800,-0.92400,-0.28900,-0.64000,192.77000,-0.02000
161225_15.00.40.725,0.03000,-0.05700,0.99600,0.07000,-0.03500,-0.03500,-0.92800,-0.28800,-0.63400,192.46000,-0.31000
161225_15.00.40.737,0.03000,-0.06100,0.99600,0.08700,-0.19200,0.00000,-0.92300,-0.28700,-0.64400,192.77000,0.31000
161225_15.00.40.748,0.02800,-0.05900,1.00500,0.07000,-0.08700,0.00000,-0.92800,-0.28500,-0.64400,192.41000,-0.36000
161225_15.00.40.760,0.03000,-0.06000,0.99500,0.07000,-0.08700,-0.01800,-0.92400,-0.28500,-0.64400,192.38000,-0.03000
161225_15.00.40.771,0.02700,-0.06100,0.99400,0.07000,-0.12300,0.00000,-0.92400,-0.28500,-0.64400,192.32000,-0.06000
161225_15.00.40.783,0.02800,-0.05800,1.01200,0.07000,-0.21000,0.01800,-0.92200,-0.28500,-0.64700,192.57000,0.25000
161225_15.00.40.795,0.02900,-0.05700,1.01200,0.03500,-0.10500,0.00000,-0.92100,-0.28400,-0.64500,192.57000,0.00000
161225_15.00.40.806,0.02900,-0.05800,0.98800,0.07000,-0.07000,0.00000,-0.92500,-0.28400,-0.64400,192.47000,-0.10000
161225_15.00.40.818,0.02500,-0.06000,0.99500,0.07000,-0.15700,0.00000,-0.92300,-0.28800,-0.64300,192.66000,0.19000
161225_15.00.40.830,0.02600,-0.05700,1.01500,0.08700,-0.19200,0.00000,-0.92300,-0.28800,-0.64300,193.18000,0.52000
161225_15.00.40.841,0.02600,-0.05500,1.00300,0.03500,0.00000,0.00000,-0.92700,-0.28800,-0.64200,192.57000,-0.61000
161225_15.00.40.853,0.03100,-0.06100,0.98700,0.08700,-0.12300,0.03500,-0.92900,-0.28700,-0.65000,192.83000,0.26000
161225_15.00.40.864,0.02800,-0.06000,1.00700,0.07000,-0.15700,0.00000,-0.92600,-0.28900,-0.64900,192.22000,-0.61000
161225_15.00.40.876,0.02600,-0.06000,0.99400,0.03500,-0.05300,0.01800,-0.92600,-0.29200,-0.64800,192.49000,0.27000
161225_15.00.40.888,0.02600,-0.06100,0.99000,0.08700,-0.15700,0.00000,-0.92600,-0.29200,-0.64800,192.57000,0.08000
161225_15.00.40.899,0.02500,-0.05700,1.00600,0.08700,-0.15700,0.00000,-0.92600,-0.29300,-0.63900,192.91000,0.34000
161225_15.00.40.911,0.02800,-0.05700,1.01300,0.10500,-0.15700,0.01800,-0.92600,-0.29000,-0.64600,192.47000,-0.44000
161225_15.00.40.923,0.02900,-0.05900,1.00000,0.07000,-0.05300,0.01800,-0.92700,-0.29100,-0.64300,192.54000,0.07000
161225_15.00.40.934,0.02700,-0.05900,0.99400,0.08700,-0.15700,0.01800,-0.93100,-0.29100,-0.64100,192.41000,-0.13000
161225_15.00.40.946,0.02700,-0.05700,1.01200,0.10500,-0.19200,0.00000,-0.93100,-0.29100,-0.64100,191.71000,-0.70000
161225_15.00.40.957,0.03000,-0.05500,1.00900,0.07000,-0.08700,-0.01800,-0.92500,-0.28800,-0.64200,192.11000,0.40000
161225_15.00.40.969,0.02800,-0.06000,0.99000,0.03500,-0.01800,0.00000,-0.92500,-0.28600,-0.64300,193.00000,0.89000
161225_15.00.40.981,0.02700,-0.06200,0.99500,0.08700,-0.22800,0.01800,-0.93000,-0.29000,-0.64600,192.47000,-0.53000
161225_15.00.40.992,0.02800,-0.05600,1.00700,0.03500,-0.05300,0.01800,-0.92800,-0.28900,-0.63900,192.66000,0.19000
161225_15.00.41.004,0.02900,-0.06000,0.98900,0.08700,-0.10500,-0.01800,-0.92800,-0.28900,-0.63900,192.90000,0.24000
161225_15.00.41.016,0.02700,-0.05900,1.00200,0.08700,-0.19200,-0.01800,-0.93000,-0.28900,-0.63800,193.01000,0.11000
