timestamp,ax,ay,az,gx,gy,gz,mx,my,mz,altitude,relative_altitude
271125_15.02.47.799,0.02300,-0.05300,0.99400,0.08700,-0.12300,-0.05300,-0.64700,0.34300,-0.40700,216.49000,0.00000
271125_15.02.47.811,0.02200,-0.05400,0.99400,0.07000,-0.07000,-0.05300,-0.64700,0.34600,-0.40700,216.71000,0.22000
271125_15.02.47.823,0.02300,-0.05400,0.99100,0.03500,-0.08700,-0.05300,-0.64700,0.34600,-0.41400,216.74000,0.03000
271125_15.02.47.834,0.02200,-0.05400,0.99200,0.07000,-0.12300,-0.05300,-0.64300,0.34700,-0.41100,216.61000,-0.13000
271125_15.02.47.846,0.02200,-0.05200,0.99300,0.07000,-0.12300,-0.05300,-0.64300,0.34700,-0.41100,216.19000,-0.42000
271125_15.02.47.857,0.02300,-0.05400,0.99200,0.05300,-0.12300,-0.03500,-0.64800,0.34600,-0.41000,216.51000,0.32000
271125_15.02.47.869,0.02300,-0.05400,0.99400,0.03500,-0.08700,-0.03500,-0.64400,0.34800,-0.41500,217.17000,0.66000
271125_15.02.47.880,0.02300,-0.05300,0.99200,0.01800,-0.08700,-0.03500,-0.64600,0.34700,-0.41300,217.03000,-0.14000
271125_15.02.47.892,0.02100,-0.05400,0.99200,0.03500,-0.10500,-0.05300,-0.64800,0.34800,-0.41000,216.78000,-0.25000
271125_15.02.47.904,0.02300,-0.05300,0.99200,0.08700,-0.12300,-0.03500,-0.64800,0.34800,-0.41000,216.84000,0.06000
271125_15.02.47.915,0.02200,-0.05400,0.99200,0.08700,-0.14000,-0.05300,-0.64800,0.35000,-0.40900,216.75000,-0.09000
271125_15.02.47.927,0.02300,-0.05300,0.99100,0.07000,-0.12300,-0.03500,-0.64700,0.34900,-0.41000,216.70000,-0.05000
271125_15.02.47.939,0.02200,-0.05300,0.99400,0.07000,-0.10500,-0.05300,-0.64800,0.34800,-0.41300,216.78000,0.08000
271125_15.02.47.950,0.02200,-0.05400,0.99300,0.07000,-0.10500,-0.05300,-0.64800,0.34800,-0.41300,216.53000,-0.25000
271125_15.02.47.961,0.02200,-0.05300,0.99200,0.07000,-0.12300,-0.05300,-0.64800,0.34900,-0.41500,216.79000,0.26000
271125_15.02.47.973,0.02300,-0.05400,0.99200,0.07000,-0.12300,-0.05300,-0.64700,0.34700,-0.40700,216.78000,-0.01000
271125_15.02.47.985,0.02200,-0.05300,0.99200,0.05300,-0.14000,-0.05300,-0.64700,0.34800,-0.40800,216.58000,-0.20000
271125_15.02.47.997,0.02300,-0.05300,0.99300,0.05300,-0.10500,-0.05300,-0.64800,0.34700,-0.41600,216.56000,-0.02000
271125_15.02.48.009,0.02300,-0.05200,0.99300,0.05300,-0.10500,-0.05300,-0.64800,0.34700,-0.41600,216.53000,-0.03000
271125_15.02.48.021,0.02300,-0.05400,0.99300,0.05300,-0.12300,-0.05300,-0.64300,0.34400,-0.42200,216.93000,0.40000
271125_15.02.48.033,0.02200,-0.05400,0.99300,0.07000,-0.08700,-0.05300,-0.64500,0.34900,-0.41400,216.91000,-0.02000
271125_15.02.48.044,0.02200,-0.05300,0.99200,0.08700,-0.14000,-0.03500,-0.64800,0.34800,-0.41700,216.06000,-0.85000
271125_15.02.48.056,0.02200,-0.05300,0.99300,0.05300,-0.12300,-0.03500,-0.64500,0.35000,-0.41600,216.18000,0.12000
271125_15.02.48.068,0.02300,-0.05300,0.99300,0.07000,-0.10500,-0.03500,-0.64500,0.35000,-0.41600,217.17000,0.99000
271125_15.02.48.080,0.02200,-0.05200,0.99200,0.05300,-0.10500,-0.03500,-0.64900,0.34700,-0.41600,216.84000,-0.33000
271125_15.02.48.091,0.02300,-0.05300,0.99200,0.05300,-0.08700,-0.03500,-0.64400,0.35000,-0.42100,216.63000,-0.21000
271125_15.02.48.103,0.02300,-0.05400,0.99100,0.07000,-0.12300,-0.03500,-0.64700,0.34900,-0.41900,217.17000,0.54000
271125_15.02.48.115,0.02300,-0.05300,0.99300,0.05300,-0.12300,-0.07000,-0.64700,0.34900,-0.41900,216.91000,-0.26000
271125_15.02.48.126,0.02100,-0.05400,0.99200,0.05300,-0.08700,-0.05300,-0.64300,0.35300,-0.41300,216.47000,-0.44000
271125_15.02.48.138,0.02300,-0.05400,0.99100,0.07000,-0.08700,-0.05300,-0.64600,0.34700,-0.42000,216.64000,0.17000
271125_15.02.48.149,0.02300,-0.05400,0.99200,0.05300,-0.14000,-0.07000,-0.64400,0.34700,-0.41800,216.52000,-0.12000
271125_15.02.48.161,0.02200,-0.05300,0.99300,0.08700,-0.14000,-0.07000,-0.64600,0.34600,-0.41400,216.73000,0.21000
271125_15.02.48.173,0.02200,-0.05400,0.99100,0.08700,-0.10500,-0.05300,-0.64600,0.34600,-0.41400,216.53000,-0.20000
271125_15.02.48.184,0.02300,-0.05400,0.99200,0.07000,-0.10500,-0.07000,-0.64500,0.34700,-0.41200,217.06000,0.53000
271125_15.02.48.196,0.02200,-0.05400,0.99300,0.08700,-0.12300,-0.07000,-0.64500,0.34700,-0.41600,217.16000,0.10000
271125_15.02.48.208,0.02200,-0.05400,0.99300,0.03500,-0.10500,-0.05300,-0.64200,0.34400,-0.41900,217.02000,-0.14000
271125_15.02.48.219,0.02100,-0.05300,0.99200,0.05300,-0.10500,-0.05300,-0.64200,0.34400,-0.41900,216.96000,-0.06000
271125_15.02.48.231,0.02300,-0.05400,0.99200,0.05300,-0.10500,-0.05300,-0.64500,0.34700,-0.41200,217.22000,0.26000
271125_15.02.48.243,0.02200,-0.05300,0.99100,0.05300,-0.10500,-0.03500,-0.64700,0.34600,-0.40900,217.14000,-0.08000
271125_15.02.48.254,0.02100,-0.05300,0.99200,0.08700,-0.14000,-0.05300,-0.64400,0.34500,-0.41100,217.22000,0.08000
271125_15.02.48.266,0.02300,-0.05400,0.99200,0.07000,-0.12300,-0.03500,-0.64600,0.34700,-0.41600,216.82000,-0.40000
271125_15.02.48.278,0.02100,-0.05400,0.99300,0.05300,-0.12300,-0.03500,-0.64600,0.34700,-0.41600,217.02000,0.20000
271125_15.02.48.289,0.02200,-0.05200,0.99200,0.08700,-0.10500,-0.05300,-0.64400,0.34600,-0.40900,216.93000,-0.09000
271125_15.02.48.301,0.02300,-0.05300,0.99200,0.08700,-0.12300,-0.03500,-0.64300,0.35200,-0.41100,217.08000,0.15000
271125_15.02.48.313,0.02200,-0.05300,0.99200,0.05300,-0.12300,-0.07000,-0.64600,0.34900,-0.40500,216.33000,-0.75000
271125_15.02.48.324,0.02300,-0.05300,0.99200,0.03500,-0.12300,-0.05300,-0.64600,0.34900,-0.40600,217.35000,1.02000
271125_15.02.48.336,0.02200,-0.05300,0.99200,0.03500,-0.10500,-0.07000,-0.64300,0.34800,-0.40600,216.93000,-0.42000
271125_15.02.48.348,0.02200,-0.05300,0.99200,0.05300,-0.12300,-0.05300,-0.64200,0.35000,-0.40800,216.67000,-0.26000
271125_15.02.48.359,0.02200,-0.05400,0.99300,0.07000,-0.10500,-0.05300,-0.64600,0.34800,-0.40800,216.95000,0.28000
271125_15.02.48.371,0.02300,-0.05500,0.99300,0.07000,-0.10500,-0.05300,-0.64500,0.34700,-0.41000,217.11000,0.16000
271125_15.02.48.383,0.02200,-0.05300,0.99200,0.07000,-0.12300,-0.05300,-0.64500,0.34700,-0.41000,216.61000,-0.50000
271125_15.02.48.394,0.02200,-0.05400,0.99200,0.08700,-0.12300,-0.05300,-0.64800,0.35100,-0.40600,217.26000,0.65000
271125_15.02.48.406,0.02300,-0.05400,0.99200,0.05300,-0.10500,-0.05300,-0.64200,0.34700,-0.40600,217.09000,-0.17000
271125_15.02.48.418,0.02200,-0.05400,0.99300,0.05300,-0.10500,-0.07000,-0.64400,0.35000,-0.41100,217.25000,0.16000
271125_15.02.48.429,0.02200,-0.05200,0.99100,0.07000,-0.10500,-0.07000,-0.64500,0.34900,-0.40700,217.11000,-0.14000
271125_15.02.48.441,0.02200,-0.05300,0.99200,0.08700,-0.15700,-0.03500,-0.64500,0.34900,-0.40700,217.03000,-0.08000
271125_15.02.48.453,0.02400,-0.05300,0.99400,0.08700,-0.12300,-0.05300,-0.64300,0.34900,-0.41100,216.31000,-0.72000
271125_15.02.48.464,0.02200,-0.05300,0.99300,0.07000,-0.10500,-0.03500,-0.64100,0.35100,-0.41600,217.24000,0.93000
271125_15.02.48.476,0.02200,-0.05300,0.99100,0.07000,-0.10500,-0.03500,-0.64500,0.34600,-0.41100,216.48000,-0.76000
271125_15.02.48.488,0.02300,-0.05300,0.99200,0.05300,-0.10500,-0.03500,-0.64500,0.34600,-0.41100,216.84000,0.36000
271125_15.02.48.499,0.02200,-0.05400,0.99200,0.08700,-0.14000,-0.03500,-0.64600,0.34400,-0.41200,216.70000,-0.14000
271125_15.02.48.511,0.02200,-0.05400,0.99300,0.05300,-0.10500,-0.03500,-0.64700,0.34700,-0.41000,216.98000,0.28000
271125_15.02.48.523,0.02200,-0.05500,0.99300,0.03500,-0.07000,-0.05300,-0.64400,0.34900,-0.40700,217.15000,0.17000
271125_15.02.48.534,0.02100,-0.05400,0.99300,0.07000,-0.10500,-0.03500,-0.64400,0.34700,-0.41100,217.13000,-0.02000
271125_15.02.48.546,0.02300,-0.05400,0.99200,0.07000,-0.12300,-0.03500,-0.64400,0.34700,-0.41100,217.16000,0.03000
271125_15.02.48.558,0.02100,-0.05400,0.99100,0.08700,-0.14000,-0.05300,-0.64300,0.34800,-0.40300,216.67000,-0.49000
271125_15.02.48.569,0.02200,-0.05300,0.99400,0.08700,-0.14000,-0.07000,-0.64000,0.34800,-0.40200,217.05000,0.38000
271125_15.02.48.581,0.02400,-0.05300,0.99400,0.03500,-0.12300,-0.05300,-0.64300,0.35000,-0.40900,216.64000,-0.41000
271125_15.02.48.592,0.02100,-0.05300,0.99200,0.03500,-0.10500,-0.05300,-0.64300,0.35000,-0.40900,216.93000,0.29000
271125_15.02.48.604,0.02300,-0.05400,0.99200,0.03500,-0.07000,-0.07000,-0.64500,0.35000,-0.41500,216.43000,-0.50000
271125_15.02.48.616,0.02200,-0.05400,0.99200,0.07000,-0.10500,-0.05300,-0.64200,0.34900,-0.41100,215.82000,-0.61000
271125_15.02.48.627,0.02200,-0.05300,0.99200,0.10500,-0.14000,-0.05300,-0.64600,0.34800,-0.40900,217.28000,1.46000
271125_15.02.48.639,0.02300,-0.05400,0.99100,0.05300,-0.10500,-0.03500,-0.64500,0.35000,-0.41100,215.90000,-1.38000
271125_15.02.48.651,0.02200,-0.05300,0.99200,0.07000,-0.10500,-0.05300,-0.64500,0.35000,-0.41100,217.46000,1.56000
271125_15.02.48.662,0.02300,-0.05400,0.99500,0.05300,-0.10500,-0.05300,-0.64700,0.35100,-0.41600,216.62000,-0.84000
271125_15.02.48.674,0.02200,-0.05400,0.99200,0.03500,-0.07000,-0.05300,-0.64200,0.34700,-0.42100,216.67000,0.05000
271125_15.02.48.686,0.02200,-0.05400,0.99000,0.08700,-0.12300,-0.05300,-0.64800,0.34700,-0.41700,216.43000,-0.24000
271125_15.02.48.697,0.02200,-0.05400,0.99400,0.08700,-0.12300,-0.05300,-0.64800,0.34700,-0.41300,216.53000,0.10000
271125_15.02.48.709,0.02200,-0.05400,0.99400,0.01800,-0.08700,-0.05300,-0.64700,0.35000,-0.41300,217.27000,0.74000
271125_15.02.48.721,0.02300,-0.05400,0.99300,0.01800,-0.07000,-0.05300,-0.64900,0.35300,-0.41000,216.72000,-0.55000
271125_15.02.48.732,0.02200,-0.05300,0.99100,0.05300,-0.08700,-0.05300,-0.64200,0.34600,-0.41300,216.98000,0.26000
271125_15.02.48.744,0.02300,-0.05400,0.99100,0.05300,-0.08700,-0.05300,-0.64700,0.34700,-0.40500,216.83000,-0.15000
271125_15.02.48.755,0.02100,-0.05400,0.99300,0.07000,-0.10500,-0.05300,-0.64700,0.34700,-0.40500,216.87000,0.04000
271125_15.02.48.767,0.02200,-0.05400,0.99200,0.07000,-0.14000,-0.05300,-0.64600,0.34900,-0.40500,217.23000,0.36000
271125_15.02.48.779,0.02200,-0.05400,0.99200,0.08700,-0.15700,-0.05300,-0.64400,0.35200,-0.40600,216.85000,-0.38000
271125_15.02.48.790,0.02200,-0.05200,0.99200,0.07000,-0.12300,-0.05300,-0.64900,0.35400,-0.41300,216.39000,-0.46000
271125_15.02.48.802,0.02300,-0.05300,0.99300,0.07000,-0.12300,-0.03500,-0.64800,0.34800,-0.40900,217.52000,1.13000
271125_15.02.48.814,0.02200,-0.05300,0.99200,0.12300,-0.14000,-0.03500,-0.64800,0.34800,-0.40900,216.81000,-0.71000
271125_15.02.48.825,0.02300,-0.05300,0.99400,0.10500,-0.14000,-0.05300,-0.64400,0.35000,-0.40700,217.12000,0.31000
271125_15.02.48.837,0.02300,-0.05200,0.98300,0.05300,-0.10500,-0.05300,-0.64600,0.34900,-0.41200,217.10000,-0.02000
271125_15.02.48.849,0.02300,-0.05400,1.00100,0.07000,-0.12300,-0.05300,-0.64700,0.34700,-0.41200,216.62000,-0.48000
271125_15.02.48.860,0.02200,-0.05300,0.99900,-0.01800,-0.01800,-0.05300,-0.64700,0.34700,-0.41200,216.86000,0.24000
271125_15.02.48.872,0.02300,-0.05400,0.98800,-0.03500,-0.01800,-0.05300,-0.64900,0.34800,-0.40700,217.26000,0.40000
271125_15.02.48.884,0.02300,-0.05500,0.98800,0.12300,-0.17500,-0.05300,-0.65100,0.34600,-0.40700,216.75000,-0.51000
271125_15.02.48.896,0.02200,-0.05400,0.99300,0.07000,-0.12300,-0.03500,-0.64900,0.35200,-0.40600,217.05000,0.30000
271125_15.02.48.907,0.02300,-0.05400,0.99000,0.03500,-0.10500,-0.05300,-0.64600,0.34600,-0.40500,217.01000,-0.04000
271125_15.02.48.919,0.02400,-0.05300,0.99000,0.08700,-0.14000,-0.05300,-0.64600,0.34600,-0.40500,216.72000,-0.29000
271125_15.02.48.931,0.02300,-0.05300,0.99500,0.08700,-0.12300,-0.05300,-0.64800,0.34400,-0.40900,216.81000,0.09000
271125_15.02.48.943,0.02300,-0.05400,0.99100,0.05300,-0.08700,-0.05300,-0.65100,0.34700,-0.40800,217.17000,0.36000
271125_15.02.48.954,0.02200,-0.05400,0.99000,0.10500,-0.17500,-0.05300,-0.65200,0.34700,-0.40000,216.78000,-0.39000
271125_15.02.48.966,0.02300,-0.05300,1.00000,0.14000,-0.17500,-0.05300,-0.65200,0.34700,-0.40000,217.60000,0.82000
271125_15.02.48.978,0.02200,-0.05400,0.99000,0.01800,-0.07000,-0.03500,-0.65200,0.34700,-0.41000,216.13000,-1.47000
271125_15.02.48.989,0.02300,-0.05400,0.99000,0.10500,-0.15700,-0.05300,-0.64900,0.34600,-0.41000,217.03000,0.90000
271125_15.02.49.001,0.02300,-0.05400,0.99100,0.00000,-0.08700,-0.05300,-0.64600,0.34300,-0.40300,216.58000,-0.45000
271125_15.02.49.013,0.02300,-0.05200,0.98800,0.07000,-0.12300,-0.05300,-0.64700,0.34500,-0.40700,217.54000,0.96000
271125_15.02.49.024,0.02400,-0.05200,0.99200,0.10500,-0.15700,-0.05300,-0.64700,0.34500,-0.40700,216.73000,-0.81000
271125_15.02.49.036,0.02200,-0.05400,0.99600,0.05300,-0.12300,-0.05300,-0.64200,0.34500,-0.40600,217.24000,0.51000
271125_15.02.49.048,0.02300,-0.05500,0.99300,0.03500,-0.07000,-0.01800,-0.64600,0.34400,-0.41000,217.02000,-0.22000
271125_15.02.49.059,0.02200,-0.05500,0.99100,0.05300,-0.08700,-0.05300,-0.64500,0.34600,-0.41400,217.25000,0.23000
271125_15.02.49.071,0.02200,-0.05300,0.99300,0.03500,-0.12300,-0.07000,-0.64500,0.34900,-0.41600,217.26000,0.01000
271125_15.02.49.083,0.02200,-0.05400,0.99300,0.01800,-0.08700,-0.05300,-0.64600,0.34900,-0.41600,216.38000,-0.88000
271125_15.02.49.094,0.02300,-0.05300,0.99100,0.07000,-0.12300,-0.05300,-0.64500,0.34500,-0.41800,216.64000,0.26000
271125_15.02.49.106,0.02300,-0.05400,0.99300,0.08700,-0.12300,-0.05300,-0.64600,0.35400,-0.41600,216.56000,-0.08000
271125_15.02.49.118,0.02200,-0.05400,0.99300,0.05300,-0.08700,-0.05300,-0.64300,0.35200,-0.42100,217.73000,1.17000
271125_15.02.49.129,0.02200,-0.05400,0.99400,0.05300,-0.10500,-0.05300,-0.64300,0.35200,-0.42100,217.27000,-0.46000
271125_15.02.49.141,0.02300,-0.05300,0.99100,0.08700,-0.12300,-0.07000,-0.64300,0.34900,-0.41000,216.85000,-0.42000
271125_15.02.49.153,0.02300,-0.05300,0.99100,0.10500,-0.15700,-0.05300,-0.64100,0.35000,-0.41100,216.81000,-0.04000
271125_15.02.49.164,0.02300,-0.05400,0.99000,0.07000,-0.14000,-0.03500,-0.64700,0.34700,-0.41000,216.80000,-0.01000
271125_15.02.49.176,0.02300,-0.05300,0.99600,0.03500,-0.10500,-0.05300,-0.64200,0.34600,-0.41900,217.08000,0.28000
271125_15.02.49.188,0.02300,-0.05400,0.99200,-0.01800,-0.03500,-0.05300,-0.64200,0.34600,-0.41900,216.69000,-0.39000
271125_15.02.49.199,0.02200,-0.05400,0.99200,0.03500,-0.07000,-0.07000,-0.64400,0.34800,-0.41600,217.24000,0.55000
271125_15.02.49.211,0.02200,-0.05400,0.99400,0.07000,-0.12300,-0.07000,-0.64600,0.34600,-0.41100,217.00000,-0.24000
271125_15.02.49.222,0.02300,-0.05400,0.99200,0.07000,-0.15700,-0.05300,-0.64800,0.34500,-0.41200,217.14000,0.14000
271125_15.02.49.234,0.02200,-0.05400,0.99100,0.07000,-0.12300,-0.05300,-0.64800,0.34500,-0.41200,216.77000,-0.37000
271125_15.02.49.246,0.02300,-0.05300,0.99100,0.05300,-0.12300,-0.05300,-0.64200,0.35100,-0.42200,216.58000,-0.19000
271125_15.02.49.257,0.02400,-0.05300,0.99200,0.05300,-0.10500,-0.05300,-0.64700,0.34800,-0.41700,216.74000,0.16000
271125_15.02.49.269,0.02300,-0.05500,0.99300,0.05300,-0.10500,-0.05300,-0.64600,0.35100,-0.41100,216.69000,-0.05000
271125_15.02.49.281,0.02200,-0.05400,0.99100,0.07000,-0.12300,-0.03500,-0.64300,0.35100,-0.41200,216.89000,0.20000
271125_15.02.49.292,0.02200,-0.05400,0.99200,0.08700,-0.14000,-0.03500,-0.64300,0.35100,-0.41200,216.56000,-0.33000
271125_15.02.49.304,0.02200,-0.05300,0.99300,0.05300,-0.14000,-0.03500,-0.64500,0.35200,-0.41400,217.75000,1.19000
271125_15.02.49.316,0.02200,-0.05200,0.99300,0.03500,-0.12300,-0.05300,-0.64600,0.34800,-0.41700,217.15000,-0.60000
271125_15.02.49.327,0.02200,-0.05400,0.99300,0.05300,-0.10500,-0.05300,-0.65000,0.34800,-0.40600,216.61000,-0.54000
271125_15.02.49.339,0.02300,-0.05400,0.99400,0.01800,-0.07000,-0.03500,-0.65000,0.34800,-0.40600,217.56000,0.95000
271125_15.02.49.351,0.02100,-0.05400,0.98000,0.07000,-0.14000,-0.07000,-0.64800,0.34900,-0.40900,217.25000,-0.31000
271125_15.02.49.362,0.02100,-0.05300,1.01200,0.10500,-0.15700,-0.05300,-0.64400,0.35100,-0.41200,216.25000,-1.00000
271125_15.02.49.374,0.02200,-0.05500,0.99200,-0.12300,0.03500,-0.03500,-0.64200,0.35300,-0.41600,216.86000,0.61000
271125_15.02.49.386,0.02300,-0.05300,0.98800,-0.01800,-0.03500,-0.05300,-0.64400,0.35300,-0.40900,216.94000,0.08000
271125_15.02.49.397,0.02200,-0.05300,0.99400,0.14000,-0.19200,-0.05300,-0.64400,0.35300,-0.40900,217.04000,0.10000
271125_15.02.49.409,0.02100,-0.05400,0.99200,0.05300,-0.12300,-0.05300,-0.64700,0.35100,-0.40800,216.17000,-0.87000
271125_15.02.49.421,0.02200,-0.05300,0.98900,0.12300,-0.17500,-0.03500,-0.64400,0.35000,-0.41000,216.68000,0.51000
271125_15.02.49.432,0.02300,-0.05300,0.99000,0.12300,-0.17500,-0.05300,-0.64600,0.35200,-0.41800,216.93000,0.25000
271125_15.02.49.444,0.02200,-0.05300,0.99400,0.05300,-0.12300,-0.03500,-0.64600,0.35300,-0.41000,216.61000,-0.32000
271125_15.02.49.456,0.02300,-0.05600,0.99500,0.03500,-0.10500,-0.03500,-0.64600,0.35300,-0.41000,216.59000,-0.02000
271125_15.02.49.467,0.02300,-0.05400,0.99400,0.10500,-0.15700,-0.05300,-0.64400,0.35300,-0.41000,217.01000,0.42000
271125_15.02.49.479,0.02300,-0.05400,0.99100,0.12300,-0.17500,-0.08700,-0.64500,0.34700,-0.41200,216.73000,-0.28000
271125_15.02.49.491,0.02200,-0.05400,0.99300,0.07000,-0.12300,-0.07000,-0.64400,0.35200,-0.41400,217.01000,0.28000
271125_15.02.49.502,0.02200,-0.05300,0.99500,0.03500,-0.10500,-0.03500,-0.64400,0.35200,-0.41400,216.92000,-0.09000
271125_15.02.49.514,0.02300,-0.05300,0.98900,0.03500,-0.05300,-0.03500,-0.64600,0.35100,-0.41200,217.38000,0.46000
271125_15.02.49.526,0.02300,-0.05400,0.99400,-0.01800,-0.01800,-0.05300,-0.64200,0.35200,-0.41500,216.68000,-0.70000
271125_15.02.49.537,0.02300,-0.05400,0.99000,0.01800,-0.10500,-0.05300,-0.64300,0.35000,-0.41200,217.04000,0.36000
271125_15.02.49.549,0.02400,-0.05300,0.99400,0.12300,-0.17500,-0.05300,-0.64300,0.34800,-0.41700,217.25000,0.21000
271125_15.02.49.561,0.02200,-0.05300,0.99100,0.03500,-0.08700,-0.03500,-0.64300,0.34800,-0.41700,216.89000,-0.36000
271125_15.02.49.572,0.02300,-0.05400,0.99200,0.00000,-0.10500,-0.03500,-0.64600,0.35100,-0.41600,216.40000,-0.49000
271125_15.02.49.584,0.02300,-0.05500,0.99600,0.03500,-0.10500,-0.05300,-0.64100,0.34600,-0.41600,216.87000,0.47000
271125_15.02.49.596,0.02200,-0.05300,0.99300,0.05300,-0.07000,-0.07000,-0.64200,0.34900,-0.41400,216.69000,-0.18000
271125_15.02.49.607,0.02300,-0.05300,0.99000,0.10500,-0.12300,-0.05300,-0.64200,0.34900,-0.41400,217.33000,0.64000
271125_15.02.49.619,0.02300,-0.05300,0.99100,0.15700,-0.21000,-0.05300,-0.64100,0.34900,-0.41100,217.31000,-0.02000
271125_15.02.49.631,0.02200,-0.05400,0.99200,0.08700,-0.17500,-0.03500,-0.64300,0.34900,-0.42200,216.34000,-0.97000
271125_15.02.49.643,0.02200,-0.05400,0.99400,0.01800,-0.10500,-0.03500,-0.64100,0.35300,-0.41300,217.78000,1.44000
271125_15.02.49.654,0.02300,-0.05400,0.99200,0.00000,-0.05300,-0.05300,-0.64700,0.35000,-0.40400,216.77000,-1.01000
271125_15.02.49.666,0.02200,-0.05300,0.99100,0.05300,-0.08700,-0.05300,-0.64700,0.35000,-0.40400,217.03000,0.26000
271125_15.02.49.678,0.02300,-0.05300,0.99300,0.10500,-0.14000,-0.05300,-0.64300,0.34500,-0.40900,216.80000,-0.23000
271125_15.02.49.689,0.02300,-0.05300,0.99400,0.07000,-0.12300,-0.03500,-0.64300,0.34300,-0.42000,216.61000,-0.19000
271125_15.02.49.701,0.02300,-0.05300,0.99400,0.03500,-0.08700,-0.05300,-0.64600,0.34200,-0.42000,216.74000,0.13000
271125_15.02.49.713,0.02300,-0.05300,0.99400,-0.01800,-0.05300,-0.05300,-0.64600,0.34200,-0.42000,216.90000,0.16000
271125_15.02.49.724,0.02200,-0.05400,0.99400,0.01800,-0.07000,-0.05300,-0.64500,0.35000,-0.41400,216.92000,0.02000
271125_15.02.49.736,0.02200,-0.05300,0.99100,0.08700,-0.14000,-0.05300,-0.64600,0.34900,-0.41300,217.52000,0.60000
271125_15.02.49.748,0.02300,-0.05300,0.99300,0.10500,-0.17500,-0.05300,-0.64400,0.34500,-0.41400,216.73000,-0.79000
271125_15.02.49.759,0.02300,-0.05400,0.99100,0.08700,-0.14000,-0.07000,-0.64600,0.34500,-0.42100,217.26000,0.53000
271125_15.02.49.771,0.02200,-0.05300,0.99200,0.07000,-0.12300,-0.03500,-0.64600,0.34500,-0.42100,216.31000,-0.95000
271125_15.02.49.783,0.02200,-0.05300,0.99300,0.05300,-0.08700,-0.03500,-0.64000,0.34400,-0.41700,217.26000,0.95000
271125_15.02.49.794,0.02200,-0.05400,0.99500,0.00000,-0.10500,-0.05300,-0.64600,0.34700,-0.41200,216.72000,-0.54000
271125_15.02.49.806,0.02300,-0.05400,0.99200,0.05300,-0.10500,-0.07000,-0.64100,0.34200,-0.41200,217.22000,0.50000
271125_15.02.49.818,0.02200,-0.05400,0.99300,0.10500,-0.17500,-0.07000,-0.64500,0.34800,-0.42200,216.54000,-0.68000
271125_15.02.49.830,0.02200,-0.05400,0.99400,0.08700,-0.14000,-0.07000,-0.64500,0.34800,-0.42200,217.36000,0.82000
271125_15.02.49.841,0.02300,-0.05300,0.99400,0.01800,-0.10500,-0.07000,-0.64400,0.34500,-0.41400,216.99000,-0.37000
271125_15.02.49.853,0.02200,-0.05400,0.99300,0.01800,-0.05300,-0.05300,-0.64500,0.34600,-0.41400,216.41000,-0.58000
271125_15.02.49.865,0.02300,-0.05300,0.99200,0.05300,-0.12300,-0.05300,-0.64000,0.34500,-0.41600,217.33000,0.92000
271125_15.02.49.876,0.02300,-0.05500,0.99200,0.08700,-0.14000,-0.05300,-0.64000,0.34500,-0.41600,216.82000,-0.51000
271125_15.02.49.888,0.02200,-0.05300,0.99300,0.08700,-0.14000,-0.05300,-0.64300,0.34400,-0.42000,216.50000,-0.32000
271125_15.02.49.899,0.02200,-0.05400,0.99200,0.01800,-0.10500,-0.03500,-0.63900,0.34600,-0.40900,216.54000,0.04000
271125_15.02.49.911,0.02200,-0.05400,0.99200,0.01800,-0.08700,-0.03500,-0.64100,0.34900,-0.41300,216.72000,0.18000
271125_15.02.49.923,0.02300,-0.05400,0.99400,0.08700,-0.12300,-0.03500,-0.64300,0.34700,-0.41000,217.06000,0.34000
271125_15.02.49.934,0.02200,-0.05300,0.99300,0.07000,-0.10500,-0.03500,-0.64300,0.34700,-0.41000,217.22000,0.16000
271125_15.02.49.946,0.02200,-0.05400,0.99100,0.08700,-0.14000,-0.03500,-0.64300,0.34800,-0.41900,216.57000,-0.65000
271125_15.02.49.958,0.02300,-0.05400,0.99200,0.10500,-0.14000,-0.03500,-0.64300,0.34800,-0.42000,216.50000,-0.07000
271125_15.02.49.969,0.02300,-0.05400,0.99200,0.07000,-0.14000,-0.03500,-0.64200,0.34500,-0.41600,216.98000,0.48000
271125_15.02.49.981,0.02400,-0.05300,0.99400,0.05300,-0.08700,-0.05300,-0.64200,0.34500,-0.41600,217.77000,0.79000
271125_15.02.49.993,0.02300,-0.05400,0.99300,0.01800,-0.08700,-0.05300,-0.64700,0.34700,-0.40600,217.24000,-0.53000
271125_15.02.50.005,0.02200,-0.05400,0.99000,0.05300,-0.08700,-0.05300,-0.64600,0.34900,-0.41400,216.57000,-0.67000
271125_15.02.50.016,0.02200,-0.05400,0.99200,0.08700,-0.14000,-0.03500,-0.64800,0.34800,-0.41300,216.48000,-0.09000
271125_15.02.50.027,0.02200,-0.05300,0.99400,0.08700,-0.14000,-0.03500,-0.64800,0.34400,-0.41400,217.33000,0.85000
271125_15.02.50.038,0.02200,-0.05300,0.99000,0.07000,-0.10500,-0.03500,-0.64800,0.34400,-0.41400,216.99000,-0.34000
271125_15.02.50.050,0.02200,-0.05400,0.99300,0.00000,-0.05300,-0.05300,-0.64500,0.34500,-0.41200,217.22000,0.23000
271125_15.02.50.062,0.02100,-0.05400,0.99400,0.01800,-0.07000,-0.05300,-0.64900,0.34800,-0.41300,216.98000,-0.24000
271125_15.02.50.073,0.02200,-0.05500,0.99100,0.05300,-0.10500,-0.05300,-0.64600,0.34900,-0.41300,217.09000,0.11000
271125_15.02.50.085,0.02200,-0.05400,0.99200,0.05300,-0.12300,-0.07000,-0.64600,0.34900,-0.41400,216.80000,-0.29000
271125_15.02.50.097,0.02300,-0.05300,0.99100,0.03500,-0.12300,-0.03500,-0.64700,0.34600,-0.41400,216.86000,0.06000
271125_15.02.50.108,0.02500,-0.05400,0.99400,0.03500,-0.10500,-0.07000,-0.64800,0.34500,-0.41300,217.01000,0.15000
271125_15.02.50.120,0.02300,-0.05300,0.99400,0.00000,-0.08700,-0.07000,-0.64200,0.34600,-0.41500,217.07000,0.06000
271125_15.02.50.132,0.02300,-0.05400,0.99200,0.00000,-0.05300,-0.05300,-0.64700,0.34300,-0.41300,216.17000,-0.90000
271125_15.02.50.143,0.02300,-0.05400,0.99200,0.03500,-0.07000,-0.03500,-0.64700,0.34300,-0.41300,216.65000,0.48000
271125_15.02.50.155,0.02200,-0.05400,0.99200,0.01800,-0.07000,-0.03500,-0.64400,0.34400,-0.40900,217.13000,0.48000
271125_15.02.50.167,0.02300,-0.05300,0.99400,0.00000,0.00000,-0.05300,-0.64300,0.34000,-0.40900,217.27000,0.14000
271125_15.02.50.178,0.02300,-0.05500,0.99300,-0.10500,0.10500,-0.05300,-0.64600,0.34700,-0.40300,216.33000,-0.94000
271125_15.02.50.190,0.02100,-0.05600,0.99100,-0.19200,0.07000,-0.05300,-0.64900,0.34400,-0.40800,216.74000,0.41000
271125_15.02.50.202,0.02200,-0.05400,0.99200,0.28000,-0.33300,-0.07000,-0.64900,0.34400,-0.40800,216.82000,0.08000
271125_15.02.50.214,0.02200,-0.05300,0.99300,0.36800,-0.42000,-0.05300,-0.64800,0.34500,-0.41800,217.15000,0.33000
271125_15.02.50.225,0.02300,-0.05300,0.99200,0.03500,-0.10500,-0.05300,-0.64600,0.34100,-0.41600,216.99000,-0.16000
271125_15.02.50.237,0.02200,-0.05400,0.99300,-0.07000,0.03500,-0.05300,-0.64400,0.34700,-0.41100,216.66000,-0.33000
271125_15.02.50.249,0.02100,-0.05400,0.99700,-0.03500,-0.01800,-0.05300,-0.64400,0.34700,-0.41100,216.94000,0.28000
271125_15.02.50.260,0.02100,-0.05500,0.99200,0.15700,-0.22800,-0.05300,-0.64400,0.34500,-0.41000,217.14000,0.20000
271125_15.02.50.272,0.02300,-0.05300,0.99100,0.35000,-0.36800,-0.07000,-0.64200,0.34600,-0.41900,216.89000,-0.25000
271125_15.02.50.284,0.02300,-0.05300,0.99300,0.22800,-0.28000,-0.05300,-0.64500,0.34700,-0.40900,216.67000,-0.22000
271125_15.02.50.295,0.02300,-0.05400,0.99300,0.00000,-0.05300,-0.03500,-0.64400,0.34300,-0.41500,217.42000,0.75000
271125_15.02.50.307,0.02300,-0.05400,0.99100,-0.10500,0.05300,-0.03500,-0.64400,0.34300,-0.41500,217.17000,-0.25000
271125_15.02.50.319,0.02400,-0.05500,0.99300,-0.03500,-0.03500,-0.03500,-0.64500,0.34400,-0.41700,216.77000,-0.40000
271125_15.02.50.330,0.02200,-0.05400,0.99500,0.05300,-0.12300,-0.05300,-0.64700,0.34300,-0.41300,215.94000,-0.83000
271125_15.02.50.342,0.02200,-0.05300,0.99300,0.15700,-0.21000,-0.05300,-0.64300,0.34100,-0.42100,217.06000,1.12000
271125_15.02.50.354,0.02400,-0.05300,0.99100,0.14000,-0.22800,-0.05300,-0.64300,0.34100,-0.42100,216.71000,-0.35000
271125_15.02.50.365,0.02300,-0.05200,0.98900,0.03500,-0.10500,-0.05300,-0.64500,0.34100,-0.42100,216.71000,0.00000
271125_15.02.50.377,0.02300,-0.05500,1.00000,-0.07000,0.05300,-0.07000,-0.64500,0.34300,-0.40800,217.18000,0.47000
271125_15.02.50.389,0.02200,-0.05500,0.99600,0.07000,-0.08700,-0.07000,-0.64700,0.34100,-0.41500,217.22000,0.04000
271125_15.02.50.400,0.02400,-0.05300,0.99000,0.28000,-0.31500,-0.07000,-0.64800,0.34300,-0.41600,216.50000,-0.72000
271125_15.02.50.412,0.02300,-0.05400,0.99500,0.29800,-0.31500,-0.05300,-0.64800,0.34300,-0.41600,216.46000,-0.04000
271125_15.02.50.424,0.02300,-0.05400,0.99300,0.15700,-0.19200,-0.05300,-0.64600,0.34200,-0.41000,217.11000,0.65000
271125_15.02.50.435,0.02300,-0.05400,0.99000,0.03500,-0.10500,-0.03500,-0.64500,0.34200,-0.41300,216.87000,-0.24000
271125_15.02.50.447,0.02200,-0.05400,0.99300,-0.03500,-0.03500,-0.01800,-0.64400,0.34600,-0.41700,217.06000,0.19000
271125_15.02.50.458,0.02200,-0.05500,0.99600,0.01800,-0.07000,-0.03500,-0.64400,0.34400,-0.41600,216.75000,-0.31000
271125_15.02.50.470,0.02300,-0.05400,0.99500,0.10500,-0.14000,-0.05300,-0.64300,0.34400,-0.41600,216.75000,0.00000
271125_15.02.50.482,0.02300,-0.05300,0.99100,0.14000,-0.17500,-0.05300,-0.64500,0.34700,-0.41000,216.93000,0.18000
271125_15.02.50.493,0.02300,-0.05200,0.99100,0.10500,-0.14000,-0.05300,-0.64300,0.34900,-0.41200,216.63000,-0.30000
271125_15.02.50.505,0.02200,-0.05400,0.99400,0.01800,-0.07000,-0.05300,-0.64100,0.34500,-0.41700,216.95000,0.32000
271125_15.02.50.517,0.02300,-0.05400,0.99500,-0.07000,-0.03500,-0.05300,-0.64100,0.34500,-0.41700,217.18000,0.23000
271125_15.02.50.528,0.02200,-0.05500,0.99400,-0.05300,0.00000,-0.05300,-0.64700,0.34400,-0.41600,216.71000,-0.47000
271125_15.02.50.540,0.02100,-0.05400,0.99000,0.01800,-0.05300,-0.05300,-0.64600,0.35000,-0.41400,216.75000,0.04000
271125_15.02.50.552,0.02400,-0.05300,0.99100,0.10500,-0.22800,-0.03500,-0.64500,0.34700,-0.41800,217.39000,0.64000
271125_15.02.50.563,0.02300,-0.05400,0.99400,0.08700,-0.14000,-0.03500,-0.65200,0.34700,-0.41200,217.07000,-0.32000
271125_15.02.50.575,0.02300,-0.05300,0.99100,0.05300,-0.08700,-0.03500,-0.65200,0.34700,-0.41200,217.81000,0.74000
271125_15.02.50.586,0.02200,-0.05300,0.99500,0.07000,-0.12300,-0.05300,-0.65000,0.34700,-0.41900,216.77000,-1.04000
271125_15.02.50.598,0.02200,-0.05300,0.99500,0.07000,-0.14000,-0.05300,-0.64500,0.34600,-0.41900,216.83000,0.06000
271125_15.02.50.610,0.02300,-0.05300,0.99000,0.10500,-0.15700,-0.03500,-0.64700,0.34500,-0.41700,217.60000,0.77000
271125_15.02.50.622,0.02200,-0.05400,0.99100,0.14000,-0.21000,-0.05300,-0.64700,0.34500,-0.41700,217.38000,-0.22000
271125_15.02.50.633,0.02400,-0.05400,0.99300,0.08700,-0.17500,-0.05300,-0.64300,0.34500,-0.41400,216.97000,-0.41000
271125_15.02.50.645,0.02200,-0.05200,0.99500,0.00000,-0.07000,-0.03500,-0.64300,0.34500,-0.41900,216.62000,-0.35000
271125_15.02.50.657,0.02200,-0.05400,0.99300,-0.03500,0.00000,-0.03500,-0.64500,0.34600,-0.41900,217.54000,0.92000
271125_15.02.50.669,0.02200,-0.05400,0.99000,0.03500,-0.07000,-0.03500,-0.64000,0.34700,-0.41700,216.23000,-1.31000
271125_15.02.50.680,0.02200,-0.05300,0.99100,0.08700,-0.10500,-0.05300,-0.64000,0.34700,-0.41700,216.95000,0.72000
271125_15.02.50.692,0.02200,-0.05400,0.99100,0.10500,-0.14000,-0.05300,-0.64100,0.35100,-0.41300,216.47000,-0.48000
271125_15.02.50.704,0.02200,-0.05300,0.99200,0.07000,-0.12300,-0.05300,-0.64100,0.34700,-0.41900,217.29000,0.82000
271125_15.02.50.715,0.02200,-0.05300,0.99300,0.01800,-0.10500,-0.03500,-0.64600,0.34500,-0.41400,217.14000,-0.15000
271125_15.02.50.727,0.02200,-0.05300,0.99400,4.46300,-0.08700,-0.05300,-0.64600,0.34500,-0.41400,217.09000,-0.05000
271125_15.02.50.739,0.02200,-0.05400,0.99100,0.07000,-0.15700,-0.05300,-0.64900,0.34700,-0.41600,217.85000,0.76000
271125_15.02.50.750,0.02300,-0.05300,0.99000,0.12300,-0.17500,-0.05300,-0.64500,0.34600,-0.42000,217.67000,-0.18000
271125_15.02.50.762,0.02300,-0.05400,0.99000,0.10500,-0.19200,-0.03500,-0.64400,0.34500,-0.41500,217.03000,-0.64000
271125_15.02.50.774,0.02200,-0.05400,0.99500,0.07000,-0.14000,-0.05300,-0.64600,0.34600,-0.42200,217.38000,0.35000
271125_15.02.50.785,0.02300,-0.05400,0.99700,-0.01800,-0.05300,-0.05300,-0.64600,0.34600,-0.42200,217.29000,-0.09000
271125_15.02.50.797,0.02300,-0.05500,0.99400,-0.05300,0.01800,-0.05300,-0.64600,0.34500,-0.42100,217.47000,0.18000
271125_15.02.50.809,0.02300,-0.05400,0.98700,0.07000,-0.10500,-0.05300,-0.64500,0.34500,-0.42100,217.14000,-0.33000
271125_15.02.50.820,0.02300,-0.05300,0.99100,0.17500,-0.26200,-0.05300,-0.64300,0.34900,-0.41800,217.68000,0.54000
271125_15.02.50.832,0.02200,-0.05400,0.99300,0.12300,-0.17500,-0.05300,-0.64300,0.34600,-0.42000,216.79000,-0.89000
271125_15.02.50.844,0.02300,-0.05300,0.99000,0.03500,-0.08700,-0.03500,-0.64800,0.34600,-0.42000,216.79000,0.00000
271125_15.02.50.855,0.02200,-0.05300,0.99300,0.00000,-0.08700,-0.05300,-0.64700,0.34900,-0.42700,216.83000,0.04000
271125_15.02.50.867,0.02200,-0.05500,0.99200,0.00000,-0.07000,-0.01800,-0.64900,0.34700,-0.42200,217.39000,0.56000
271125_15.02.50.879,0.02300,-0.05400,0.99600,0.05300,-0.10500,-0.03500,-0.64700,0.34900,-0.42100,217.71000,0.32000
271125_15.02.50.890,0.02200,-0.05300,0.99200,0.10500,-0.14000,-0.05300,-0.64700,0.34900,-0.42100,216.92000,-0.79000
271125_15.02.50.902,0.02200,-0.05300,0.98800,0.10500,-0.15700,-0.08700,-0.64400,0.34200,-0.41800,217.47000,0.55000
271125_15.02.50.914,0.02300,-0.05400,0.99600,-0.01800,-0.07000,-0.05300,-0.64400,0.34500,-0.42100,217.16000,-0.31000
271125_15.02.50.925,0.02200,-0.05300,0.98700,-0.01800,-0.05300,-0.05300,-0.64900,0.34600,-0.41400,217.11000,-0.05000
271125_15.02.50.937,0.02300,-0.05300,0.98800,0.07000,-0.12300,-0.03500,-0.64900,0.34800,-0.41000,216.96000,-0.15000
271125_15.02.50.949,0.02300,-0.05400,1.00400,0.10500,-0.15700,-0.05300,-0.64900,0.34800,-0.41000,216.87000,-0.09000
271125_15.02.50.960,0.02100,-0.05300,0.99200,0.03500,-0.07000,-0.05300,-0.64700,0.34900,-0.41600,216.85000,-0.02000
271125_15.02.50.972,0.02400,-0.05400,0.98400,0.14000,-0.15700,-0.03500,-0.64900,0.34800,-0.41600,217.08000,0.23000
271125_15.02.50.984,0.02300,-0.05400,0.99500,0.12300,-0.17500,-0.05300,-0.64300,0.34800,-0.41700,216.52000,-0.56000
271125_15.02.50.995,0.02100,-0.05300,0.99600,-0.03500,-0.05300,-0.03500,-0.64300,0.34800,-0.41700,216.70000,0.18000
271125_15.02.51.007,0.02200,-0.05300,0.98800,0.01800,-0.10500,-0.03500,-0.64400,0.34500,-0.41500,218.05000,1.35000
271125_15.02.51.019,0.02300,-0.05300,0.99300,0.10500,-0.17500,-0.03500,-0.64600,0.34200,-0.41300,216.34000,-1.71000
271125_15.02.51.030,0.02200,-0.05300,0.99500,0.08700,-0.12300,-0.03500,-0.64500,0.34300,-0.41900,217.39000,1.05000
271125_15.02.51.042,0.02200,-0.05500,0.99200,0.05300,-0.10500,-0.03500,-0.64100,0.34600,-0.41900,216.34000,-1.05000
271125_15.02.51.054,0.02300,-0.05300,0.99300,0.14000,-0.19200,-0.05300,-0.64100,0.34600,-0.41900,216.98000,0.64000
271125_15.02.51.065,0.02300,-0.05300,0.99300,0.03500,-0.08700,-0.05300,-0.64700,0.34300,-0.41300,217.11000,0.13000
271125_15.02.51.077,0.02200,-0.05300,0.98800,0.08700,-0.17500,-0.05300,-0.64600,0.34400,-0.41000,216.60000,-0.51000
271125_15.02.51.089,0.02400,-0.05400,0.99700,0.08700,-0.12300,-0.03500,-0.64800,0.34600,-0.41900,217.26000,0.66000
271125_15.02.51.100,0.02200,-0.05400,0.99300,-0.03500,-0.01800,-0.03500,-0.64800,0.34600,-0.41900,216.57000,-0.69000
271125_15.02.51.112,0.02200,-0.05400,0.98000,0.03500,-0.08700,-0.05300,-0.65000,0.34600,-0.41900,217.17000,0.60000
271125_15.02.51.124,0.02300,-0.05200,1.00400,0.17500,-0.21000,-0.05300,-0.65000,0.34500,-0.41200,217.07000,-0.10000
271125_15.02.51.135,0.02300,-0.05500,0.99500,0.05300,-0.12300,-0.05300,-0.65100,0.34700,-0.41400,217.10000,0.03000
271125_15.02.51.147,0.02300,-0.05400,0.98700,-0.03500,-0.05300,-0.03500,-0.64700,0.34700,-0.41100,217.16000,0.06000
271125_15.02.51.159,0.02300,-0.05300,0.98700,0.08700,-0.15700,-0.05300,-0.64700,0.34700,-0.41100,217.17000,0.01000
271125_15.02.51.171,0.02200,-0.05400,0.99600,0.07000,-0.14000,-0.07000,-0.65300,0.34700,-0.41400,217.28000,0.11000
271125_15.02.51.182,0.02200,-0.05400,0.99700,0.07000,-0.08700,-0.05300,-0.65100,0.34800,-0.42000,217.66000,0.38000
271125_15.02.51.194,0.02200,-0.05400,0.99000,0.10500,-0.14000,-0.01800,-0.65100,0.34400,-0.40900,217.07000,-0.59000
271125_15.02.51.206,0.02200,-0.05300,0.99000,0.14000,-0.21000,-0.03500,-0.65200,0.34700,-0.41000,217.17000,0.10000
271125_15.02.51.217,0.02200,-0.05400,0.99300,0.08700,-0.14000,-0.03500,-0.65200,0.34700,-0.41000,217.06000,-0.11000
271125_15.02.51.229,0.02200,-0.05200,0.99400,0.03500,-0.10500,-0.05300,-0.64900,0.34800,-0.41000,216.53000,-0.53000
271125_15.02.51.241,0.02300,-0.05300,0.99200,0.08700,-0.12300,-0.07000,-0.65200,0.34700,-0.41600,217.29000,0.76000
271125_15.02.51.252,0.02200,-0.05300,0.99100,0.03500,-0.12300,-0.03500,-0.64800,0.34700,-0.41500,217.02000,-0.27000
271125_15.02.51.264,0.02300,-0.05400,0.99200,0.08700,-0.17500,-0.05300,-0.64800,0.34700,-0.41500,216.70000,-0.32000
271125_15.02.51.276,0.02200,-0.05300,0.99200,0.10500,-0.15700,-0.05300,-0.64800,0.34400,-0.41700,217.22000,0.52000
271125_15.02.51.287,0.02300,-0.05500,0.99200,0.05300,-0.10500,-0.05300,-0.64800,0.34900,-0.41400,217.08000,-0.14000
271125_15.02.51.299,0.02400,-0.05400,0.99200,0.03500,-0.10500,-0.05300,-0.65200,0.34900,-0.41900,216.20000,-0.88000
271125_15.02.51.311,0.02300,-0.05200,0.99100,0.08700,-0.12300,-0.03500,-0.65100,0.34400,-0.41900,216.50000,0.30000
271125_15.02.51.322,0.02300,-0.05300,0.99700,0.05300,-0.12300,-0.03500,-0.65100,0.34400,-0.41900,216.78000,0.28000
271125_15.02.51.334,0.02100,-0.05400,0.99400,0.01800,-0.07000,-0.01800,-0.64800,0.34900,-0.41600,217.51000,0.73000
271125_15.02.51.346,0.02300,-0.05300,0.99200,0.05300,-0.14000,-0.03500,-0.65100,0.34500,-0.41200,216.40000,-1.11000
271125_15.02.51.357,0.02200,-0.05400,0.98200,0.12300,-0.19200,-0.07000,-0.64900,0.34500,-0.41100,216.82000,0.42000
271125_15.02.51.369,0.02300,-0.05400,0.99900,0.07000,-0.14000,-0.03500,-0.64900,0.34500,-0.41100,216.31000,-0.51000
271125_15.02.51.381,0.02200,-0.05400,0.99900,-0.05300,-0.03500,-0.03500,-0.65100,0.34500,-0.41200,217.35000,1.04000
271125_15.02.51.392,0.02400,-0.05500,0.98900,0.00000,-0.10500,-0.03500,-0.64900,0.34400,-0.41400,216.70000,-0.65000
271125_15.02.51.404,0.02300,-0.05300,0.99400,0.12300,-0.17500,-0.05300,-0.65000,0.34700,-0.41400,216.95000,0.25000
271125_15.02.51.416,0.02100,-0.05300,0.99500,0.03500,-0.08700,-0.05300,-0.64900,0.34600,-0.41700,216.97000,0.02000
271125_15.02.51.427,0.02200,-0.05400,0.98800,0.14000,-0.19200,-0.05300,-0.64900,0.34600,-0.41700,216.64000,-0.33000
271125_15.02.51.439,0.02400,-0.05300,0.99300,0.03500,-0.08700,-0.03500,-0.64900,0.34200,-0.41700,216.95000,0.31000
271125_15.02.51.451,0.02300,-0.05400,0.98900,-0.01800,-0.05300,-0.05300,-0.64700,0.34200,-0.41200,216.79000,-0.16000
271125_15.02.51.462,0.02400,-0.05300,0.99500,0.08700,-0.15700,-0.07000,-0.64800,0.34200,-0.41400,216.95000,0.16000
271125_15.02.51.474,0.02400,-0.05300,0.98900,0.05300,-0.08700,-0.05300,-0.64800,0.34200,-0.41300,217.02000,0.07000
271125_15.02.51.486,0.02100,-0.05300,0.99800,0.01800,-0.08700,-0.03500,-0.64800,0.34300,-0.41300,216.70000,-0.32000
271125_15.02.51.497,0.02300,-0.05300,1.00100,0.03500,-0.10500,-0.05300,-0.64600,0.34300,-0.41400,217.13000,0.43000
271125_15.02.51.509,0.02200,-0.05300,0.99100,-0.01800,-0.07000,-0.05300,-0.64900,0.34000,-0.41900,216.63000,-0.50000
271125_15.02.51.521,0.02200,-0.05400,0.98900,0.01800,-0.05300,-0.05300,-0.65000,0.34600,-0.41200,217.07000,0.44000
271125_15.02.51.532,0.02200,-0.05400,0.99100,0.07000,-0.10500,-0.03500,-0.65000,0.34600,-0.41200,217.19000,0.12000
271125_15.02.51.544,0.02300,-0.05400,0.99100,0.10500,-0.15700,-0.05300,-0.64800,0.34700,-0.41600,217.11000,-0.08000
271125_15.02.51.556,0.02300,-0.05400,0.99000,0.14000,-0.19200,-0.05300,-0.64600,0.34900,-0.41500,216.83000,-0.28000
271125_15.02.51.567,0.02300,-0.05300,0.99400,0.10500,-0.14000,-0.03500,-0.64600,0.35100,-0.41400,217.53000,0.70000
271125_15.02.51.579,0.02100,-0.05300,0.99200,0.05300,-0.10500,-0.03500,-0.64800,0.34400,-0.41600,217.06000,-0.47000
271125_15.02.51.591,0.02300,-0.05500,0.99300,0.10500,-0.17500,-0.03500,-0.64800,0.34400,-0.41600,217.10000,0.04000
271125_15.02.51.602,0.02200,-0.05300,0.99500,0.08700,-0.10500,-0.03500,-0.64600,0.34500,-0.40700,216.75000,-0.35000
271125_15.02.51.614,0.02200,-0.05300,0.99000,0.14000,-0.21000,-0.03500,-0.64200,0.34700,-0.40900,216.83000,0.08000
271125_15.02.51.626,0.02300,-0.05300,0.99300,0.08700,-0.15700,-0.03500,-0.64600,0.34300,-0.41100,217.09000,0.26000
271125_15.02.51.637,0.02300,-0.05400,0.99100,0.01800,-0.05300,-0.03500,-0.64600,0.34300,-0.41100,216.88000,-0.21000
271125_15.02.51.649,0.02200,-0.05300,0.99700,0.01800,-0.07000,-0.03500,-0.64700,0.34700,-0.41000,216.29000,-0.59000
271125_15.02.51.661,0.02200,-0.05300,0.99300,0.01800,-0.07000,-0.03500,-0.64600,0.34800,-0.40000,216.96000,0.67000
271125_15.02.51.672,0.02300,-0.05500,0.99000,0.01800,-0.07000,-0.05300,-0.64800,0.34900,-0.40500,217.56000,0.60000
271125_15.02.51.684,0.02100,-0.05400,0.99100,0.08700,-0.12300,-0.07000,-0.64700,0.34800,-0.41600,216.10000,-1.46000
271125_15.02.51.696,0.02200,-0.05300,0.99200,0.03500,-0.12300,-0.07000,-0.64700,0.34800,-0.41600,216.58000,0.48000
271125_15.02.51.707,0.02100,-0.05300,0.99000,-0.01800,-0.08700,-0.05300,-0.65100,0.34700,-0.42100,217.22000,0.64000
271125_15.02.51.719,0.02200,-0.05400,0.99400,0.03500,-0.10500,-0.05300,-0.64600,0.34800,-0.41200,216.68000,-0.54000
271125_15.02.51.731,0.02200,-0.05500,0.99700,0.07000,-0.07000,-0.03500,-0.65200,0.34700,-0.41100,217.18000,0.50000
271125_15.02.51.742,0.02100,-0.05300,0.99100,0.08700,-0.12300,-0.05300,-0.65200,0.34700,-0.41100,217.21000,0.03000
271125_15.02.51.754,0.02200,-0.05400,0.99100,0.14000,-0.19200,-0.05300,-0.64800,0.34400,-0.41200,216.79000,-0.42000
271125_15.02.51.766,0.02300,-0.05300,0.98800,0.12300,-0.21000,-0.05300,-0.64800,0.34400,-0.41000,216.78000,-0.01000
271125_15.02.51.777,0.02200,-0.05200,0.99400,0.01800,-0.10500,-0.05300,-0.64500,0.34700,-0.41500,216.85000,0.07000
271125_15.02.51.789,0.02200,-0.05600,0.99100,-0.05300,0.00000,-0.05300,-0.64900,0.34600,-0.41000,217.17000,0.32000
271125_15.02.51.800,0.02300,-0.05500,0.98800,0.07000,-0.14000,-0.03500,-0.64900,0.34600,-0.41000,216.94000,-0.23000
271125_15.02.51.812,0.02200,-0.05400,0.98800,0.15700,-0.22800,-0.05300,-0.64800,0.34300,-0.41200,216.63000,-0.31000
271125_15.02.51.824,0.02200,-0.05400,0.99700,0.10500,-0.15700,-0.05300,-0.64700,0.34600,-0.41100,216.70000,0.07000
271125_15.02.51.835,0.02200,-0.05300,0.99400,-0.03500,-0.01800,-0.03500,-0.64600,0.34300,-0.41500,216.76000,0.06000
271125_15.02.51.847,0.02200,-0.05400,0.99300,-0.03500,-0.01800,-0.05300,-0.64600,0.34300,-0.40800,216.75000,-0.01000
271125_15.02.51.859,0.02200,-0.05500,0.99600,0.00000,-0.07000,-0.07000,-0.64900,0.34700,-0.40800,216.84000,0.09000
271125_15.02.51.871,0.02100,-0.05400,0.99700,0.07000,-0.10500,-0.05300,-0.64600,0.34500,-0.41400,216.72000,-0.12000
271125_15.02.51.882,0.02200,-0.05200,0.99100,0.15700,-0.19200,-0.05300,-0.65200,0.34500,-0.41700,217.39000,0.67000
271125_15.02.51.894,0.02300,-0.05300,0.98500,0.15700,-0.21000,-0.07000,-0.65100,0.34200,-0.41400,217.52000,0.13000
271125_15.02.51.906,0.02300,-0.05200,0.98700,0.12300,-0.17500,-0.05300,-0.65100,0.34200,-0.41400,217.23000,-0.29000
271125_15.02.51.917,0.02300,-0.05400,0.99500,0.03500,-0.08700,-0.01800,-0.64700,0.34700,-0.40900,217.55000,0.32000
271125_15.02.51.929,0.02100,-0.05500,0.99700,0.01800,-0.05300,-0.03500,-0.64900,0.34600,-0.41400,216.72000,-0.83000
271125_15.02.51.941,0.02200,-0.05500,1.00000,-0.01800,-0.07000,-0.05300,-0.64900,0.34400,-0.41500,216.86000,0.14000
271125_15.02.51.952,0.02200,-0.05500,0.98900,0.17500,-0.21000,-0.05300,-0.64700,0.34300,-0.42000,216.47000,-0.39000
271125_15.02.51.964,0.02300,-0.05200,0.99300,0.17500,-0.21000,-0.05300,-0.64700,0.34300,-0.42000,216.83000,0.36000
271125_15.02.51.975,0.02400,-0.05300,0.99200,0.01800,-0.08700,-0.05300,-0.64500,0.34400,-0.41300,216.73000,-0.10000
271125_15.02.51.987,0.02300,-0.05300,0.99000,-0.03500,-0.01800,-0.03500,-0.64300,0.34400,-0.41000,217.60000,0.87000
271125_15.02.51.999,0.02300,-0.05300,0.99300,0.00000,-0.03500,-0.01800,-0.64400,0.34300,-0.41100,217.29000,-0.31000
271125_15.02.52.010,0.02200,-0.05500,0.99600,0.01800,-0.07000,-0.01800,-0.64400,0.34300,-0.41100,216.07000,-1.22000
271125_15.02.52.022,0.02300,-0.05400,0.99200,0.05300,-0.10500,-0.03500,-0.64400,0.34300,-0.41000,216.62000,0.55000
271125_15.02.52.034,0.02200,-0.05300,0.98800,0.10500,-0.19200,-0.05300,-0.64400,0.34000,-0.40900,216.90000,0.28000
271125_15.02.52.045,0.02200,-0.05400,0.99400,0.08700,-0.17500,-0.03500,-0.63900,0.34300,-0.41400,216.51000,-0.39000
271125_15.02.52.057,0.02300,-0.05400,0.99700,-0.01800,-0.05300,-0.03500,-0.64000,0.34500,-0.41400,217.22000,0.71000
271125_15.02.52.068,0.02300,-0.05400,0.99400,-0.01800,-0.07000,-0.01800,-0.64000,0.34500,-0.41400,216.68000,-0.54000
271125_15.02.52.080,0.02100,-0.05400,0.99100,0.07000,-0.12300,-0.05300,-0.64100,0.34300,-0.41200,216.19000,-0.49000
271125_15.02.52.092,0.02300,-0.05500,0.99100,0.10500,-0.19200,-0.05300,-0.64500,0.34200,-0.41200,216.69000,0.50000
271125_15.02.52.104,0.02300,-0.05400,0.99400,0.15700,-0.21000,-0.03500,-0.64000,0.34500,-0.41100,216.78000,0.09000
271125_15.02.52.115,0.02300,-0.05300,0.99400,0.12300,-0.15700,-0.07000,-0.64000,0.34500,-0.41100,216.88000,0.10000
271125_15.02.52.127,0.02400,-0.05300,0.99100,0.00000,-0.05300,-0.03500,-0.64300,0.34300,-0.41300,216.59000,-0.29000
271125_15.02.52.139,0.02100,-0.05500,0.99100,0.03500,-0.10500,-0.05300,-0.64000,0.34600,-0.41300,217.57000,0.98000
271125_15.02.52.150,0.02300,-0.05400,0.99200,0.10500,-0.17500,-0.07000,-0.64200,0.34100,-0.41100,216.04000,-1.53000
271125_15.02.52.162,0.02200,-0.05400,0.99100,0.07000,-0.15700,-0.07000,-0.64100,0.34400,-0.41900,217.28000,1.24000
271125_15.02.52.174,0.02300,-0.05300,0.99200,0.08700,-0.14000,-0.05300,-0.64100,0.34400,-0.41900,217.25000,-0.03000
271125_15.02.52.185,0.02300,-0.05300,0.99000,0.07000,-0.12300,-0.05300,-0.64300,0.34900,-0.40800,216.83000,-0.42000
271125_15.02.52.197,0.02300,-0.05400,1.00600,0.01800,-0.07000,-0.03500,-0.64200,0.34900,-0.41300,217.11000,0.28000
271125_15.02.52.209,0.02100,-0.05400,0.98900,-0.08700,0.03500,-0.03500,-0.64700,0.35200,-0.42100,217.06000,-0.05000
271125_15.02.52.220,0.02100,-0.05300,0.98900,0.05300,-0.08700,-0.05300,-0.64700,0.35200,-0.41600,217.35000,0.29000
271125_15.02.52.232,0.02400,-0.05500,0.99700,0.19200,-0.26200,-0.07000,-0.64600,0.34800,-0.41600,216.71000,-0.64000
271125_15.02.52.244,0.02100,-0.05400,0.99300,-0.01800,-0.03500,-0.03500,-0.64700,0.34600,-0.40700,216.68000,-0.03000
271125_15.02.52.255,0.02200,-0.05500,0.99100,0.01800,-0.07000,-0.03500,-0.64600,0.34600,-0.41000,216.81000,0.13000
271125_15.02.52.267,0.02300,-0.05400,0.99300,0.07000,-0.10500,-0.05300,-0.64600,0.34400,-0.42100,216.49000,-0.32000
271125_15.02.52.279,0.02100,-0.05400,0.98900,0.07000,-0.10500,-0.03500,-0.64600,0.34400,-0.42100,216.60000,0.11000
271125_15.02.52.290,0.02300,-0.05300,0.99800,0.17500,-0.21000,-0.03500,-0.64500,0.34100,-0.41300,217.04000,0.44000
271125_15.02.52.302,0.02200,-0.05400,0.99100,0.12300,-0.21000,-0.03500,-0.64500,0.34700,-0.41000,216.65000,-0.39000
271125_15.02.52.314,0.02300,-0.05400,0.99400,0.10500,-0.15700,-0.03500,-0.64000,0.34800,-0.41800,217.31000,0.66000
271125_15.02.52.325,0.02300,-0.05400,1.00000,0.03500,-0.10500,-0.03500,-0.64100,0.34300,-0.40800,217.43000,0.12000
271125_15.02.52.337,0.02300,-0.05400,0.99200,0.01800,-0.07000,-0.03500,-0.64100,0.34300,-0.40800,216.88000,-0.55000
271125_15.02.52.349,0.02200,-0.05400,0.99300,0.08700,-0.12300,-0.05300,-0.64500,0.34500,-0.41500,217.03000,0.15000
271125_15.02.52.360,0.02200,-0.05300,0.98800,0.07000,-0.15700,-0.05300,-0.64300,0.34600,-0.41100,216.91000,-0.12000
271125_15.02.52.372,0.02200,-0.05300,0.99000,0.07000,-0.19200,-0.03500,-0.64700,0.34900,-0.41700,216.56000,-0.35000
271125_15.02.52.384,0.02400,-0.05300,0.99700,0.05300,-0.12300,-0.05300,-0.64700,0.34900,-0.41700,216.43000,-0.13000
271125_15.02.52.395,0.02300,-0.05400,0.99100,-0.08700,0.03500,-0.05300,-0.64400,0.34400,-0.42000,216.95000,0.52000
271125_15.02.52.407,0.02200,-0.05400,0.99200,-0.03500,-0.03500,-0.03500,-0.64500,0.34400,-0.41800,216.44000,-0.51000
271125_15.02.52.418,0.02200,-0.05400,0.99600,0.03500,-0.08700,-0.03500,-0.65000,0.34600,-0.41600,217.00000,0.56000
271125_15.02.52.430,0.02200,-0.05400,0.99100,0.07000,-0.12300,-0.05300,-0.64700,0.34400,-0.41000,216.78000,-0.22000
271125_15.02.52.442,0.02300,-0.05300,0.99000,0.10500,-0.17500,-0.05300,-0.64700,0.34400,-0.41000,216.86000,0.08000
271125_15.02.52.453,0.02300,-0.05400,0.99200,0.07000,-0.15700,-0.05300,-0.64300,0.34700,-0.41300,217.22000,0.36000
271125_15.02.52.465,0.02200,-0.05500,0.99300,0.03500,-0.07000,-0.05300,-0.64800,0.35000,-0.41400,216.59000,-0.63000
271125_15.02.52.477,0.02200,-0.05300,0.99500,0.05300,-0.12300,-0.03500,-0.64600,0.34700,-0.42100,216.99000,0.40000
271125_15.02.52.488,0.02200,-0.05300,0.99100,0.12300,-0.15700,-0.05300,-0.64600,0.34700,-0.42100,217.33000,0.34000
271125_15.02.52.500,0.02300,-0.05300,0.99400,0.14000,-0.17500,-0.07000,-0.64100,0.34700,-0.41500,217.78000,0.45000
271125_15.02.52.512,0.02100,-0.05200,0.99300,0.07000,-0.10500,-0.05300,-0.64800,0.34500,-0.41700,216.87000,-0.91000
271125_15.02.52.523,0.02300,-0.05400,0.99000,0.01800,-0.05300,-0.03500,-0.64500,0.34300,-0.41600,216.66000,-0.21000
271125_15.02.52.535,0.02300,-0.05400,0.99400,0.01800,-0.10500,-0.03500,-0.64800,0.34200,-0.41500,217.85000,1.19000
271125_15.02.52.546,0.02300,-0.05400,0.99300,0.05300,-0.08700,-0.03500,-0.64800,0.34200,-0.41500,217.07000,-0.78000
271125_15.02.52.558,0.02300,-0.05500,0.99100,0.08700,-0.15700,-0.05300,-0.64500,0.34100,-0.41800,217.27000,0.20000
271125_15.02.52.570,0.02300,-0.05400,0.99100,0.12300,-0.15700,-0.05300,-0.64300,0.34200,-0.41500,216.67000,-0.60000
271125_15.02.52.581,0.02200,-0.05400,0.99100,0.07000,-0.12300,-0.07000,-0.64100,0.34300,-0.41800,217.13000,0.46000
271125_15.02.52.593,0.02200,-0.05300,0.99200,0.03500,-0.08700,-0.05300,-0.64100,0.34800,-0.42200,216.19000,-0.94000
271125_15.02.52.605,0.02200,-0.05300,0.99400,-0.01800,-0.07000,-0.03500,-0.64300,0.34800,-0.42200,216.94000,0.75000
271125_15.02.52.616,0.02200,-0.05400,0.99200,0.03500,-0.08700,-0.05300,-0.64400,0.34700,-0.41400,216.83000,-0.11000
271125_15.02.52.628,0.02200,-0.05400,0.99100,0.10500,-0.14000,-0.05300,-0.64600,0.34300,-0.40900,216.81000,-0.02000
271125_15.02.52.640,0.02300,-0.05300,0.99200,0.10500,-0.15700,-0.05300,-0.64800,0.34900,-0.41400,216.74000,-0.07000
271125_15.02.52.651,0.02200,-0.05400,0.99200,0.05300,-0.12300,-0.05300,-0.64800,0.34900,-0.41400,217.06000,0.32000
271125_15.02.52.663,0.02300,-0.05400,0.99300,0.03500,-0.07000,-0.03500,-0.64800,0.34600,-0.41900,216.90000,-0.16000
271125_15.02.52.675,0.02300,-0.05400,0.99300,0.03500,-0.10500,-0.03500,-0.65000,0.34100,-0.42200,216.94000,0.04000
271125_15.02.52.686,0.02200,-0.05200,0.99300,0.05300,-0.14000,-0.05300,-0.64500,0.33900,-0.41300,216.82000,-0.12000
271125_15.02.52.698,0.02200,-0.05500,0.99200,0.08700,-0.15700,-0.03500,-0.64100,0.34300,-0.41800,217.26000,0.44000
271125_15.02.52.710,0.02200,-0.05400,0.99100,0.08700,-0.15700,-0.05300,-0.64100,0.34300,-0.41800,216.80000,-0.46000
271125_15.02.52.721,0.02100,-0.05400,0.99300,0.07000,-0.10500,-0.05300,-0.65100,0.34500,-0.41400,217.30000,0.50000
271125_15.02.52.733,0.02100,-0.05400,0.99400,0.03500,-0.07000,-0.05300,-0.64700,0.34100,-0.41700,216.89000,-0.41000
271125_15.02.52.745,0.02200,-0.05300,0.99200,0.00000,-0.07000,-0.05300,-0.64400,0.34500,-0.41000,217.03000,0.14000
271125_15.02.52.756,0.02300,-0.05400,0.99200,0.07000,-0.12300,-0.05300,-0.64400,0.34500,-0.41000,216.80000,-0.23000
271125_15.02.52.768,0.02200,-0.05300,0.99200,0.10500,-0.15700,-0.05300,-0.64500,0.34500,-0.41800,217.24000,0.44000
271125_15.02.52.780,0.02300,-0.05400,0.99200,0.08700,-0.15700,-0.03500,-0.64200,0.34600,-0.41100,217.36000,0.12000
271125_15.02.52.791,0.02300,-0.05400,0.99100,0.07000,-0.14000,-0.05300,-0.64700,0.34400,-0.41000,217.03000,-0.33000
271125_15.02.52.803,0.02300,-0.05300,0.99200,0.05300,-0.10500,-0.03500,-0.64800,0.34800,-0.40600,216.82000,-0.21000
271125_15.02.52.815,0.02200,-0.05400,0.99100,0.05300,-0.08700,-0.05300,-0.64800,0.34800,-0.40600,216.93000,0.11000
271125_15.02.52.827,0.02200,-0.05400,0.99200,0.07000,-0.12300,-0.05300,-0.64700,0.34400,-0.41300,216.92000,-0.01000
271125_15.02.52.838,0.02300,-0.05400,0.99200,0.05300,-0.12300,-0.03500,-0.65000,0.34300,-0.40900,216.91000,-0.01000
271125_15.02.52.850,0.02200,-0.05400,0.99200,0.05300,-0.12300,-0.07000,-0.64500,0.34600,-0.41600,217.17000,0.26000
271125_15.02.52.862,0.02300,-0.05400,0.99200,0.03500,-0.10500,-0.05300,-0.64500,0.34600,-0.41600,217.12000,-0.05000
271125_15.02.52.873,0.02200,-0.05400,0.99300,0.03500,-0.10500,-0.03500,-0.64700,0.34300,-0.41200,217.21000,0.09000
271125_15.02.52.885,0.02200,-0.05400,0.99300,0.05300,-0.08700,-0.05300,-0.64400,0.34300,-0.41300,217.17000,-0.04000
271125_15.02.52.897,0.02300,-0.05400,0.99200,0.07000,-0.12300,-0.05300,-0.64400,0.34300,-0.41100,217.08000,-0.09000
271125_15.02.52.908,0.02200,-0.05400,0.99200,0.07000,-0.12300,-0.05300,-0.64200,0.34500,-0.41900,217.03000,-0.05000
271125_15.02.52.920,0.02300,-0.05500,0.99300,0.05300,-0.10500,-0.05300,-0.64200,0.34500,-0.41900,216.96000,-0.07000
271125_15.02.52.931,0.02100,-0.05400,0.99300,0.05300,-0.10500,-0.03500,-0.64800,0.34700,-0.41700,216.97000,0.01000
271125_15.02.52.943,0.02200,-0.05500,0.99100,0.07000,-0.12300,-0.05300,-0.65000,0.34700,-0.41800,217.38000,0.41000
271125_15.02.52.955,0.02200,-0.05400,0.99300,0.07000,-0.12300,-0.03500,-0.64300,0.34300,-0.42100,217.34000,-0.04000
271125_15.02.52.966,0.02300,-0.05400,0.99200,0.08700,-0.12300,-0.05300,-0.64300,0.34300,-0.42000,217.25000,-0.09000
271125_15.02.52.978,0.02200,-0.05300,0.99300,0.08700,-0.12300,-0.07000,-0.64700,0.34300,-0.42000,216.89000,-0.36000
271125_15.02.52.990,0.02300,-0.05300,0.99300,0.07000,-0.10500,-0.05300,-0.64900,0.34400,-0.42300,217.22000,0.33000
271125_15.02.53.001,0.02200,-0.05300,0.99200,0.07000,-0.12300,-0.05300,-0.64700,0.34500,-0.42200,216.86000,-0.36000
271125_15.02.53.013,0.02200,-0.05400,0.99300,0.05300,-0.10500,-0.05300,-0.64700,0.34800,-0.41500,216.72000,-0.14000
271125_15.02.53.025,0.02300,-0.05500,0.99100,0.05300,-0.10500,-0.03500,-0.64700,0.34800,-0.41500,216.73000,0.01000
271125_15.02.53.036,0.02400,-0.05500,0.99200,0.07000,-0.14000,-0.03500,-0.64700,0.34100,-0.41600,216.59000,-0.14000
271125_15.02.53.048,0.02400,-0.05500,0.99300,0.08700,-0.15700,-0.03500,-0.64900,0.34500,-0.42600,217.70000,1.11000
271125_15.02.53.060,0.02200,-0.05300,0.99300,0.05300,-0.10500,-0.07000,-0.64800,0.34100,-0.42200,216.91000,-0.79000
271125_15.02.53.071,0.02100,-0.05400,0.99300,0.03500,-0.05300,-0.05300,-0.65200,0.34600,-0.41500,217.27000,0.36000
271125_15.02.53.083,0.02200,-0.05400,0.99200,0.03500,-0.07000,-0.03500,-0.65200,0.34600,-0.41500,216.85000,-0.42000
271125_15.02.53.094,0.02400,-0.05500,0.99300,0.05300,-0.12300,-0.05300,-0.65100,0.34300,-0.42500,217.49000,0.64000
271125_15.02.53.106,0.02400,-0.05400,0.99100,0.10500,-0.15700,-0.05300,-0.65000,0.34400,-0.42300,217.41000,-0.08000
271125_15.02.53.118,0.02200,-0.05400,0.99300,0.08700,-0.12300,-0.05300,-0.64700,0.34400,-0.42000,216.55000,-0.86000
271125_15.02.53.129,0.02200,-0.05400,0.99200,0.08700,-0.12300,-0.07000,-0.64700,0.34400,-0.42000,217.25000,0.70000
271125_15.02.53.141,0.02200,-0.05300,0.99200,0.05300,-0.12300,-0.05300,-0.64400,0.34400,-0.42100,217.56000,0.31000
271125_15.02.53.153,0.02300,-0.05500,0.99300,0.05300,-0.10500,-0.05300,-0.64600,0.34500,-0.42100,217.27000,-0.29000
271125_15.02.53.164,0.02300,-0.05400,0.99200,0.08700,-0.12300,-0.03500,-0.64700,0.34500,-0.41900,217.04000,-0.23000
271125_15.02.53.176,0.02300,-0.05300,0.99100,0.08700,-0.14000,-0.03500,-0.64700,0.34400,-0.41900,216.57000,-0.47000
271125_15.02.53.188,0.02300,-0.05400,0.99300,0.07000,-0.14000,-0.03500,-0.64700,0.34400,-0.41900,216.42000,-0.15000
271125_15.02.53.199,0.02300,-0.05300,0.99400,0.05300,-0.08700,-0.03500,-0.64600,0.34400,-0.41700,216.63000,0.21000
271125_15.02.53.211,0.02300,-0.05500,0.99200,0.05300,-0.08700,-0.05300,-0.64600,0.34000,-0.41200,216.71000,0.08000
271125_15.02.53.222,0.02300,-0.05400,0.99300,0.07000,-0.08700,-0.05300,-0.64600,0.33900,-0.42100,216.90000,0.19000
271125_15.02.53.234,0.02200,-0.05400,0.99200,0.07000,-0.10500,-0.03500,-0.64600,0.33900,-0.42100,217.78000,0.88000
271125_15.02.53.246,0.02300,-0.05400,0.99200,0.05300,-0.12300,-0.05300,-0.64700,0.34300,-0.42700,217.53000,-0.25000
271125_15.02.53.257,0.02300,-0.05400,0.99200,0.03500,-0.12300,-0.05300,-0.64400,0.34100,-0.41300,216.83000,-0.70000
271125_15.02.53.635,0.02200,-0.05400,0.99200,0.05300,-0.12300,-0.05300,-0.64700,0.34300,-0.42100,217.23000,0.40000
271125_15.02.53.647,0.02300,-0.05300,0.99400,0.05300,-0.12300,-0.03500,-0.65000,0.34200,-0.42400,216.94000,-0.29000
271125_15.02.53.658,0.02200,-0.05300,0.99300,0.05300,-0.10500,-0.03500,-0.65000,0.34200,-0.42400,217.15000,0.21000
271125_15.02.53.670,0.02200,-0.05400,0.99300,0.07000,-0.10500,-0.05300,-0.64900,0.34500,-0.42300,217.02000,-0.13000
271125_15.02.53.682,0.02300,-0.05500,0.99300,0.07000,-0.12300,-0.05300,-0.64700,0.34400,-0.41600,216.46000,-0.56000
271125_15.02.53.693,0.02300,-0.05400,0.99300,0.07000,-0.10500,-0.05300,-0.64800,0.34500,-0.40900,217.17000,0.71000
271125_15.02.53.705,0.02400,-0.05300,0.99300,0.05300,-0.12300,-0.05300,-0.64800,0.34900,-0.42000,217.44000,0.27000
271125_15.02.53.717,0.02200,-0.05500,0.99200,0.07000,-0.12300,-0.03500,-0.64800,0.34900,-0.42000,216.80000,-0.64000
271125_15.02.53.728,0.02400,-0.05300,0.99200,0.07000,-0.12300,-0.03500,-0.64800,0.34700,-0.41200,217.65000,0.85000
271125_15.02.53.740,0.02100,-0.05400,0.99300,0.05300,-0.12300,-0.03500,-0.64600,0.34700,-0.42200,217.00000,-0.65000
271125_15.02.53.752,0.02300,-0.05500,0.99200,0.07000,-0.12300,-0.03500,-0.64600,0.34700,-0.41800,217.12000,0.12000
271125_15.02.53.763,0.02200,-0.05500,0.99300,0.05300,-0.14000,-0.07000,-0.64600,0.34700,-0.41800,217.42000,0.30000
271125_15.02.53.775,0.02200,-0.05500,0.99300,0.03500,-0.08700,-0.05300,-0.65200,0.34500,-0.41500,216.64000,-0.78000
271125_15.02.53.787,0.02200,-0.05300,0.99400,0.01800,-0.07000,-0.05300,-0.65100,0.34600,-0.42400,217.14000,0.50000
271125_15.02.53.798,0.02200,-0.05400,0.99200,0.03500,-0.10500,-0.03500,-0.64700,0.34400,-0.42500,217.93000,0.79000
271125_15.02.53.810,0.02400,-0.05300,0.99200,0.07000,-0.14000,-0.05300,-0.65000,0.34300,-0.42100,217.26000,-0.67000
271125_15.02.53.822,0.02300,-0.05400,0.99100,0.07000,-0.15700,-0.03500,-0.65000,0.34300,-0.42100,216.79000,-0.47000
271125_15.02.53.833,0.02300,-0.05400,0.99200,0.07000,-0.14000,-0.05300,-0.65300,0.34400,-0.41200,217.03000,0.24000
271125_15.02.53.845,0.02300,-0.05400,0.99200,0.07000,-0.10500,-0.05300,-0.65500,0.34300,-0.41400,216.92000,-0.11000
271125_15.02.53.856,0.02200,-0.05400,0.99400,0.03500,-0.10500,-0.05300,-0.65300,0.34400,-0.42100,216.46000,-0.46000
271125_15.02.53.868,0.02200,-0.05400,0.99300,0.05300,-0.12300,-0.05300,-0.65300,0.34400,-0.42100,217.09000,0.63000
271125_15.02.53.880,0.02200,-0.05300,0.99200,0.08700,-0.14000,-0.07000,-0.65000,0.34900,-0.41300,216.86000,-0.23000
271125_15.02.53.891,0.02200,-0.05300,0.99100,0.07000,-0.12300,-0.05300,-0.65100,0.34600,-0.41200,217.31000,0.45000
271125_15.02.53.903,0.02300,-0.05500,0.99200,0.05300,-0.14000,-0.05300,-0.64800,0.35000,-0.41500,216.91000,-0.40000
271125_15.02.53.915,0.02300,-0.05500,0.99400,0.05300,-0.14000,-0.05300,-0.64700,0.34900,-0.42000,216.19000,-0.72000
271125_15.02.53.926,0.02200,-0.05300,0.99200,0.05300,-0.12300,-0.07000,-0.64700,0.34900,-0.42000,216.95000,0.76000
271125_15.02.53.938,0.02200,-0.05400,0.99200,0.03500,-0.08700,-0.03500,-0.65100,0.34800,-0.41500,216.31000,-0.64000
271125_15.02.53.950,0.02100,-0.05400,0.99200,0.07000,-0.14000,-0.05300,-0.64400,0.35000,-0.41300,217.15000,0.84000
271125_15.02.53.961,0.02300,-0.05400,0.99200,0.07000,-0.12300,-0.01800,-0.64700,0.34400,-0.41200,216.56000,-0.59000
271125_15.02.53.973,0.02300,-0.05400,0.99400,0.07000,-0.10500,-0.05300,-0.64700,0.34400,-0.41200,216.78000,0.22000
271125_15.02.53.985,0.02200,-0.05400,0.99100,0.07000,-0.10500,-0.05300,-0.64800,0.34900,-0.41200,216.80000,0.02000
271125_15.02.53.997,0.02300,-0.05300,0.99400,0.05300,-0.12300,-0.07000,-0.64700,0.34800,-0.40900,217.08000,0.28000
271125_15.02.54.008,0.02300,-0.05300,0.99400,0.03500,-0.14000,-0.05300,-0.65000,0.34900,-0.41100,217.57000,0.49000
271125_15.02.54.020,0.02100,-0.05400,0.99300,0.03500,-0.10500,-0.03500,-0.64800,0.34800,-0.40500,217.03000,-0.54000
271125_15.02.54.032,0.02100,-0.05400,0.99200,0.05300,-0.10500,-0.05300,-0.64800,0.34800,-0.40500,216.91000,-0.12000
271125_15.02.54.043,0.02200,-0.05300,0.99200,0.05300,-0.08700,-0.03500,-0.64600,0.34600,-0.41000,216.24000,-0.67000
271125_15.02.54.055,0.02200,-0.05400,0.99200,0.07000,-0.10500,-0.05300,-0.64400,0.34800,-0.41500,217.05000,0.81000
271125_15.02.54.067,0.02200,-0.05400,0.99200,0.05300,-0.10500,-0.05300,-0.64700,0.34600,-0.41600,215.71000,-1.34000
271125_15.02.54.078,0.02200,-0.05300,0.99300,0.05300,-0.10500,-0.05300,-0.65000,0.34600,-0.40800,217.39000,1.68000
271125_15.02.54.090,0.02300,-0.05300,0.99200,0.05300,-0.12300,-0.07000,-0.65000,0.34600,-0.40800,216.96000,-0.43000
271125_15.02.54.102,0.02300,-0.05400,0.99400,0.07000,-0.14000,-0.07000,-0.64700,0.34800,-0.41600,217.56000,0.60000
271125_15.02.54.114,0.02300,-0.05500,0.99200,0.07000,-0.14000,-0.05300,-0.64600,0.34700,-0.41600,217.08000,-0.48000
271125_15.02.54.126,0.02300,-0.05400,0.99200,0.07000,-0.12300,-0.03500,-0.64500,0.34800,-0.42000,218.04000,0.96000
271125_15.02.54.137,0.02200,-0.05300,0.99200,0.07000,-0.10500,-0.03500,-0.64500,0.34800,-0.42000,216.43000,-1.61000
271125_15.02.54.149,0.02200,-0.05400,0.99300,0.05300,-0.08700,-0.05300,-0.65000,0.35000,-0.41400,217.52000,1.09000
271125_15.02.54.161,0.02300,-0.05300,0.99200,0.08700,-0.12300,-0.05300,-0.64400,0.34900,-0.41200,216.97000,-0.55000
271125_15.02.54.173,0.02300,-0.05400,0.99200,0.05300,-0.12300,-0.03500,-0.64500,0.35200,-0.41400,217.24000,0.27000
271125_15.02.54.185,0.02300,-0.05300,0.99200,0.08700,-0.14000,-0.05300,-0.65000,0.34800,-0.42000,216.55000,-0.69000
271125_15.02.54.196,0.02200,-0.05400,0.99100,0.08700,-0.12300,-0.07000,-0.65000,0.34800,-0.42000,217.79000,1.24000
271125_15.02.54.208,0.02200,-0.05400,0.99200,0.07000,-0.12300,-0.05300,-0.64600,0.34900,-0.42100,216.67000,-1.12000
271125_15.02.54.220,0.02200,-0.05400,0.99400,0.07000,-0.10500,-0.03500,-0.64300,0.34800,-0.41700,216.60000,-0.07000
271125_15.02.54.231,0.02300,-0.05300,0.99300,0.07000,-0.10500,-0.07000,-0.64500,0.34900,-0.41300,216.96000,0.36000
271125_15.02.54.243,0.02200,-0.05400,0.99200,0.05300,-0.10500,-0.05300,-0.64500,0.34900,-0.41300,216.59000,-0.37000
271125_15.02.54.255,0.02200,-0.05500,0.99200,0.07000,-0.15700,-0.05300,-0.64400,0.35200,-0.41300,217.14000,0.55000
271125_15.02.54.266,0.02200,-0.05400,0.99300,0.10500,-0.12300,-0.07000,-0.64400,0.34700,-0.40800,216.89000,-0.25000
271125_15.02.54.278,0.02200,-0.05400,0.99300,0.08700,-0.10500,-0.03500,-0.64600,0.34900,-0.41000,216.59000,-0.30000
271125_15.02.54.290,0.02300,-0.05200,0.99300,0.07000,-0.10500,-0.05300,-0.64200,0.34900,-0.42100,216.75000,0.16000
271125_15.02.54.301,0.02300,-0.05300,0.99400,0.08700,-0.08700,-0.05300,-0.64200,0.34900,-0.42100,216.78000,0.03000
271125_15.02.54.313,0.02300,-0.05400,0.99300,0.07000,-0.10500,-0.07000,-0.64500,0.34400,-0.42400,216.85000,0.07000
271125_15.02.54.325,0.02200,-0.05500,0.99100,0.07000,-0.10500,-0.05300,-0.64300,0.34900,-0.41700,216.47000,-0.38000
271125_15.02.54.336,0.02200,-0.05400,0.99300,0.05300,-0.12300,-0.03500,-0.64500,0.34700,-0.41000,216.73000,0.26000
271125_15.02.54.348,0.02200,-0.05300,0.99200,0.08700,-0.15700,-0.05300,-0.64500,0.34700,-0.42200,217.22000,0.49000
271125_15.02.54.360,0.02300,-0.05500,0.99200,0.07000,-0.12300,-0.05300,-0.64500,0.34800,-0.42200,217.33000,0.11000
271125_15.02.54.371,0.02300,-0.05300,0.99300,0.07000,-0.10500,-0.05300,-0.64700,0.34900,-0.41700,216.97000,-0.36000
271125_15.02.54.383,0.02200,-0.05400,0.99200,0.07000,-0.08700,-0.05300,-0.64400,0.35000,-0.41300,216.60000,-0.37000
271125_15.02.54.395,0.02200,-0.05300,0.99400,0.07000,-0.08700,-0.07000,-0.64400,0.34800,-0.40900,217.24000,0.64000
271125_15.02.54.407,0.02200,-0.05400,0.99200,0.08700,-0.12300,-0.07000,-0.64400,0.34800,-0.40900,216.88000,-0.36000
271125_15.02.54.418,0.02200,-0.05400,0.99300,0.08700,-0.12300,-0.05300,-0.64300,0.34700,-0.40300,216.96000,0.08000
271125_15.02.54.430,0.02200,-0.05400,0.99200,0.05300,-0.12300,-0.05300,-0.64400,0.35000,-0.41400,217.00000,0.04000
271125_15.02.54.442,0.02300,-0.05400,0.99300,0.07000,-0.10500,-0.05300,-0.64900,0.35100,-0.41500,216.95000,-0.05000
271125_15.02.54.454,0.02300,-0.05400,0.99400,0.08700,-0.14000,-0.05300,-0.64700,0.34600,-0.41000,216.73000,-0.22000
271125_15.02.54.465,0.02100,-0.05400,0.99200,0.07000,-0.10500,-0.05300,-0.64700,0.34600,-0.41000,216.55000,-0.18000
271125_15.02.54.477,0.02100,-0.05500,0.99200,0.05300,-0.10500,-0.05300,-0.64400,0.34900,-0.40400,216.75000,0.20000
271125_15.02.54.488,0.02300,-0.05300,0.99100,0.03500,-0.12300,-0.05300,-0.64700,0.34700,-0.40200,216.81000,0.06000
271125_15.02.54.500,0.02200,-0.05400,0.99300,0.07000,-0.08700,-0.05300,-0.64700,0.34700,-0.40600,216.74000,-0.07000
271125_15.02.54.512,0.02300,-0.05400,0.99200,0.07000,-0.12300,-0.05300,-0.64700,0.34700,-0.40600,216.88000,0.14000
271125_15.02.54.523,0.02300,-0.05300,0.99300,0.05300,-0.08700,-0.07000,-0.64700,0.35000,-0.40600,217.12000,0.24000
271125_15.02.54.535,0.02300,-0.05300,0.99200,0.05300,-0.08700,-0.05300,-0.64500,0.34600,-0.40700,216.36000,-0.76000
271125_15.02.54.547,0.02200,-0.05300,0.99100,0.05300,-0.10500,-0.03500,-0.64500,0.34800,-0.40900,216.93000,0.57000
271125_15.02.54.559,0.02200,-0.05300,0.99300,0.07000,-0.14000,-0.03500,-0.65000,0.34600,-0.40700,216.92000,-0.01000
271125_15.02.54.570,0.02200,-0.05400,0.99200,0.07000,-0.10500,-0.05300,-0.65000,0.34600,-0.40700,217.67000,0.75000
271125_15.02.54.582,0.02200,-0.05300,0.99200,0.05300,-0.14000,-0.05300,-0.64900,0.34500,-0.40900,216.88000,-0.79000
271125_15.02.54.594,0.02200,-0.05300,0.99300,0.03500,-0.12300,-0.05300,-0.64600,0.34700,-0.41500,216.83000,-0.05000
271125_15.02.54.605,0.02400,-0.05300,0.99300,0.05300,-0.10500,-0.05300,-0.64900,0.34500,-0.40600,216.43000,-0.40000
271125_15.02.54.617,0.02200,-0.05300,0.99200,0.05300,-0.12300,-0.05300,-0.64900,0.34500,-0.40600,217.10000,0.67000
271125_15.02.54.629,0.02200,-0.05400,0.99300,0.08700,-0.12300,-0.05300,-0.64600,0.34800,-0.40500,217.24000,0.14000
271125_15.02.54.640,0.02300,-0.05400,0.99300,0.07000,-0.12300,-0.05300,-0.64800,0.34700,-0.40900,217.16000,-0.08000
271125_15.02.54.652,0.02200,-0.05300,0.99400,0.05300,-0.14000,-0.01800,-0.64600,0.34500,-0.41200,217.38000,0.22000
271125_15.02.54.663,0.02200,-0.05400,0.99200,0.07000,-0.12300,-0.03500,-0.65200,0.34400,-0.40800,217.89000,0.51000
271125_15.02.54.675,0.02200,-0.05500,0.99200,0.07000,-0.12300,-0.03500,-0.65200,0.34400,-0.40800,216.63000,-1.26000
271125_15.02.54.687,0.02200,-0.05300,0.99200,0.07000,-0.10500,-0.05300,-0.64600,0.34400,-0.40100,216.68000,0.05000
271125_15.02.54.698,0.02300,-0.05400,0.99300,0.05300,-0.10500,-0.05300,-0.64800,0.34500,-0.41200,217.45000,0.77000
271125_15.02.54.710,0.02300,-0.05300,0.99200,0.07000,-0.12300,-0.05300,-0.64900,0.34800,-0.40800,216.79000,-0.66000
271125_15.02.54.722,0.02200,-0.05400,0.99200,0.07000,-0.14000,-0.05300,-0.64900,0.34800,-0.40900,217.52000,0.73000
271125_15.02.54.733,0.02400,-0.05300,0.99400,0.07000,-0.12300,-0.03500,-0.64700,0.34600,-0.40900,217.40000,-0.12000
271125_15.02.54.745,0.02300,-0.05400,0.99300,0.08700,-0.12300,-0.07000,-0.64600,0.34600,-0.40900,216.83000,-0.57000
271125_15.02.54.757,0.02300,-0.05300,0.99200,0.05300,-0.10500,-0.03500,-0.64800,0.34800,-0.41100,216.74000,-0.09000
271125_15.02.54.768,0.02300,-0.05500,0.99300,0.05300,-0.12300,-0.05300,-0.64700,0.34600,-0.41300,216.71000,-0.03000
271125_15.02.54.780,0.02400,-0.05400,0.99300,0.05300,-0.12300,-0.03500,-0.64700,0.34600,-0.41300,216.98000,0.27000
271125_15.02.54.792,0.02300,-0.05200,0.99200,0.07000,-0.12300,-0.03500,-0.64800,0.35100,-0.41200,216.90000,-0.08000
271125_15.02.54.803,0.02300,-0.05300,0.99200,0.07000,-0.12300,-0.05300,-0.64400,0.34700,-0.41300,217.33000,0.43000
271125_15.02.54.815,0.02200,-0.05300,0.99300,0.05300,-0.10500,-0.03500,-0.65100,0.34800,-0.41400,216.89000,-0.44000
271125_15.02.54.826,0.02200,-0.05400,0.99200,0.05300,-0.10500,-0.05300,-0.65300,0.34400,-0.41500,216.12000,-0.77000
271125_15.02.54.838,0.02200,-0.05300,0.99300,0.07000,-0.10500,-0.05300,-0.65300,0.34400,-0.41500,216.85000,0.73000
271125_15.02.54.850,0.02200,-0.05400,0.99200,0.07000,-0.12300,-0.05300,-0.64900,0.34500,-0.41300,216.90000,0.05000
271125_15.02.54.861,0.02300,-0.05400,0.99200,0.07000,-0.12300,-0.05300,-0.64900,0.34900,-0.41100,217.30000,0.40000
271125_15.02.54.873,0.02200,-0.05400,0.99300,0.07000,-0.10500,-0.05300,-0.64800,0.34700,-0.41100,217.62000,0.32000
271125_15.02.54.885,0.02300,-0.05400,0.99300,0.08700,-0.10500,-0.05300,-0.64800,0.34700,-0.41100,216.69000,-0.93000
271125_15.02.54.896,0.02300,-0.05200,0.99200,0.07000,-0.12300,-0.05300,-0.64600,0.34300,-0.41900,216.61000,-0.08000
271125_15.02.54.908,0.02300,-0.05300,0.99200,0.07000,-0.12300,-0.07000,-0.64800,0.34500,-0.41400,216.10000,-0.51000
271125_15.02.54.920,0.02300,-0.05300,0.99200,0.07000,-0.12300,-0.03500,-0.65200,0.34800,-0.41600,216.85000,0.75000
271125_15.02.54.931,0.02200,-0.05400,0.99200,0.07000,-0.12300,-0.05300,-0.65400,0.34700,-0.41700,217.14000,0.29000
271125_15.02.54.943,0.02100,-0.05400,0.99500,0.08700,-0.12300,-0.03500,-0.65400,0.34700,-0.41700,217.27000,0.13000
271125_15.02.54.955,0.02200,-0.05400,0.99300,0.07000,-0.10500,-0.05300,-0.65200,0.35100,-0.41000,217.07000,-0.20000
271125_15.02.54.966,0.02200,-0.05300,0.99500,0.07000,-0.14000,-0.05300,-0.65100,0.34500,-0.41200,217.25000,0.18000
271125_15.02.54.978,0.02200,-0.05400,0.99300,0.07000,-0.14000,-0.07000,-0.65100,0.35000,-0.41400,216.66000,-0.59000
271125_15.02.54.990,0.02300,-0.05400,0.99200,0.10500,-0.14000,-0.05300,-0.65100,0.35000,-0.41400,216.73000,0.07000
271125_15.02.55.001,0.02200,-0.05400,0.99300,0.10500,-0.15700,-0.05300,-0.65200,0.34600,-0.41300,216.96000,0.23000
271125_15.02.55.013,0.02200,-0.05400,0.99200,0.08700,-0.15700,-0.05300,-0.65100,0.34600,-0.41800,216.85000,-0.11000
271125_15.02.55.025,0.02400,-0.05300,0.99200,0.12300,-0.17500,-0.05300,-0.64700,0.34900,-0.41400,217.33000,0.48000
271125_15.02.55.036,0.02200,-0.05300,0.99300,0.12300,-0.17500,-0.05300,-0.64800,0.34800,-0.41400,217.00000,-0.33000
271125_15.02.55.048,0.02200,-0.05300,0.99100,0.10500,-0.14000,-0.05300,-0.64800,0.34800,-0.41400,216.84000,-0.16000
271125_15.02.55.059,0.02300,-0.05300,0.99200,0.08700,-0.17500,-0.05300,-0.64800,0.34600,-0.41400,217.15000,0.31000
271125_15.02.55.071,0.02300,-0.05300,0.99300,0.07000,-0.14000,-0.05300,-0.64800,0.34200,-0.41000,217.03000,-0.12000
271125_15.02.55.082,0.02500,-0.05400,0.98700,0.05300,-0.14000,-0.03500,-0.65200,0.34600,-0.41100,217.04000,0.01000
271125_15.02.55.094,0.02200,-0.05200,0.99600,0.10500,-0.15700,-0.05300,-0.65200,0.34600,-0.41000,216.75000,-0.29000
271125_15.02.55.105,0.02100,-0.05400,0.99700,0.01800,-0.07000,-0.03500,-0.65200,0.34600,-0.41000,216.86000,0.11000
271125_15.02.55.117,0.02200,-0.05300,0.99000,0.07000,-0.12300,-0.05300,-0.64700,0.34600,-0.40900,217.17000,0.31000
271125_15.02.55.128,0.02200,-0.05200,0.99200,0.07000,-0.12300,-0.05300,-0.64400,0.34500,-0.41300,217.15000,-0.02000
271125_15.02.55.139,0.02300,-0.05300,0.99100,0.07000,-0.08700,-0.05300,-0.64800,0.34800,-0.41200,216.93000,-0.22000
271125_15.02.55.151,0.02200,-0.05300,0.99200,0.05300,-0.10500,-0.07000,-0.64800,0.34800,-0.41200,216.55000,-0.38000
271125_15.02.55.162,0.02300,-0.05400,0.99100,0.03500,-0.10500,-0.05300,-0.64800,0.34800,-0.41000,216.92000,0.37000
271125_15.02.55.174,0.02300,-0.05300,0.99300,0.05300,-0.12300,-0.05300,-0.64900,0.34800,-0.40900,216.78000,-0.14000
271125_15.02.55.186,0.02100,-0.05400,0.99300,0.07000,-0.14000,-0.03500,-0.64400,0.34500,-0.40300,217.12000,0.34000
271125_15.02.55.197,0.02300,-0.05400,0.99200,0.12300,-0.17500,-0.05300,-0.64400,0.34300,-0.41100,217.01000,-0.11000
271125_15.02.55.209,0.02300,-0.05300,0.99200,0.12300,-0.17500,-0.07000,-0.64400,0.34300,-0.41100,216.68000,-0.33000
271125_15.02.55.221,0.02300,-0.05200,0.99200,0.10500,-0.14000,-0.05300,-0.64600,0.34500,-0.41500,217.13000,0.45000
271125_15.02.55.232,0.02300,-0.05200,0.99100,0.07000,-0.10500,-0.07000,-0.64900,0.34400,-0.41100,216.99000,-0.14000
271125_15.02.55.243,0.02200,-0.05300,0.99200,0.08700,-0.12300,-0.05300,-0.64500,0.34600,-0.41300,216.87000,-0.12000
271125_15.02.55.255,0.02400,-0.05300,0.99700,0.05300,-0.08700,-0.05300,-0.64500,0.34600,-0.41300,216.66000,-0.21000
271125_15.02.55.267,0.02300,-0.05400,0.99100,0.00000,-0.14000,-0.05300,-0.64800,0.34400,-0.41000,217.83000,1.17000
271125_15.02.55.278,0.02100,-0.05300,0.99000,0.08700,-0.14000,-0.05300,-0.64400,0.34600,-0.41800,217.06000,-0.77000
271125_15.02.55.290,0.02200,-0.05400,0.99300,0.03500,-0.08700,-0.05300,-0.64500,0.34500,-0.41200,217.21000,0.15000
271125_15.02.55.301,0.02200,-0.05300,0.99300,0.07000,-0.10500,-0.05300,-0.64600,0.35300,-0.41300,216.94000,-0.27000
271125_15.02.55.313,0.02300,-0.05400,0.99300,0.05300,-0.10500,-0.05300,-0.64600,0.35300,-0.41300,216.91000,-0.03000
271125_15.02.55.324,0.02300,-0.05400,0.99000,0.05300,-0.10500,-0.05300,-0.64700,0.34900,-0.41500,216.66000,-0.25000
271125_15.02.55.336,0.02200,-0.05500,0.99300,0.08700,-0.10500,-0.05300,-0.64900,0.34600,-0.41500,217.10000,0.44000
271125_15.02.55.347,0.02200,-0.05400,0.99100,0.08700,-0.15700,-0.05300,-0.64500,0.34600,-0.41000,216.68000,-0.42000
271125_15.02.55.359,0.02200,-0.05300,0.99200,0.07000,-0.14000,-0.03500,-0.64500,0.34600,-0.41000,217.09000,0.41000
271125_15.02.55.370,0.02100,-0.05300,0.99300,0.05300,-0.12300,-0.07000,-0.64500,0.34600,-0.41200,216.91000,-0.18000
271125_15.02.55.382,0.02200,-0.05400,0.99300,0.03500,-0.12300,-0.05300,-0.64800,0.34100,-0.41200,216.64000,-0.27000
271125_15.02.55.394,0.02200,-0.05300,0.99200,0.08700,-0.14000,-0.05300,-0.64700,0.34200,-0.40500,216.64000,0.00000
271125_15.02.55.405,0.02200,-0.05300,0.99300,0.07000,-0.12300,-0.05300,-0.64800,0.34900,-0.41200,216.75000,0.11000
271125_15.02.55.417,0.02200,-0.05300,0.99100,0.08700,-0.12300,-0.03500,-0.64800,0.34900,-0.41200,217.06000,0.31000
271125_15.02.55.429,0.02300,-0.05300,0.99100,0.08700,-0.14000,-0.03500,-0.64900,0.34300,-0.40900,217.50000,0.44000
271125_15.02.55.440,0.02200,-0.05400,0.99300,0.07000,-0.08700,-0.05300,-0.64600,0.34200,-0.40700,216.79000,-0.71000
271125_15.02.55.452,0.02300,-0.05300,0.99300,0.01800,-0.08700,-0.05300,-0.64500,0.34600,-0.41200,217.02000,0.23000
271125_15.02.55.464,0.02300,-0.05300,0.99100,0.05300,-0.10500,-0.05300,-0.64500,0.34700,-0.42400,216.97000,-0.05000
271125_15.02.55.475,0.02200,-0.05400,0.99200,0.03500,-0.12300,-0.05300,-0.65000,0.34700,-0.42400,217.33000,0.36000
271125_15.02.55.487,0.02300,-0.05300,0.99100,0.05300,-0.12300,-0.07000,-0.64600,0.34700,-0.41600,217.30000,-0.03000
271125_15.02.55.499,0.02300,-0.05400,0.99100,0.05300,-0.14000,-0.05300,-0.65000,0.34400,-0.41000,216.81000,-0.49000
271125_15.02.55.510,0.02400,-0.05400,0.99400,0.03500,-0.12300,-0.03500,-0.65000,0.34400,-0.41500,215.91000,-0.90000
271125_15.02.55.522,0.02200,-0.05400,0.99500,0.01800,-0.07000,-0.01800,-0.65000,0.34400,-0.41500,216.84000,0.93000
271125_15.02.55.533,0.02300,-0.05300,0.99400,0.01800,-0.08700,-0.03500,-0.64800,0.34700,-0.41900,217.22000,0.38000
271125_15.02.55.545,0.02200,-0.05300,0.99100,0.05300,-0.12300,-0.05300,-0.64900,0.34600,-0.40800,217.39000,0.17000
271125_15.02.55.556,0.02100,-0.05400,0.99100,0.08700,-0.15700,-0.03500,-0.64700,0.34800,-0.41100,216.73000,-0.66000
271125_15.02.55.567,0.02300,-0.05400,0.99200,0.07000,-0.15700,-0.05300,-0.64600,0.34200,-0.40700,217.63000,0.90000
271125_15.02.55.579,0.02200,-0.05400,0.99300,0.03500,-0.10500,-0.05300,-0.64600,0.34200,-0.40700,217.22000,-0.41000
271125_15.02.55.591,0.02200,-0.05300,0.99300,0.00000,-0.07000,-0.07000,-0.64400,0.34500,-0.40900,216.80000,-0.42000
271125_15.02.55.603,0.02100,-0.05400,0.99400,0.01800,-0.07000,-0.05300,-0.64700,0.35000,-0.41600,217.13000,0.33000
271125_15.02.55.614,0.02200,-0.05300,0.99300,0.07000,-0.15700,-0.05300,-0.64500,0.34500,-0.41000,217.03000,-0.10000
271125_15.02.55.626,0.02300,-0.05400,0.99400,0.08700,-0.14000,-0.03500,-0.64500,0.34500,-0.41000,216.56000,-0.47000
271125_15.02.55.637,0.02200,-0.05300,0.99100,0.07000,-0.12300,-0.05300,-0.64500,0.34300,-0.41100,216.99000,0.43000
271125_15.02.55.648,0.02100,-0.05400,0.99300,0.03500,-0.12300,-0.03500,-0.64900,0.34800,-0.41500,217.11000,0.12000
271125_15.02.55.660,0.02200,-0.05400,0.99400,0.01800,-0.10500,-0.05300,-0.64600,0.34700,-0.42000,217.06000,-0.05000
271125_15.02.55.671,0.02200,-0.05400,0.99200,0.07000,-0.12300,-0.03500,-0.64400,0.34400,-0.41700,217.25000,0.19000
271125_15.02.55.683,0.02200,-0.05300,0.99100,0.10500,-0.15700,-0.05300,-0.64400,0.34400,-0.41700,216.82000,-0.43000
271125_15.02.55.694,0.02300,-0.05300,0.99200,0.12300,-0.15700,-0.05300,-0.64900,0.34600,-0.41300,217.02000,0.20000
271125_15.02.55.706,0.02200,-0.05300,0.99300,0.07000,-0.14000,-0.03500,-0.64600,0.34800,-0.41200,216.98000,-0.04000
271125_15.02.55.717,0.02200,-0.05300,0.99300,0.03500,-0.07000,-0.03500,-0.64300,0.34700,-0.41900,216.79000,-0.19000
271125_15.02.55.729,0.02100,-0.05500,0.99300,0.01800,-0.07000,-0.03500,-0.64300,0.34700,-0.41900,217.11000,0.32000
271125_15.02.55.741,0.02300,-0.05300,0.99400,0.03500,-0.08700,-0.05300,-0.65000,0.34500,-0.42200,216.27000,-0.84000
271125_15.02.55.752,0.02200,-0.05400,0.99000,0.05300,-0.10500,-0.05300,-0.64700,0.34500,-0.41200,216.93000,0.66000
271125_15.02.55.764,0.02100,-0.05400,0.99000,0.08700,-0.14000,-0.05300,-0.64800,0.34400,-0.41200,216.99000,0.06000
271125_15.02.55.775,0.02300,-0.05400,0.99200,0.07000,-0.14000,-0.07000,-0.64800,0.34600,-0.41100,216.78000,-0.21000
271125_15.02.55.787,0.02200,-0.05300,0.99300,0.05300,-0.08700,-0.05300,-0.64800,0.34600,-0.41100,216.55000,-0.23000
271125_15.02.55.799,0.02200,-0.05500,0.99300,0.03500,-0.08700,-0.03500,-0.64700,0.34700,-0.41400,217.30000,0.75000
271125_15.02.55.810,0.02300,-0.05500,0.99200,0.08700,-0.10500,-0.05300,-0.64400,0.34600,-0.41300,216.86000,-0.44000
271125_15.02.55.822,0.02200,-0.05300,0.99300,0.10500,-0.14000,-0.05300,-0.65000,0.34600,-0.40700,216.74000,-0.12000
271125_15.02.55.834,0.02100,-0.05300,0.99200,0.08700,-0.15700,-0.05300,-0.65300,0.34800,-0.41300,217.22000,0.48000
271125_15.02.55.845,0.02100,-0.05400,0.99300,0.05300,-0.14000,-0.05300,-0.65300,0.34800,-0.41300,216.81000,-0.41000
271125_15.02.55.857,0.02200,-0.05400,0.99200,0.03500,-0.10500,-0.05300,-0.64900,0.34600,-0.41000,216.78000,-0.03000
271125_15.02.55.869,0.02200,-0.05300,0.99200,0.03500,-0.08700,-0.05300,-0.64800,0.34700,-0.41300,217.17000,0.39000
271125_15.02.55.880,0.02200,-0.05400,0.99300,0.05300,-0.14000,-0.01800,-0.64400,0.34500,-0.40900,216.83000,-0.34000
271125_15.02.55.892,0.02200,-0.05400,0.99300,0.07000,-0.14000,-0.05300,-0.64400,0.34500,-0.40900,216.67000,-0.16000
271125_15.02.55.904,0.02300,-0.05300,0.99100,0.10500,-0.15700,-0.03500,-0.64700,0.34500,-0.40500,216.74000,0.07000
271125_15.02.55.915,0.02300,-0.05300,0.99200,0.07000,-0.12300,-0.07000,-0.64900,0.34800,-0.41300,216.58000,-0.16000
271125_15.02.55.927,0.02100,-0.05300,0.99300,0.01800,-0.07000,-0.05300,-0.64600,0.34800,-0.41000,217.31000,0.73000
271125_15.02.55.939,0.02100,-0.05300,0.99300,0.01800,-0.08700,-0.05300,-0.64300,0.34300,-0.40800,216.79000,-0.52000
271125_15.02.55.951,0.02100,-0.05400,0.99100,0.05300,-0.12300,-0.05300,-0.64300,0.34300,-0.40800,216.33000,-0.46000
271125_15.02.55.962,0.02300,-0.05400,0.99100,0.08700,-0.14000,-0.05300,-0.64600,0.34500,-0.41500,216.51000,0.18000
271125_15.02.55.974,0.02300,-0.05400,0.99300,0.08700,-0.12300,-0.03500,-0.64400,0.34700,-0.41300,216.62000,0.11000
271125_15.02.55.985,0.02300,-0.05400,0.99200,0.03500,-0.12300,-0.05300,-0.64500,0.34700,-0.41500,216.90000,0.28000
271125_15.02.55.997,0.02300,-0.05200,0.99000,0.05300,-0.10500,-0.07000,-0.64500,0.34700,-0.41500,217.47000,0.57000
271125_15.02.56.008,0.02200,-0.05400,0.99100,0.08700,-0.14000,-0.03500,-0.64200,0.34700,-0.41500,217.58000,0.11000
271125_15.02.56.020,0.02200,-0.05300,0.98700,0.08700,-0.14000,-0.03500,-0.64400,0.34700,-0.40700,217.16000,-0.42000
271125_15.02.56.031,0.02300,-0.05200,0.98300,0.08700,-0.14000,-0.03500,-0.64600,0.34500,-0.41800,216.68000,-0.48000
271125_15.02.56.042,0.02300,-0.05300,0.99300,0.08700,-0.12300,-0.01800,-0.64500,0.34800,-0.41800,217.30000,0.62000
271125_15.02.56.054,0.02300,-0.05500,1.01000,-0.07000,-0.01800,-0.01800,-0.64500,0.34800,-0.41800,217.00000,-0.30000
271125_15.02.56.066,0.02100,-0.05600,1.00400,-0.22800,0.14000,-0.03500,-0.64600,0.34800,-0.41200,217.42000,0.42000
271125_15.02.56.077,0.02000,-0.05400,0.98900,-0.08700,0.05300,-0.07000,-0.64300,0.34600,-0.41600,217.21000,-0.21000
271125_15.02.56.089,0.02300,-0.05400,0.98700,0.21000,-0.28000,-0.07000,-0.64500,0.35000,-0.41600,217.30000,0.09000
271125_15.02.56.101,0.02300,-0.05300,0.99000,0.24500,-0.31500,-0.07000,-0.64500,0.35000,-0.42100,217.27000,-0.03000
271125_15.02.56.112,0.02300,-0.05500,0.99100,0.10500,-0.15700,-0.05300,-0.64500,0.34800,-0.42100,216.88000,-0.39000
271125_15.02.56.124,0.02300,-0.05300,0.98800,-0.05300,-0.01800,-0.05300,-0.64700,0.35200,-0.41400,216.88000,0.00000
271125_15.02.56.136,0.02300,-0.05400,0.99000,0.03500,-0.08700,-0.03500,-0.64700,0.34800,-0.41000,216.64000,-0.24000
271125_15.02.56.147,0.02200,-0.05500,0.99600,0.15700,-0.21000,-0.03500,-0.64300,0.34600,-0.42000,217.55000,0.91000
271125_15.02.56.159,0.02300,-0.05400,0.98900,0.22800,-0.28000,-0.05300,-0.64300,0.34600,-0.42000,216.92000,-0.63000
271125_15.02.56.171,0.02300,-0.05300,0.98700,0.14000,-0.21000,-0.05300,-0.64700,0.34600,-0.41500,216.39000,-0.53000
271125_15.02.56.182,0.02300,-0.05400,0.99200,-0.01800,-0.07000,-0.03500,-0.64400,0.34800,-0.41800,216.62000,0.23000
271125_15.02.56.194,0.02200,-0.05400,0.99700,-0.12300,0.03500,-0.01800,-0.64700,0.34700,-0.41600,216.63000,0.01000
271125_15.02.56.206,0.02300,-0.05600,0.99900,-0.12300,0.05300,-0.03500,-0.64900,0.34400,-0.41200,217.00000,0.37000
271125_15.02.56.218,0.02100,-0.05500,0.99300,-0.08700,0.03500,-0.03500,-0.64900,0.34400,-0.41200,216.71000,-0.29000
271125_15.02.56.229,0.02300,-0.05500,0.98800,0.05300,-0.10500,-0.05300,-0.64900,0.34100,-0.41700,217.11000,0.40000
271125_15.02.56.241,0.02400,-0.05300,0.99000,0.15700,-0.19200,-0.05300,-0.64600,0.34500,-0.41900,216.80000,-0.31000
271125_15.02.56.253,0.02100,-0.05200,0.99100,0.03500,-0.08700,-0.05300,-0.64800,0.34400,-0.41400,216.62000,-0.18000
271125_15.02.56.265,0.02400,-0.05300,0.99100,-0.07000,0.01800,-0.07000,-0.64800,0.34400,-0.41400,216.65000,0.03000
271125_15.02.56.276,0.02300,-0.05500,0.99500,-0.07000,0.00000,-0.03500,-0.64700,0.34800,-0.41600,216.57000,-0.08000
271125_15.02.56.288,0.02100,-0.05600,0.99800,0.01800,-0.03500,-0.05300,-0.64200,0.34800,-0.42200,216.35000,-0.22000
271125_15.02.56.300,0.02100,-0.05500,0.99400,0.12300,-0.19200,-0.05300,-0.64100,0.35000,-0.42500,217.78000,1.43000
271125_15.02.56.311,0.02200,-0.05300,0.98800,0.26200,-0.28000,-0.07000,-0.64800,0.34500,-0.42100,217.29000,-0.49000
271125_15.02.56.322,0.02300,-0.05200,0.99200,0.08700,-0.12300,-0.05300,-0.64800,0.34500,-0.42100,217.17000,-0.12000
271125_15.02.56.334,0.02200,-0.05400,0.99500,-0.07000,-0.01800,-0.03500,-0.64700,0.34600,-0.41100,217.13000,-0.04000
271125_15.02.56.345,0.02200,-0.05400,0.99400,-0.05300,0.00000,-0.03500,-0.64700,0.34600,-0.41000,216.75000,-0.38000
271125_15.02.56.357,0.02200,-0.05400,0.99100,0.01800,-0.08700,-0.03500,-0.64700,0.34700,-0.41400,216.37000,-0.38000
271125_15.02.56.368,0.02300,-0.05400,0.99100,0.14000,-0.17500,-0.05300,-0.64700,0.34700,-0.41400,217.27000,0.90000
271125_15.02.56.380,0.02200,-0.05500,0.99100,0.14000,-0.19200,-0.05300,-0.64800,0.35000,-0.42100,217.41000,0.14000
271125_15.02.56.391,0.02200,-0.05400,0.99400,0.03500,-0.07000,-0.03500,-0.64400,0.35100,-0.41200,217.34000,-0.07000
271125_15.02.56.403,0.02300,-0.05500,0.99500,-0.10500,0.05300,-0.03500,-0.64600,0.34900,-0.41000,216.52000,-0.82000
271125_15.02.56.414,0.02200,-0.05500,0.99400,-0.12300,0.03500,-0.05300,-0.65000,0.34800,-0.40900,216.68000,0.16000
271125_15.02.56.426,0.02100,-0.05500,0.99300,0.01800,-0.05300,-0.03500,-0.65000,0.34800,-0.40900,216.76000,0.08000
271125_15.02.56.437,0.02100,-0.05500,0.99200,0.12300,-0.15700,-0.05300,-0.65000,0.35100,-0.41600,216.89000,0.13000
271125_15.02.56.449,0.02300,-0.05400,0.99100,0.14000,-0.21000,-0.05300,-0.65000,0.34900,-0.41100,217.00000,0.11000
271125_15.02.56.460,0.02200,-0.05300,0.99200,0.10500,-0.17500,-0.07000,-0.64800,0.35200,-0.41400,217.02000,0.02000
271125_15.02.56.472,0.02200,-0.05500,0.99400,0.01800,-0.10500,-0.05300,-0.64800,0.35000,-0.41600,216.75000,-0.27000
271125_15.02.56.484,0.02400,-0.05400,0.99400,0.05300,-0.08700,-0.03500,-0.64800,0.35000,-0.41600,217.29000,0.54000
271125_15.02.56.496,0.02200,-0.05500,0.99500,0.17500,-0.21000,-0.03500,-0.64700,0.35400,-0.41400,217.55000,0.26000
271125_15.02.56.507,0.02200,-0.05400,0.99200,0.14000,-0.19200,-0.07000,-0.64800,0.35100,-0.40900,216.52000,-1.03000
271125_15.02.56.519,0.02300,-0.05500,0.99100,0.10500,-0.12300,-0.05300,-0.64400,0.35000,-0.41000,217.22000,0.70000
271125_15.02.56.530,0.02200,-0.05300,0.99500,0.05300,-0.12300,-0.07000,-0.64400,0.35000,-0.41000,217.07000,-0.15000
271125_15.02.56.542,0.02200,-0.05300,0.99400,-0.03500,-0.01800,-0.07000,-0.64300,0.35000,-0.40700,216.66000,-0.41000
271125_15.02.56.553,0.02400,-0.05500,0.99300,0.00000,-0.03500,-0.05300,-0.64500,0.35300,-0.41700,217.29000,0.63000
271125_15.02.56.565,0.02200,-0.05500,0.99200,0.07000,-0.10500,-0.07000,-0.64600,0.34900,-0.41500,216.75000,-0.54000
271125_15.02.56.576,0.02200,-0.05400,0.99000,0.08700,-0.14000,-0.07000,-0.64200,0.35000,-0.40800,217.50000,0.75000
271125_15.02.56.588,0.02200,-0.05400,0.99200,0.12300,-0.15700,-0.05300,-0.64200,0.35000,-0.40800,216.84000,-0.66000
271125_15.02.56.599,0.02200,-0.05500,0.99500,0.01800,-0.12300,-0.03500,-0.64300,0.34700,-0.40900,217.43000,0.59000
271125_15.02.56.611,0.02300,-0.05300,0.99200,-0.01800,-0.08700,-0.05300,-0.64500,0.34800,-0.40900,217.17000,-0.26000
271125_15.02.56.622,0.02200,-0.05500,0.99200,0.01800,-0.08700,-0.05300,-0.64500,0.34800,-0.41400,217.45000,0.28000
271125_15.02.56.634,0.02200,-0.05400,0.99400,0.10500,-0.14000,-0.05300,-0.64500,0.34800,-0.41400,217.01000,-0.44000
271125_15.02.56.645,0.02100,-0.05300,0.99300,0.12300,-0.17500,-0.03500,-0.64800,0.34800,-0.41000,216.90000,-0.11000
271125_15.02.56.656,0.02300,-0.05400,0.99200,0.07000,-0.12300,-0.05300,-0.64600,0.34600,-0.40500,217.13000,0.23000
271125_15.02.56.668,0.02300,-0.05400,0.99300,0.01800,-0.07000,-0.03500,-0.64500,0.35000,-0.41200,216.84000,-0.29000
271125_15.02.56.679,0.02100,-0.05400,0.99400,0.03500,-0.08700,-0.03500,-0.64800,0.34700,-0.42200,216.77000,-0.07000
271125_15.02.56.691,0.02300,-0.05400,0.99200,0.05300,-0.10500,-0.05300,-0.64800,0.34700,-0.42200,217.21000,0.44000
271125_15.02.56.702,0.02100,-0.05500,0.99200,0.07000,-0.12300,-0.03500,-0.64500,0.34700,-0.41600,217.44000,0.23000
271125_15.02.56.714,0.02200,-0.05300,0.99200,0.08700,-0.14000,-0.03500,-0.64700,0.34600,-0.40700,217.08000,-0.36000
271125_15.02.56.725,0.02200,-0.05400,0.99300,0.07000,-0.12300,-0.03500,-0.64500,0.34500,-0.41400,217.09000,0.01000
271125_15.02.56.737,0.02200,-0.05400,0.99400,0.03500,-0.10500,-0.03500,-0.64500,0.34500,-0.41400,217.05000,-0.04000
271125_15.02.56.748,0.02200,-0.05400,0.99400,0.03500,-0.07000,-0.07000,-0.64500,0.35100,-0.41600,216.77000,-0.28000
271125_15.02.56.760,0.02200,-0.05400,0.99100,0.05300,-0.10500,-0.05300,-0.64600,0.35300,-0.40900,216.33000,-0.44000
271125_15.02.56.771,0.02300,-0.05300,0.99100,0.10500,-0.15700,-0.03500,-0.64700,0.35300,-0.41700,216.93000,0.60000
271125_15.02.56.782,0.02100,-0.05400,0.99400,0.10500,-0.17500,-0.07000,-0.64700,0.35100,-0.40300,217.17000,0.24000
271125_15.02.56.794,0.02200,-0.05400,0.99300,0.07000,-0.12300,-0.07000,-0.64700,0.35100,-0.40300,216.78000,-0.39000
271125_15.02.56.805,0.02200,-0.05500,0.99300,0.01800,-0.08700,-0.01800,-0.64600,0.35000,-0.40900,217.36000,0.58000
271125_15.02.56.817,0.02200,-0.05400,0.99300,0.07000,-0.10500,-0.03500,-0.64600,0.35100,-0.41300,217.09000,-0.27000
271125_15.02.56.828,0.02200,-0.05500,0.99200,0.07000,-0.15700,-0.03500,-0.64700,0.35100,-0.41200,217.63000,0.54000
271125_15.02.56.840,0.02300,-0.05400,0.99300,0.07000,-0.12300,-0.07000,-0.64700,0.34700,-0.40900,217.17000,-0.46000
271125_15.02.56.852,0.02300,-0.05400,0.99200,0.05300,-0.08700,-0.05300,-0.64500,0.34700,-0.40900,216.84000,-0.33000
271125_15.02.56.863,0.02200,-0.05400,0.99400,0.03500,-0.07000,-0.05300,-0.64600,0.34900,-0.41600,217.09000,0.25000
271125_15.02.56.875,0.02200,-0.05300,0.99500,0.01800,-0.07000,-0.05300,-0.64300,0.35100,-0.41100,216.30000,-0.79000
271125_15.02.56.887,0.02200,-0.05400,0.99300,0.03500,-0.10500,-0.05300,-0.64500,0.35300,-0.41400,217.23000,0.93000
271125_15.02.56.898,0.02300,-0.05500,0.99200,0.05300,-0.14000,-0.05300,-0.64500,0.35300,-0.41400,216.47000,-0.76000
271125_15.02.56.910,0.02300,-0.05200,0.99300,0.08700,-0.12300,-0.05300,-0.64600,0.34900,-0.40900,217.05000,0.58000
271125_15.02.56.921,0.02400,-0.05300,0.99200,0.08700,-0.12300,-0.05300,-0.64900,0.34900,-0.41200,217.11000,0.06000
271125_15.02.56.933,0.02200,-0.05200,0.99300,0.05300,-0.10500,-0.07000,-0.64500,0.35000,-0.41600,216.91000,-0.20000
271125_15.02.56.945,0.02200,-0.05400,0.99200,0.03500,-0.10500,-0.05300,-0.64500,0.34600,-0.40900,216.88000,-0.03000
271125_15.02.56.956,0.02400,-0.05400,0.99100,0.08700,-0.14000,-0.05300,-0.64500,0.34600,-0.40900,216.71000,-0.17000
271125_15.02.56.967,0.02200,-0.05400,0.99200,0.12300,-0.15700,-0.05300,-0.64400,0.34900,-0.40700,216.97000,0.26000
271125_15.02.56.979,0.02300,-0.05400,0.99300,0.12300,-0.15700,-0.03500,-0.64300,0.35000,-0.40800,216.74000,-0.23000
271125_15.02.56.990,0.02300,-0.05400,0.99400,0.08700,-0.14000,-0.05300,-0.64200,0.35000,-0.40900,216.71000,-0.03000
271125_15.02.57.002,0.02100,-0.05300,0.99300,0.03500,-0.10500,-0.03500,-0.64200,0.35000,-0.40900,216.74000,0.03000
271125_15.02.57.014,0.02100,-0.05400,0.99400,0.05300,-0.12300,-0.03500,-0.64700,0.34800,-0.40900,215.84000,-0.90000
271125_15.02.57.025,0.02200,-0.05300,0.99100,0.07000,-0.12300,-0.03500,-0.64500,0.34900,-0.41100,217.39000,1.55000
271125_15.02.57.037,0.02300,-0.05300,0.99300,0.05300,-0.10500,-0.05300,-0.64400,0.34500,-0.40700,216.92000,-0.47000
271125_15.02.57.048,0.02200,-0.05300,0.99200,0.05300,-0.10500,-0.05300,-0.64400,0.34600,-0.41000,216.24000,-0.68000
271125_15.02.57.060,0.02300,-0.05500,0.99200,0.05300,-0.08700,-0.03500,-0.64400,0.34600,-0.41000,216.83000,0.59000
271125_15.02.57.071,0.02300,-0.05600,0.99200,0.01800,-0.07000,-0.08700,-0.64200,0.34700,-0.41800,216.86000,0.03000
271125_15.02.57.083,0.02200,-0.05400,0.99200,0.07000,-0.10500,-0.05300,-0.64300,0.34700,-0.41600,217.23000,0.37000
271125_15.02.57.094,0.02300,-0.05400,0.99200,0.10500,-0.14000,-0.05300,-0.64300,0.34700,-0.40800,216.50000,-0.73000
271125_15.02.57.106,0.02100,-0.05500,0.99300,0.08700,-0.12300,-0.05300,-0.64300,0.34700,-0.40800,217.49000,0.99000
271125_15.02.57.118,0.02300,-0.05300,0.99400,0.07000,-0.10500,-0.03500,-0.64400,0.34600,-0.41000,216.71000,-0.78000
271125_15.02.57.129,0.02200,-0.05400,0.99300,0.05300,-0.10500,-0.03500,-0.64200,0.34800,-0.41800,216.69000,-0.02000
271125_15.02.57.141,0.02100,-0.05300,0.99400,0.03500,-0.10500,-0.05300,-0.64500,0.34400,-0.40600,216.53000,-0.16000
271125_15.02.57.153,0.02200,-0.05400,0.99100,0.05300,-0.10500,-0.05300,-0.64300,0.34800,-0.41100,216.91000,0.38000
271125_15.02.57.164,0.02200,-0.05500,0.99300,0.08700,-0.14000,-0.07000,-0.64300,0.34800,-0.41100,217.20000,0.29000
271125_15.02.57.176,0.02300,-0.05200,0.99300,0.05300,-0.10500,-0.03500,-0.64600,0.35000,-0.41600,216.71000,-0.49000
271125_15.02.57.188,0.02200,-0.05300,0.99200,0.05300,-0.10500,-0.03500,-0.64800,0.34800,-0.41600,216.79000,0.08000
271125_15.02.57.199,0.02300,-0.05400,0.99200,0.05300,-0.10500,-0.05300,-0.64200,0.34700,-0.41700,217.44000,0.65000
271125_15.02.57.211,0.02200,-0.05400,0.99400,0.05300,-0.12300,-0.05300,-0.64200,0.34800,-0.41800,216.91000,-0.53000
271125_15.02.57.223,0.02300,-0.05400,0.99200,0.07000,-0.12300,-0.03500,-0.64600,0.34800,-0.41800,216.37000,-0.54000
271125_15.02.57.234,0.02300,-0.05400,0.99100,0.08700,-0.14000,-0.03500,-0.65000,0.34900,-0.41600,216.52000,0.15000
271125_15.02.57.246,0.02300,-0.05400,0.99200,0.05300,-0.12300,-0.03500,-0.64600,0.34900,-0.41700,216.40000,-0.12000
271125_15.02.57.258,0.02200,-0.05400,0.99300,0.01800,-0.08700,-0.03500,-0.64300,0.34200,-0.41700,217.64000,1.24000
271125_15.02.57.270,0.02300,-0.05300,0.99300,0.01800,-0.12300,-0.05300,-0.64300,0.34200,-0.41700,217.53000,-0.11000
271125_15.02.57.281,0.02300,-0.05400,0.99300,0.07000,-0.14000,-0.05300,-0.64600,0.34800,-0.41600,216.91000,-0.62000
271125_15.02.57.293,0.02200,-0.05500,0.99300,0.07000,-0.12300,-0.03500,-0.64000,0.34600,-0.41200,217.09000,0.18000
271125_15.02.57.305,0.02200,-0.05400,0.99200,0.08700,-0.10500,-0.05300,-0.64100,0.34900,-0.42000,217.35000,0.26000
271125_15.02.57.316,0.02200,-0.05300,0.99200,0.05300,-0.12300,-0.05300,-0.64400,0.34700,-0.41800,216.92000,-0.43000
271125_15.02.57.328,0.02200,-0.05300,0.99300,0.05300,-0.07000,-0.03500,-0.64400,0.34700,-0.41800,215.83000,-1.09000
271125_15.02.57.340,0.02200,-0.05400,0.99300,0.03500,-0.07000,-0.05300,-0.64500,0.34900,-0.41900,217.07000,1.24000
271125_15.02.57.351,0.02200,-0.05400,0.99300,0.03500,-0.12300,-0.05300,-0.64400,0.34700,-0.41900,216.73000,-0.34000
271125_15.02.57.363,0.02100,-0.05400,0.99200,0.05300,-0.10500,-0.03500,-0.65000,0.35000,-0.41900,217.15000,0.42000
271125_15.02.57.375,0.02300,-0.05400,0.99200,0.07000,-0.10500,-0.03500,-0.65000,0.35000,-0.41900,216.90000,-0.25000
271125_15.02.57.386,0.02300,-0.05300,0.99300,0.07000,-0.10500,-0.03500,-0.64600,0.34500,-0.42500,216.78000,-0.12000
271125_15.02.57.398,0.02100,-0.05300,0.99200,0.07000,-0.10500,-0.05300,-0.64100,0.34600,-0.42000,216.24000,-0.54000
271125_15.02.57.410,0.02300,-0.05400,0.99300,0.05300,-0.08700,-0.05300,-0.64700,0.35100,-0.41500,216.84000,0.60000
271125_15.02.57.421,0.02100,-0.05300,0.99200,0.07000,-0.12300,-0.05300,-0.64400,0.35200,-0.41500,217.02000,0.18000
271125_15.02.57.433,0.02300,-0.05400,0.99300,0.07000,-0.12300,-0.05300,-0.64400,0.35200,-0.41500,216.31000,-0.71000
271125_15.02.57.445,0.02200,-0.05300,0.99400,0.05300,-0.10500,-0.05300,-0.64100,0.34600,-0.41600,217.26000,0.95000
271125_15.02.57.456,0.02200,-0.05400,0.99100,0.05300,-0.12300,-0.05300,-0.64400,0.34700,-0.41900,216.85000,-0.41000
271125_15.02.57.468,0.02200,-0.05300,0.99200,0.05300,-0.15700,-0.03500,-0.64300,0.35000,-0.41100,216.98000,0.13000
271125_15.02.57.480,0.02200,-0.05400,0.99400,0.07000,-0.08700,-0.05300,-0.64300,0.35000,-0.41100,217.11000,0.13000
271125_15.02.57.491,0.02200,-0.05400,0.99200,0.07000,-0.08700,-0.05300,-0.64100,0.34700,-0.40100,216.44000,-0.67000
271125_15.02.57.503,0.02200,-0.05400,0.99100,0.08700,-0.10500,-0.07000,-0.64200,0.34800,-0.40700,216.80000,0.36000
271125_15.02.57.515,0.02200,-0.05300,0.99300,0.07000,-0.12300,-0.07000,-0.64900,0.35000,-0.41400,217.36000,0.56000
271125_15.02.57.527,0.02200,-0.05400,0.99400,0.05300,-0.10500,-0.05300,-0.64800,0.34600,-0.41300,217.31000,-0.05000
271125_15.02.57.538,0.02300,-0.05400,0.99100,0.03500,-0.10500,-0.07000,-0.64800,0.34600,-0.41300,216.98000,-0.33000
271125_15.02.57.550,0.02300,-0.05400,0.99200,0.07000,-0.10500,-0.05300,-0.64300,0.34600,-0.40800,216.57000,-0.41000
271125_15.02.57.561,0.02500,-0.05300,0.99200,0.07000,-0.10500,-0.05300,-0.64400,0.35000,-0.41200,216.70000,0.13000
271125_15.02.57.573,0.02400,-0.05400,0.99100,0.10500,-0.12300,-0.05300,-0.64400,0.34900,-0.41500,217.11000,0.41000
271125_15.02.57.585,0.02200,-0.05400,0.99100,0.08700,-0.14000,-0.05300,-0.64300,0.35000,-0.41200,217.57000,0.46000
271125_15.02.57.596,0.02300,-0.05400,0.99300,0.07000,-0.12300,-0.05300,-0.64300,0.35000,-0.41200,216.99000,-0.58000
271125_15.02.57.608,0.02300,-0.05500,0.99400,0.05300,-0.10500,-0.05300,-0.64300,0.35100,-0.41200,217.09000,0.10000
271125_15.02.57.620,0.02300,-0.05300,0.99200,0.03500,-0.07000,-0.05300,-0.64200,0.34900,-0.41400,216.96000,-0.13000
271125_15.02.57.631,0.02200,-0.05300,0.99300,0.07000,-0.10500,-0.05300,-0.64500,0.34900,-0.41000,217.07000,0.11000
271125_15.02.57.643,0.02200,-0.05300,0.99300,0.05300,-0.12300,-0.03500,-0.64500,0.34900,-0.41000,216.90000,-0.17000
271125_15.02.57.655,0.02200,-0.05400,0.99100,0.07000,-0.12300,-0.07000,-0.64400,0.34800,-0.41800,216.86000,-0.04000
271125_15.02.57.666,0.02300,-0.05400,0.99200,0.07000,-0.12300,-0.05300,-0.64300,0.34500,-0.41400,217.14000,0.28000
271125_15.02.57.678,0.02200,-0.05500,0.99300,0.03500,-0.08700,-0.05300,-0.64400,0.34700,-0.41300,216.80000,-0.34000
271125_15.02.57.690,0.02200,-0.05400,0.99300,0.03500,-0.10500,-0.07000,-0.64300,0.35200,-0.41300,217.43000,0.63000
271125_15.02.57.701,0.02200,-0.05300,0.99300,0.03500,-0.10500,-0.05300,-0.64300,0.35200,-0.41300,216.93000,-0.50000
271125_15.02.57.713,0.02300,-0.05400,0.99400,0.08700,-0.12300,-0.05300,-0.64200,0.35100,-0.42100,217.20000,0.27000
271125_15.02.57.725,0.02000,-0.05400,0.99200,0.10500,-0.14000,-0.05300,-0.64200,0.34800,-0.40800,217.44000,0.24000
271125_15.02.57.736,0.02300,-0.05500,0.99200,0.07000,-0.14000,-0.07000,-0.64500,0.34900,-0.40500,217.22000,-0.22000
271125_15.02.57.748,0.02200,-0.05400,0.99300,0.08700,-0.14000,-0.05300,-0.64500,0.34900,-0.40500,217.08000,-0.14000
271125_15.02.57.760,0.02300,-0.05400,0.99300,0.07000,-0.14000,-0.05300,-0.64400,0.35000,-0.40600,216.72000,-0.36000
271125_15.02.57.771,0.02300,-0.05400,0.99100,0.08700,-0.14000,-0.05300,-0.64200,0.35000,-0.40800,216.18000,-0.54000
271125_15.02.57.783,0.02300,-0.05400,0.99300,0.08700,-0.14000,-0.05300,-0.64200,0.35100,-0.41100,216.97000,0.79000
271125_15.02.57.795,0.02200,-0.05300,0.99300,0.07000,-0.12300,-0.03500,-0.64400,0.35100,-0.41100,216.91000,-0.06000
271125_15.02.57.806,0.02300,-0.05400,0.99200,0.03500,-0.08700,-0.03500,-0.64400,0.35100,-0.41100,217.08000,0.17000
271125_15.02.57.818,0.02100,-0.05400,0.99200,0.03500,-0.08700,-0.05300,-0.64700,0.35000,-0.40600,217.18000,0.10000
271125_15.02.57.830,0.02200,-0.05400,0.99200,0.03500,-0.10500,-0.05300,-0.63900,0.34700,-0.40600,216.72000,-0.46000
271125_15.02.57.841,0.02300,-0.05300,0.99300,0.05300,-0.10500,-0.05300,-0.63900,0.34500,-0.40600,217.33000,0.61000
271125_15.02.57.853,0.02200,-0.05400,0.99300,0.08700,-0.10500,-0.05300,-0.63900,0.34500,-0.40000,216.56000,-0.77000
271125_15.02.57.865,0.02100,-0.05300,0.99200,0.07000,-0.12300,-0.05300,-0.64200,0.34700,-0.40000,216.40000,-0.16000
271125_15.02.57.876,0.02100,-0.05500,0.99100,0.05300,-0.10500,-0.03500,-0.64700,0.34900,-0.40600,216.81000,0.41000
271125_15.02.57.888,0.02300,-0.05500,0.99300,0.07000,-0.10500,-0.07000,-0.64400,0.35000,-0.40800,217.04000,0.23000
271125_15.02.57.900,0.02200,-0.05500,0.99200,0.07000,-0.12300,-0.07000,-0.64500,0.35000,-0.41400,216.88000,-0.16000
271125_15.02.57.911,0.02200,-0.05400,0.99200,0.07000,-0.14000,-0.05300,-0.64500,0.35000,-0.41400,217.15000,0.27000
271125_15.02.57.923,0.02100,-0.05400,0.99300,0.07000,-0.14000,-0.03500,-0.64100,0.35100,-0.41100,217.17000,0.02000
271125_15.02.57.935,0.02200,-0.05300,0.99100,0.05300,-0.14000,-0.05300,-0.64000,0.34600,-0.40400,216.82000,-0.35000
271125_15.02.57.946,0.02100,-0.05500,0.99300,0.07000,-0.14000,-0.05300,-0.64300,0.35400,-0.41400,216.92000,0.10000
271125_15.02.57.958,0.02200,-0.05400,0.99200,0.07000,-0.12300,-0.05300,-0.64400,0.35300,-0.41600,217.12000,0.20000
271125_15.02.57.970,0.02300,-0.05400,0.99200,0.07000,-0.14000,-0.05300,-0.64400,0.35300,-0.41600,217.08000,-0.04000
271125_15.02.57.981,0.02200,-0.05400,0.99300,0.10500,-0.14000,-0.05300,-0.64400,0.34900,-0.40800,216.84000,-0.24000
271125_15.02.57.993,0.02200,-0.05300,0.99300,0.08700,-0.12300,-0.05300,-0.64500,0.34800,-0.40700,217.15000,0.31000
271125_15.02.58.005,0.02300,-0.05300,0.99200,0.07000,-0.08700,-0.05300,-0.64400,0.34700,-0.41100,216.16000,-0.99000
271125_15.02.58.017,0.02300,-0.05400,0.99100,0.05300,-0.10500,-0.05300,-0.64400,0.34700,-0.41100,216.06000,-0.10000
271125_15.02.58.028,0.02100,-0.05500,0.99200,0.07000,-0.10500,-0.05300,-0.64500,0.34600,-0.41000,216.97000,0.91000
271125_15.02.58.040,0.02200,-0.05300,0.99100,0.07000,-0.12300,-0.03500,-0.64700,0.34600,-0.41200,216.92000,-0.05000
271125_15.02.58.052,0.02100,-0.05400,0.99200,0.07000,-0.12300,-0.05300,-0.64200,0.34900,-0.40600,216.83000,-0.09000
271125_15.02.58.063,0.02200,-0.05400,0.99400,0.07000,-0.10500,-0.05300,-0.64100,0.34800,-0.41100,216.74000,-0.09000
271125_15.02.58.075,0.02300,-0.05400,0.99300,0.05300,-0.10500,-0.07000,-0.64100,0.34800,-0.41100,216.29000,-0.45000
271125_15.02.58.087,0.02300,-0.05400,0.99200,0.07000,-0.10500,-0.07000,-0.63900,0.34600,-0.41500,216.86000,0.57000
271125_15.02.58.098,0.02200,-0.05400,0.99200,0.07000,-0.14000,-0.05300,-0.63800,0.34700,-0.41000,216.93000,0.07000
271125_15.02.58.110,0.02200,-0.05400,0.99200,0.07000,-0.15700,-0.05300,-0.64300,0.34900,-0.40300,216.82000,-0.11000
271125_15.02.58.122,0.02300,-0.05400,0.99100,0.05300,-0.14000,-0.05300,-0.64300,0.34900,-0.40300,217.40000,0.58000
271125_15.02.58.133,0.02200,-0.05400,0.99200,0.05300,-0.08700,-0.05300,-0.64000,0.34900,-0.40600,216.71000,-0.69000
271125_15.02.58.145,0.02300,-0.05500,0.99200,0.01800,-0.08700,-0.03500,-0.63900,0.34700,-0.41200,217.00000,0.29000
271125_15.02.58.157,0.02200,-0.05400,0.99300,0.03500,-0.10500,-0.03500,-0.64000,0.34400,-0.41200,217.20000,0.20000
271125_15.02.58.168,0.02300,-0.05400,0.99000,0.08700,-0.14000,-0.07000,-0.64200,0.34900,-0.41000,216.95000,-0.25000
271125_15.02.58.180,0.02200,-0.05400,0.99200,0.07000,-0.14000,-0.03500,-0.64200,0.34900,-0.41000,217.35000,0.40000
271125_15.02.58.192,0.02300,-0.05500,0.99200,0.05300,-0.15700,-0.05300,-0.64300,0.34900,-0.41200,217.45000,0.10000
271125_15.02.58.204,0.02100,-0.05400,0.99100,0.05300,-0.14000,-0.05300,-0.64100,0.34900,-0.41600,216.83000,-0.62000
271125_15.02.58.216,0.02200,-0.05300,0.99200,0.03500,-0.08700,-0.05300,-0.64500,0.34700,-0.41600,217.04000,0.21000
271125_15.02.58.227,0.02200,-0.05400,0.99200,0.03500,-0.12300,-0.03500,-0.64500,0.34700,-0.41200,216.32000,-0.72000
271125_15.02.58.238,0.02100,-0.05500,0.99100,0.05300,-0.12300,-0.05300,-0.64200,0.34600,-0.41200,217.31000,0.99000
271125_15.02.58.250,0.02100,-0.05400,0.99200,0.07000,-0.10500,-0.03500,-0.64600,0.35000,-0.41000,217.14000,-0.17000
271125_15.02.58.262,0.02100,-0.05400,0.99400,0.05300,-0.10500,-0.03500,-0.63900,0.34900,-0.40700,217.10000,-0.04000
271125_15.02.58.274,0.02200,-0.05400,0.99200,0.05300,-0.12300,-0.03500,-0.64100,0.34900,-0.41200,216.34000,-0.76000
271125_15.02.58.285,0.02200,-0.05500,0.99200,0.03500,-0.10500,-0.05300,-0.64100,0.34900,-0.41200,216.66000,0.32000
271125_15.02.58.297,0.02100,-0.05300,0.99200,0.03500,-0.10500,-0.05300,-0.64300,0.34600,-0.41000,216.74000,0.08000
271125_15.02.58.309,0.02000,-0.05500,0.99200,0.07000,-0.14000,-0.05300,-0.64500,0.34900,-0.41000,216.75000,0.01000
271125_15.02.58.320,0.02200,-0.05300,0.99300,0.07000,-0.14000,-0.03500,-0.64700,0.35000,-0.41200,216.49000,-0.26000
271125_15.02.58.332,0.02200,-0.05400,0.99100,0.07000,-0.14000,-0.05300,-0.64500,0.34800,-0.40900,216.75000,0.26000
271125_15.02.58.344,0.02200,-0.05400,0.99300,0.07000,-0.14000,-0.03500,-0.64500,0.34800,-0.40900,216.98000,0.23000
271125_15.02.58.355,0.02200,-0.05400,0.99200,0.07000,-0.10500,-0.05300,-0.64600,0.35100,-0.41300,216.42000,-0.56000
271125_15.02.58.367,0.02200,-0.05400,0.99300,0.05300,-0.08700,-0.05300,-0.64600,0.34800,-0.41400,216.85000,0.43000
271125_15.02.58.379,0.02200,-0.05400,0.99300,0.07000,-0.10500,-0.05300,-0.64300,0.35200,-0.41100,217.39000,0.54000
271125_15.02.58.390,0.02200,-0.05400,0.99200,0.07000,-0.12300,-0.03500,-0.64300,0.35200,-0.41100,216.85000,-0.54000
271125_15.02.58.402,0.02300,-0.05400,0.99300,0.07000,-0.10500,-0.05300,-0.64500,0.35200,-0.41600,216.77000,-0.08000
271125_15.02.58.414,0.02200,-0.05200,0.99200,0.08700,-0.12300,-0.07000,-0.64500,0.34700,-0.41100,216.44000,-0.33000
271125_15.02.58.425,0.02200,-0.05400,0.99200,0.08700,-0.12300,-0.05300,-0.64600,0.35200,-0.40700,216.85000,0.41000
271125_15.02.58.437,0.02300,-0.05300,0.99100,0.07000,-0.12300,-0.05300,-0.64500,0.34900,-0.40500,217.03000,0.18000
271125_15.02.58.449,0.02200,-0.05400,0.99200,0.07000,-0.14000,-0.07000,-0.64500,0.34900,-0.40500,216.86000,-0.17000
271125_15.02.58.460,0.02200,-0.05400,0.99100,0.05300,-0.10500,-0.05300,-0.64300,0.34800,-0.40800,217.17000,0.31000
271125_15.02.58.472,0.02300,-0.05400,0.99100,0.05300,-0.10500,-0.05300,-0.64000,0.34900,-0.40500,217.62000,0.45000
271125_15.02.58.484,0.02200,-0.05400,0.99100,0.07000,-0.10500,-0.03500,-0.63900,0.34400,-0.41000,216.21000,-1.41000
271125_15.02.58.495,0.02100,-0.05300,0.99400,0.07000,-0.12300,-0.03500,-0.63900,0.34400,-0.41000,217.09000,0.88000
271125_15.02.58.507,0.02200,-0.05400,0.99300,0.03500,-0.08700,-0.05300,-0.64500,0.34800,-0.40800,217.01000,-0.08000
271125_15.02.58.519,0.02200,-0.05300,0.99300,0.03500,-0.12300,-0.05300,-0.63800,0.34700,-0.39900,216.90000,-0.11000
271125_15.02.58.530,0.02100,-0.05400,0.99200,0.05300,-0.12300,-0.03500,-0.64100,0.35100,-0.40500,216.08000,-0.82000
271125_15.02.58.542,0.02100,-0.05400,0.99300,0.03500,-0.10500,-0.05300,-0.64100,0.34800,-0.41400,216.57000,0.49000
271125_15.02.58.554,0.02100,-0.05300,0.99300,0.03500,-0.10500,-0.03500,-0.64100,0.34800,-0.41400,217.45000,0.88000
271125_15.02.58.565,0.02200,-0.05500,0.99200,0.05300,-0.12300,-0.05300,-0.63900,0.35100,-0.40900,217.09000,-0.36000
271125_15.02.58.577,0.02200,-0.05400,0.99300,0.07000,-0.14000,-0.05300,-0.64000,0.35000,-0.40500,216.44000,-0.65000
271125_15.02.58.589,0.02100,-0.05300,0.99100,0.08700,-0.12300,-0.05300,-0.64500,0.35300,-0.41200,216.96000,0.52000
271125_15.02.58.600,0.02300,-0.05300,0.99200,0.07000,-0.12300,-0.05300,-0.64500,0.35300,-0.41100,217.17000,0.21000
271125_15.02.58.612,0.02200,-0.05500,0.99100,0.05300,-0.10500,-0.03500,-0.64800,0.35100,-0.41100,217.17000,0.00000
271125_15.02.58.624,0.02200,-0.05500,0.99200,0.07000,-0.12300,-0.05300,-0.64600,0.35100,-0.40600,216.32000,-0.85000
271125_15.02.58.635,0.02300,-0.05300,0.99300,0.07000,-0.12300,-0.03500,-0.64100,0.35300,-0.41100,216.32000,0.00000
271125_15.02.58.647,0.02300,-0.05300,0.99300,0.05300,-0.12300,-0.05300,-0.64100,0.34900,-0.41300,216.37000,0.05000
271125_15.02.58.659,0.02200,-0.05400,0.99200,0.08700,-0.12300,-0.05300,-0.64100,0.34900,-0.41300,217.25000,0.88000
271125_15.02.58.670,0.02300,-0.05300,0.99100,0.07000,-0.10500,-0.05300,-0.64100,0.34700,-0.40600,217.33000,0.08000
271125_15.02.58.682,0.02200,-0.05400,0.99300,0.05300,-0.12300,-0.05300,-0.64100,0.34900,-0.41300,217.31000,-0.02000
271125_15.02.58.694,0.02100,-0.05500,0.99300,0.05300,-0.10500,-0.05300,-0.64300,0.35100,-0.41400,216.59000,-0.72000
271125_15.02.58.706,0.02300,-0.05500,0.99100,0.05300,-0.12300,-0.05300,-0.64500,0.35200,-0.40700,217.27000,0.68000
271125_15.02.58.717,0.02200,-0.05400,0.99200,0.07000,-0.10500,-0.05300,-0.64500,0.35200,-0.40700,216.71000,-0.56000
271125_15.02.58.729,0.02300,-0.05400,0.99200,0.07000,-0.08700,-0.05300,-0.64400,0.34900,-0.41100,217.19000,0.48000
271125_15.02.58.741,0.02300,-0.05300,0.99100,0.07000,-0.12300,-0.07000,-0.64200,0.35100,-0.41000,216.38000,-0.81000
271125_15.02.58.752,0.02200,-0.05400,0.99000,0.05300,-0.12300,-0.03500,-0.64200,0.35000,-0.40300,216.77000,0.39000
271125_15.02.58.764,0.02400,-0.05500,0.99300,0.05300,-0.14000,-0.03500,-0.64200,0.35000,-0.40300,216.88000,0.11000
271125_15.02.58.776,0.02100,-0.05500,0.99300,0.07000,-0.12300,-0.03500,-0.64400,0.35000,-0.41200,217.04000,0.16000
271125_15.02.58.788,0.02200,-0.05300,0.99400,0.05300,-0.10500,-0.05300,-0.64400,0.35000,-0.41000,216.67000,-0.37000
271125_15.02.58.799,0.02200,-0.05400,0.99200,0.05300,-0.12300,-0.05300,-0.64800,0.34900,-0.41300,217.02000,0.35000
271125_15.02.58.811,0.02200,-0.05400,0.99400,0.05300,-0.10500,-0.05300,-0.64900,0.35200,-0.41200,217.31000,0.29000
271125_15.02.58.823,0.02200,-0.05300,0.99300,0.05300,-0.10500,-0.05300,-0.64900,0.35200,-0.41200,217.11000,-0.20000
271125_15.02.58.834,0.02200,-0.05300,0.99300,0.07000,-0.10500,-0.07000,-0.64300,0.35000,-0.40600,216.58000,-0.53000
271125_15.02.58.846,0.02200,-0.05400,0.99200,0.05300,-0.08700,-0.05300,-0.64100,0.34900,-0.41100,216.24000,-0.34000
271125_15.02.58.858,0.02200,-0.05400,0.99200,0.05300,-0.12300,-0.05300,-0.63800,0.35100,-0.41200,217.28000,1.04000
271125_15.02.58.869,0.02200,-0.05400,0.99200,0.07000,-0.14000,-0.05300,-0.63800,0.35100,-0.41200,216.86000,-0.42000
271125_15.02.58.881,0.02100,-0.05400,0.99200,0.05300,-0.10500,-0.05300,-0.64100,0.35000,-0.41600,216.59000,-0.27000
271125_15.02.58.893,0.02200,-0.05500,0.99200,0.05300,-0.12300,-0.03500,-0.63900,0.35200,-0.41500,217.05000,0.46000
271125_15.02.58.904,0.02200,-0.05500,0.99300,0.08700,-0.12300,-0.07000,-0.64000,0.35200,-0.40900,216.64000,-0.41000
271125_15.02.58.916,0.02200,-0.05400,0.99200,0.08700,-0.12300,-0.05300,-0.63900,0.35300,-0.41200,217.26000,0.62000
271125_15.02.58.928,0.02300,-0.05400,0.99200,0.08700,-0.14000,-0.05300,-0.63900,0.35300,-0.41200,216.66000,-0.60000
271125_15.02.58.939,0.02200,-0.05300,0.99200,0.08700,-0.14000,-0.05300,-0.64300,0.34800,-0.42300,217.78000,1.12000
271125_15.02.58.951,0.02200,-0.05400,0.99300,0.08700,-0.14000,-0.05300,-0.64200,0.35000,-0.41600,216.82000,-0.96000
271125_15.02.58.963,0.02300,-0.05400,0.99400,0.07000,-0.12300,-0.05300,-0.64400,0.34800,-0.41200,217.34000,0.52000
271125_15.02.58.974,0.02200,-0.05400,0.99300,0.03500,-0.10500,-0.03500,-0.64400,0.35000,-0.41100,216.90000,-0.44000
271125_15.02.58.986,0.02200,-0.05300,0.99100,0.03500,-0.10500,-0.07000,-0.63900,0.35000,-0.41100,217.15000,0.25000
271125_15.02.58.998,0.02300,-0.05400,0.99200,0.07000,-0.10500,-0.03500,-0.64000,0.34700,-0.41300,216.45000,-0.70000
271125_15.02.59.010,0.02300,-0.05400,0.99400,0.08700,-0.12300,-0.03500,-0.64000,0.34700,-0.41500,216.98000,0.53000
271125_15.02.59.021,0.02200,-0.05300,0.99200,0.03500,-0.10500,-0.05300,-0.64000,0.34900,-0.40900,216.99000,0.01000
271125_15.02.59.033,0.02200,-0.05400,0.99100,0.05300,-0.10500,-0.05300,-0.64000,0.34900,-0.40900,217.16000,0.17000
271125_15.02.59.044,0.02300,-0.05400,0.99300,0.07000,-0.12300,-0.03500,-0.64000,0.35100,-0.41100,216.67000,-0.49000
271125_15.02.59.055,0.02300,-0.05400,0.99200,0.08700,-0.14000,-0.03500,-0.64000,0.34800,-0.41000,216.50000,-0.17000
271125_15.02.59.067,0.02200,-0.05400,0.99200,0.08700,-0.12300,-0.05300,-0.63800,0.34800,-0.41700,217.50000,1.00000
271125_15.02.59.079,0.02200,-0.05400,0.99300,0.08700,-0.12300,-0.03500,-0.64000,0.34800,-0.41100,217.08000,-0.42000
271125_15.02.59.090,0.02300,-0.05500,0.99300,0.05300,-0.10500,-0.03500,-0.64000,0.34800,-0.41100,217.73000,0.65000
271125_15.02.59.102,0.02300,-0.05300,0.99200,0.05300,-0.12300,-0.03500,-0.64000,0.34900,-0.40800,216.46000,-1.27000
271125_15.02.59.114,0.02300,-0.05300,0.99100,0.05300,-0.10500,-0.05300,-0.64100,0.34500,-0.41500,216.78000,0.32000
271125_15.02.59.125,0.02200,-0.05300,0.99200,0.07000,-0.10500,-0.03500,-0.64300,0.34600,-0.41200,217.38000,0.60000
271125_15.02.59.137,0.02300,-0.05500,0.99300,0.05300,-0.10500,-0.03500,-0.64300,0.34600,-0.41200,217.17000,-0.21000
271125_15.02.59.149,0.02300,-0.05400,0.99300,0.05300,-0.08700,-0.05300,-0.64300,0.35100,-0.41300,217.39000,0.22000
271125_15.02.59.160,0.02300,-0.05400,0.99300,0.05300,-0.10500,-0.03500,-0.64200,0.35000,-0.40600,216.90000,-0.49000
271125_15.02.59.172,0.02300,-0.05300,0.99300,0.05300,-0.12300,-0.05300,-0.64100,0.34900,-0.41700,216.81000,-0.09000
271125_15.02.59.184,0.02200,-0.05300,0.99300,0.05300,-0.10500,-0.05300,-0.64400,0.34700,-0.41900,216.77000,-0.04000
271125_15.02.59.195,0.02200,-0.05400,0.99200,0.05300,-0.10500,-0.07000,-0.64400,0.34700,-0.41900,217.54000,0.77000
271125_15.02.59.207,0.02300,-0.05400,0.99300,0.05300,-0.10500,-0.03500,-0.64400,0.34900,-0.40700,217.04000,-0.50000
271125_15.02.59.219,0.02200,-0.05400,0.99200,0.07000,-0.14000,-0.03500,-0.64100,0.34900,-0.41200,217.02000,-0.02000
271125_15.02.59.231,0.02300,-0.05400,0.99100,0.07000,-0.12300,-0.05300,-0.64100,0.34900,-0.41200,217.26000,0.24000
271125_15.02.59.242,0.02200,-0.05300,0.99200,0.08700,-0.14000,-0.03500,-0.64100,0.34900,-0.41200,216.73000,-0.53000
271125_15.02.59.254,0.02300,-0.05300,0.99300,0.08700,-0.12300,-0.03500,-0.64200,0.34700,-0.41400,216.60000,-0.13000
271125_15.02.59.266,0.02300,-0.05400,0.99200,0.07000,-0.10500,-0.05300,-0.64100,0.35000,-0.41000,216.82000,0.22000
271125_15.02.59.277,0.02300,-0.05500,0.99300,0.05300,-0.10500,-0.05300,-0.64300,0.35200,-0.41200,217.30000,0.48000
271125_15.02.59.289,0.02300,-0.05400,0.99300,0.05300,-0.12300,-0.05300,-0.64500,0.34900,-0.41200,217.17000,-0.13000
271125_15.02.59.301,0.02300,-0.05500,0.99200,0.07000,-0.12300,-0.05300,-0.64500,0.34900,-0.41200,217.07000,-0.10000
271125_15.02.59.312,0.02300,-0.05500,0.99200,0.07000,-0.10500,-0.05300,-0.64100,0.34400,-0.41900,216.89000,-0.18000
271125_15.02.59.324,0.02200,-0.05300,0.99200,0.07000,-0.10500,-0.03500,-0.63700,0.35200,-0.42000,217.11000,0.22000
271125_15.02.59.336,0.02400,-0.05300,0.99200,0.05300,-0.08700,-0.05300,-0.64400,0.35200,-0.41600,216.63000,-0.48000
271125_15.02.59.347,0.02200,-0.05400,0.99100,0.03500,-0.12300,-0.03500,-0.64400,0.34900,-0.41300,216.53000,-0.10000
271125_15.02.59.359,0.02200,-0.05300,0.99300,0.03500,-0.10500,-0.05300,-0.63900,0.34900,-0.41300,216.99000,0.46000
271125_15.02.59.371,0.02200,-0.05300,0.99400,0.03500,-0.08700,-0.05300,-0.64200,0.35200,-0.41200,216.76000,-0.23000
271125_15.02.59.383,0.02200,-0.05400,0.99200,0.07000,-0.12300,-0.05300,-0.64200,0.35400,-0.41900,217.01000,0.25000
271125_15.02.59.394,0.02300,-0.05300,0.99200,0.05300,-0.12300,-0.05300,-0.64500,0.35000,-0.41600,216.34000,-0.67000
271125_15.02.59.406,0.02300,-0.05400,0.99300,0.08700,-0.10500,-0.03500,-0.64500,0.35000,-0.41600,216.65000,0.31000
271125_15.02.59.417,0.02300,-0.05400,0.99300,0.07000,-0.10500,-0.03500,-0.64300,0.35000,-0.41000,216.20000,-0.45000
271125_15.02.59.429,0.02200,-0.05500,0.99300,0.07000,-0.10500,-0.05300,-0.64100,0.34900,-0.42000,217.17000,0.97000
271125_15.02.59.441,0.02100,-0.05400,0.99200,0.08700,-0.12300,-0.05300,-0.64500,0.34900,-0.41400,217.54000,0.37000
271125_15.02.59.453,0.02200,-0.05300,0.99200,0.07000,-0.12300,-0.05300,-0.63900,0.34700,-0.41200,216.72000,-0.82000
271125_15.02.59.464,0.02300,-0.05500,0.99300,0.07000,-0.12300,-0.03500,-0.63900,0.34700,-0.41200,217.15000,0.43000
271125_15.02.59.476,0.02200,-0.05400,0.99300,0.07000,-0.14000,-0.03500,-0.64200,0.35000,-0.41300,216.21000,-0.94000
271125_15.02.59.488,0.02300,-0.05400,0.99200,0.07000,-0.12300,-0.03500,-0.63800,0.35100,-0.41300,217.59000,1.38000
271125_15.02.59.499,0.02200,-0.05300,0.99200,0.08700,-0.12300,-0.03500,-0.64400,0.35100,-0.40900,217.60000,0.01000
271125_15.02.59.511,0.02200,-0.05300,0.99200,0.07000,-0.15700,-0.07000,-0.64400,0.35100,-0.40900,216.58000,-1.02000
271125_15.02.59.523,0.02300,-0.05300,0.99200,0.05300,-0.12300,-0.05300,-0.64200,0.34700,-0.41300,217.59000,1.01000
271125_15.02.59.534,0.02300,-0.05300,0.99200,0.07000,-0.14000,-0.03500,-0.64300,0.34800,-0.41900,217.44000,-0.15000
271125_15.02.59.546,0.02300,-0.05500,0.99300,0.07000,-0.12300,-0.03500,-0.64400,0.34800,-0.40500,217.41000,-0.03000
271125_15.02.59.558,0.02300,-0.05400,0.99200,0.07000,-0.10500,-0.03500,-0.64300,0.34700,-0.41400,216.78000,-0.63000
271125_15.02.59.569,0.02300,-0.05400,0.99200,0.08700,-0.10500,-0.03500,-0.64300,0.34700,-0.41400,217.25000,0.47000
271125_15.02.59.581,0.02200,-0.05400,0.99300,0.08700,-0.08700,-0.05300,-0.64300,0.34800,-0.41600,217.04000,-0.21000
271125_15.02.59.592,0.02200,-0.05400,0.99400,0.07000,-0.10500,-0.05300,-0.64500,0.34600,-0.40900,217.11000,0.07000
271125_15.02.59.604,0.02300,-0.05400,0.99300,0.05300,-0.08700,-0.05300,-0.64200,0.34900,-0.40700,216.73000,-0.38000
271125_15.02.59.616,0.02300,-0.05400,0.99400,0.07000,-0.12300,-0.05300,-0.64200,0.34900,-0.40700,217.05000,0.32000
271125_15.02.59.627,0.02200,-0.05400,0.99200,0.07000,-0.10500,-0.05300,-0.64000,0.34900,-0.40900,216.78000,-0.27000
271125_15.02.59.639,0.02200,-0.05300,0.99300,0.07000,-0.12300,-0.05300,-0.63900,0.34700,-0.41600,216.38000,-0.40000
271125_15.02.59.651,0.02200,-0.05500,0.99400,0.08700,-0.12300,-0.05300,-0.64300,0.34600,-0.41000,217.03000,0.65000
271125_15.02.59.662,0.02200,-0.05400,0.99300,0.05300,-0.10500,-0.03500,-0.64100,0.34800,-0.41100,217.16000,0.13000
271125_15.02.59.674,0.02300,-0.05500,0.99300,0.05300,-0.10500,-0.07000,-0.64100,0.34800,-0.41100,217.62000,0.46000
271125_15.02.59.685,0.02200,-0.05300,0.99300,0.05300,-0.10500,-0.05300,-0.64400,0.35000,-0.40800,216.96000,-0.66000
271125_15.02.59.697,0.02200,-0.05500,0.99300,0.05300,-0.12300,-0.05300,-0.64100,0.34400,-0.41300,216.68000,-0.28000
271125_15.02.59.709,0.02100,-0.05400,0.99300,0.05300,-0.12300,-0.05300,-0.63900,0.34500,-0.41300,217.07000,0.39000
271125_15.02.59.720,0.02200,-0.05300,0.99200,0.05300,-0.12300,-0.03500,-0.63900,0.34800,-0.40900,216.71000,-0.36000
271125_15.02.59.732,0.02300,-0.05400,0.99300,0.08700,-0.10500,-0.05300,-0.64200,0.34800,-0.40900,217.27000,0.56000
271125_15.02.59.744,0.02200,-0.05300,0.99200,0.08700,-0.10500,-0.05300,-0.64300,0.34600,-0.40500,217.64000,0.37000
271125_15.02.59.756,0.02200,-0.05300,0.99400,0.07000,-0.12300,-0.05300,-0.64200,0.34500,-0.41300,217.20000,-0.44000
271125_15.02.59.767,0.02200,-0.05300,0.99200,0.07000,-0.10500,-0.05300,-0.64100,0.34600,-0.41800,217.35000,0.15000
271125_15.02.59.779,0.02300,-0.05400,0.99200,0.05300,-0.12300,-0.05300,-0.64100,0.34600,-0.41800,217.13000,-0.22000
271125_15.02.59.790,0.02200,-0.05300,0.99200,0.05300,-0.10500,-0.03500,-0.64400,0.34400,-0.40800,217.07000,-0.06000
271125_15.02.59.802,0.02200,-0.05300,0.99300,0.05300,-0.10500,-0.03500,-0.63800,0.34700,-0.40400,216.63000,-0.44000
271125_15.02.59.813,0.02300,-0.05400,0.99400,0.05300,-0.08700,-0.05300,-0.63500,0.34400,-0.41000,217.12000,0.49000
271125_15.02.59.825,0.02200,-0.05400,0.99200,0.05300,-0.12300,-0.03500,-0.64000,0.35000,-0.41500,217.23000,0.11000
271125_15.02.59.837,0.02100,-0.05400,0.99200,0.07000,-0.12300,-0.03500,-0.64000,0.35000,-0.41500,216.79000,-0.44000
271125_15.02.59.849,0.02100,-0.05300,0.99300,0.05300,-0.14000,-0.05300,-0.63700,0.34400,-0.41100,216.67000,-0.12000
271125_15.02.59.861,0.02200,-0.05300,0.99300,0.03500,-0.10500,-0.05300,-0.64100,0.34600,-0.41200,217.18000,0.51000
271125_15.02.59.872,0.02100,-0.05400,0.99300,0.05300,-0.10500,-0.05300,-0.64000,0.34800,-0.41200,216.89000,-0.29000
271125_15.02.59.884,0.02200,-0.05300,0.99300,0.07000,-0.10500,-0.05300,-0.64000,0.34800,-0.41200,216.58000,-0.31000
271125_15.02.59.895,0.02200,-0.05400,0.99300,0.07000,-0.12300,-0.05300,-0.64000,0.34300,-0.40600,216.64000,0.06000
271125_15.02.59.907,0.02200,-0.05400,0.99300,0.05300,-0.12300,-0.05300,-0.64000,0.34400,-0.41300,216.89000,0.25000
271125_15.02.59.918,0.02200,-0.05300,0.99400,0.07000,-0.12300,-0.03500,-0.63700,0.34400,-0.40900,217.20000,0.31000
271125_15.02.59.930,0.02200,-0.05400,0.99200,0.07000,-0.12300,-0.05300,-0.63800,0.34900,-0.40400,216.81000,-0.39000
271125_15.02.59.942,0.02100,-0.05400,0.99400,0.05300,-0.10500,-0.05300,-0.63800,0.34900,-0.40400,216.55000,-0.26000
271125_15.02.59.953,0.02200,-0.05400,0.99300,0.05300,-0.12300,-0.07000,-0.63800,0.34700,-0.40600,216.92000,0.37000
271125_15.02.59.965,0.02200,-0.05400,0.99200,0.08700,-0.15700,-0.05300,-0.64100,0.34800,-0.41600,217.23000,0.31000
271125_15.02.59.977,0.02200,-0.05500,0.99200,0.07000,-0.14000,-0.07000,-0.63800,0.34700,-0.41200,217.45000,0.22000
271125_15.02.59.988,0.02300,-0.05400,0.99300,0.05300,-0.10500,-0.08700,-0.63800,0.34700,-0.40800,217.11000,-0.34000
271125_15.03.00.000,0.02300,-0.05400,0.99200,0.01800,-0.12300,-0.05300,-0.63700,0.34800,-0.40800,217.21000,0.10000
271125_15.03.00.012,0.02100,-0.05400,0.99300,0.03500,-0.10500,-0.07000,-0.63800,0.34300,-0.41400,216.60000,-0.61000
271125_15.03.00.023,0.02100,-0.05500,0.99200,0.05300,-0.10500,-0.05300,-0.64000,0.35000,-0.41500,217.53000,0.93000
271125_15.03.00.035,0.02300,-0.05500,0.99200,0.08700,-0.12300,-0.05300,-0.64200,0.35000,-0.41400,216.99000,-0.54000
271125_15.03.00.047,0.02100,-0.05300,0.99300,0.08700,-0.12300,-0.05300,-0.64200,0.35000,-0.41400,217.02000,0.03000
271125_15.03.00.058,0.02100,-0.05400,0.99200,0.07000,-0.12300,-0.03500,-0.64400,0.34900,-0.41100,216.99000,-0.03000
271125_15.03.00.070,0.02300,-0.05400,0.99200,0.05300,-0.10500,-0.07000,-0.64500,0.34800,-0.41100,215.94000,-1.05000
271125_15.03.00.082,0.02100,-0.05400,0.99200,0.07000,-0.10500,-0.05300,-0.64700,0.34700,-0.41000,216.59000,0.65000
271125_15.03.00.093,0.02200,-0.05400,0.99400,0.07000,-0.10500,-0.03500,-0.64400,0.34900,-0.41100,217.37000,0.78000
271125_15.03.00.105,0.02200,-0.05400,0.99200,0.05300,-0.10500,-0.03500,-0.64400,0.34900,-0.41100,216.30000,-1.07000
271125_15.03.00.116,0.02200,-0.05400,0.99200,0.07000,-0.10500,-0.03500,-0.64700,0.35100,-0.41600,216.40000,0.10000
271125_15.03.00.128,0.02200,-0.05300,0.99300,0.05300,-0.12300,-0.05300,-0.64200,0.34700,-0.40700,217.20000,0.80000
271125_15.03.00.139,0.02200,-0.05400,0.99400,0.05300,-0.10500,-0.05300,-0.64200,0.34900,-0.41500,217.19000,-0.01000
271125_15.03.00.151,0.02300,-0.05400,0.99200,0.07000,-0.10500,-0.05300,-0.64200,0.34900,-0.41500,217.24000,0.05000
271125_15.03.00.162,0.02200,-0.05400,0.99300,0.07000,-0.14000,-0.03500,-0.64200,0.34800,-0.41500,216.97000,-0.27000
271125_15.03.00.174,0.02200,-0.05300,0.99300,0.08700,-0.14000,-0.05300,-0.64300,0.34700,-0.40700,217.07000,0.10000
271125_15.03.00.186,0.02200,-0.05400,0.99300,0.05300,-0.12300,-0.03500,-0.64300,0.34600,-0.40600,216.95000,-0.12000
271125_15.03.00.197,0.02200,-0.05300,0.99200,0.05300,-0.10500,-0.01800,-0.64300,0.34600,-0.40500,217.28000,0.33000
271125_15.03.00.209,0.02200,-0.05300,0.99200,0.05300,-0.10500,-0.05300,-0.64300,0.34600,-0.40500,216.40000,-0.88000
271125_15.03.00.221,0.02200,-0.05300,0.99200,0.07000,-0.12300,-0.05300,-0.64200,0.34800,-0.41900,217.34000,0.94000
271125_15.03.00.232,0.02200,-0.05300,0.99200,0.05300,-0.12300,-0.03500,-0.64400,0.34800,-0.41100,217.05000,-0.29000
271125_15.03.00.244,0.02200,-0.05400,0.99300,0.07000,-0.10500,-0.05300,-0.64300,0.34700,-0.41500,216.38000,-0.67000
