timestamp,ax,ay,az,gx,gy,gz,mx,my,mz,altitude,relative_altitude
041225_04.31.57.424,-0.03900,0.00000,0.99600,0.08700,-0.10500,-0.01800,0.56600,0.48700,-1.31900,78.91000,0.00000
041225_04.31.57.436,-0.04200,-0.00400,1.00800,0.05300,-0.15700,-0.01800,0.57100,0.48800,-1.31900,80.06000,1.15000
041225_04.31.57.448,-0.03700,-0.00500,1.00000,0.08700,-0.10500,-0.03500,0.56900,0.48800,-1.33100,79.32000,-0.74000
041225_04.31.57.459,-0.04000,-0.00000,0.99800,0.10500,-0.07000,-0.01800,0.56600,0.48800,-1.32400,80.17000,0.85000
041225_04.31.57.471,-0.04000,-0.00200,1.00700,0.10500,-0.10500,-0.01800,0.56600,0.48800,-1.32400,78.95000,-1.22000
041225_04.31.57.482,-0.04000,-0.00100,0.99400,0.07000,-0.10500,-0.01800,0.56600,0.48500,-1.32300,79.33000,0.38000
041225_04.31.57.494,-0.04200,-0.00500,1.00700,0.05300,-0.12300,0.00000,0.58000,0.48900,-1.32000,79.16000,-0.17000
041225_04.31.57.505,-0.03500,-0.00300,0.99800,0.12300,-0.08700,-0.01800,0.57700,0.48400,-1.32700,79.23000,0.07000
041225_04.31.57.517,-0.04100,0.00100,1.00100,0.10500,-0.10500,-0.03500,0.57700,0.48400,-1.32700,79.18000,-0.05000
041225_04.31.57.528,-0.03900,0.00000,1.00700,0.10500,-0.12300,-0.01800,0.58100,0.48500,-1.32200,79.58000,0.40000
041225_04.31.57.539,-0.04000,0.00100,0.99400,0.07000,-0.10500,-0.01800,0.58500,0.48600,-1.32300,79.34000,-0.24000
041225_04.31.57.551,-0.04300,-0.00300,1.00600,0.12300,-0.10500,-0.01800,0.58700,0.48900,-1.32100,79.85000,0.51000
041225_04.31.57.562,-0.03600,-0.00200,1.00100,0.10500,-0.12300,0.00000,0.58900,0.48700,-1.32400,79.83000,-0.02000
041225_04.31.57.574,-0.04000,-0.00200,1.00700,0.12300,-0.10500,0.00000,0.58900,0.48700,-1.32400,79.16000,-0.67000
041225_04.31.57.585,-0.04200,-0.00000,0.99500,0.08700,-0.12300,-0.01800,0.59000,0.48600,-1.32200,79.52000,0.36000
041225_04.31.57.597,-0.04000,-0.00400,1.00600,0.10500,-0.15700,-0.01800,0.58400,0.48400,-1.32800,79.77000,0.25000
041225_04.31.57.608,-0.03800,-0.00200,0.99800,0.12300,-0.10500,-0.01800,0.58200,0.48600,-1.32500,79.66000,-0.11000
041225_04.31.57.620,-0.04200,-0.00100,1.00300,0.10500,-0.12300,-0.01800,0.58200,0.48900,-1.32300,79.28000,-0.38000
041225_04.31.57.631,-0.03900,-0.00200,1.00800,0.10500,-0.12300,-0.01800,0.57700,0.48900,-1.32300,79.75000,0.47000
041225_04.31.57.642,-0.04200,-0.00200,0.99700,0.10500,-0.12300,0.00000,0.57800,0.49200,-1.32300,80.69000,0.94000
041225_04.31.57.654,-0.04100,-0.00300,1.00400,0.07000,-0.15700,-0.03500,0.57400,0.49400,-1.32600,79.10000,-1.59000
041225_04.31.57.665,-0.03600,-0.00400,0.99900,0.12300,-0.08700,-0.03500,0.57500,0.49300,-1.32000,79.33000,0.23000
041225_04.31.57.677,-0.04400,-0.00100,1.00700,0.10500,-0.14000,-0.01800,0.57500,0.49300,-1.32000,79.14000,-0.19000
041225_04.31.57.688,-0.04000,-0.00200,1.00500,0.10500,-0.14000,0.00000,0.57000,0.49000,-1.31700,79.57000,0.43000
041225_04.31.57.700,-0.04200,-0.00200,0.99900,0.07000,-0.14000,-0.01800,0.56600,0.49200,-1.31900,79.39000,-0.18000
041225_04.31.57.711,-0.03900,-0.00400,1.00100,0.07000,-0.15700,-0.01800,0.56500,0.49100,-1.32600,80.08000,0.69000
041225_04.31.57.722,-0.03800,-0.00100,0.99900,0.08700,-0.17500,-0.01800,0.56800,0.49000,-1.32600,79.11000,-0.97000
041225_04.31.57.734,-0.04400,-0.00100,1.00200,0.08700,-0.10500,-0.01800,0.56800,0.49000,-1.32600,79.47000,0.36000
041225_04.31.57.745,-0.04200,-0.00300,0.99900,0.05300,-0.12300,-0.01800,0.56700,0.48800,-1.31600,79.82000,0.35000
041225_04.31.57.757,-0.03800,-0.00500,0.99900,0.05300,-0.14000,0.00000,0.56700,0.48500,-1.32600,79.85000,0.03000
041225_04.31.57.768,-0.03900,-0.00300,0.99700,0.10500,-0.10500,0.00000,0.57200,0.48700,-1.32300,79.69000,-0.16000
041225_04.31.57.780,-0.04200,-0.00200,1.00800,0.08700,-0.15700,-0.03500,0.57200,0.48700,-1.32300,79.96000,0.27000
041225_04.31.57.791,-0.03900,-0.00200,1.00000,0.08700,-0.12300,-0.01800,0.57300,0.49000,-1.32300,79.93000,-0.03000
041225_04.31.57.803,-0.04400,-0.00500,1.00100,0.03500,-0.14000,-0.03500,0.57700,0.49300,-1.32400,79.25000,-0.68000
041225_04.31.57.814,-0.03600,-0.00500,1.00000,0.08700,-0.14000,-0.01800,0.58000,0.48900,-1.32200,78.96000,-0.29000
041225_04.31.57.825,-0.03900,-0.00200,0.99700,0.08700,-0.08700,0.00000,0.58000,0.48700,-1.32100,79.33000,0.37000
041225_04.31.57.837,-0.04100,-0.00000,1.00700,0.12300,-0.14000,0.00000,0.58000,0.48700,-1.32100,79.49000,0.16000
041225_04.31.57.848,-0.03700,-0.00200,0.99700,0.10500,-0.08700,-0.01800,0.58000,0.48600,-1.32600,79.76000,0.27000
041225_04.31.57.860,-0.04300,-0.00500,1.00600,0.07000,-0.12300,-0.03500,0.58300,0.49000,-1.32600,79.56000,-0.20000
041225_04.31.57.871,-0.03600,-0.00300,1.00100,0.10500,-0.14000,-0.01800,0.58900,0.48900,-1.32600,78.93000,-0.63000
041225_04.31.57.883,-0.03800,-0.00100,0.99400,0.12300,-0.10500,-0.01800,0.58900,0.48900,-1.32400,79.03000,0.10000
041225_04.31.57.894,-0.04000,-0.00000,1.00700,0.10500,-0.10500,-0.01800,0.59000,0.49000,-1.32400,79.14000,0.11000
041225_04.31.57.905,-0.03800,-0.00600,1.00500,0.07000,-0.15700,-0.01800,0.58100,0.48300,-1.32500,79.58000,0.44000
041225_04.31.57.917,-0.03600,-0.00400,1.00000,0.12300,-0.12300,-0.01800,0.57900,0.49300,-1.32300,79.31000,-0.27000
041225_04.31.57.928,-0.04000,0.00000,0.99500,0.12300,-0.10500,-0.01800,0.57800,0.49200,-1.31800,79.73000,0.42000
041225_04.31.57.940,-0.04000,-0.00100,1.00800,0.12300,-0.14000,0.00000,0.57800,0.49200,-1.31800,79.66000,-0.07000
041225_04.31.57.951,-0.03800,0.00100,0.99800,0.12300,-0.10500,0.00000,0.58300,0.49100,-1.32000,79.28000,-0.38000
041225_04.31.57.962,-0.04300,-0.00400,1.00500,0.07000,-0.12300,0.00000,0.57500,0.48800,-1.32200,79.33000,0.05000
041225_04.31.57.974,-0.03600,-0.00300,1.00100,0.12300,-0.12300,0.00000,0.57300,0.49000,-1.32500,79.80000,0.47000
041225_04.31.57.985,-0.04100,-0.00100,0.99700,0.10500,-0.10500,-0.01800,0.56700,0.48700,-1.31500,79.60000,-0.20000
041225_04.31.57.997,-0.04100,-0.00200,1.01000,0.10500,-0.12300,-0.01800,0.56700,0.48700,-1.31500,79.27000,-0.33000
041225_04.31.58.008,-0.04100,-0.00100,0.99600,0.08700,-0.08700,0.00000,0.57300,0.48800,-1.32300,79.71000,0.44000
041225_04.31.58.020,-0.04300,-0.00500,1.00400,0.08700,-0.14000,-0.01800,0.57100,0.48900,-1.32300,79.25000,-0.46000
041225_04.31.58.031,-0.03700,-0.00400,1.00100,0.10500,-0.12300,0.00000,0.56900,0.48600,-1.32100,80.12000,0.87000
041225_04.31.58.042,-0.04200,-0.00100,1.00000,0.10500,-0.10500,-0.01800,0.56900,0.48600,-1.32100,79.31000,-0.81000
041225_04.31.58.054,-0.04000,-0.00100,1.00800,0.10500,-0.12300,-0.03500,0.56900,0.48900,-1.31600,79.64000,0.33000
041225_04.31.58.065,-0.04000,0.00000,0.99500,0.05300,-0.12300,-0.01800,0.57700,0.49000,-1.32300,79.53000,-0.11000
041225_04.31.58.077,-0.04300,-0.00500,1.00000,0.08700,-0.10500,-0.01800,0.57900,0.49300,-1.32000,79.18000,-0.35000
041225_04.31.58.088,-0.04200,-0.00200,1.00000,0.08700,-0.10500,-0.03500,0.58100,0.48900,-1.32900,79.51000,0.33000
041225_04.31.58.099,-0.03900,-0.00100,1.00600,0.08700,-0.12300,0.00000,0.58100,0.48900,-1.32900,79.37000,-0.14000
041225_04.31.58.111,-0.04100,0.00000,0.99700,0.05300,-0.10500,-0.03500,0.58100,0.49100,-1.32500,79.47000,0.10000
041225_04.31.58.122,-0.04000,-0.00500,1.00400,0.07000,-0.15700,-0.01800,0.58500,0.49100,-1.32400,79.54000,0.07000
041225_04.31.58.134,-0.03700,-0.00300,1.00000,0.08700,-0.10500,-0.01800,0.58500,0.49100,-1.31800,79.06000,-0.48000
041225_04.31.58.145,-0.04100,-0.00200,1.00200,0.10500,-0.14000,-0.01800,0.58500,0.49100,-1.31800,79.41000,0.35000
041225_04.31.58.157,-0.03800,-0.00100,1.00500,0.12300,-0.14000,-0.01800,0.58700,0.48800,-1.32300,78.95000,-0.46000
041225_04.31.58.168,-0.04200,-0.00100,0.99800,0.07000,-0.10500,-0.01800,0.58200,0.48700,-1.32200,79.63000,0.68000
041225_04.31.58.179,-0.04100,-0.00500,1.00400,0.08700,-0.14000,-0.03500,0.58700,0.48800,-1.32700,79.33000,-0.30000
041225_04.31.58.191,-0.03800,-0.00200,0.99900,0.14000,-0.10500,-0.01800,0.58700,0.48900,-1.32500,79.74000,0.41000
041225_04.31.58.202,-0.04300,-0.00300,1.00300,0.10500,-0.12300,-0.01800,0.58700,0.48900,-1.32500,79.98000,0.24000
041225_04.31.58.214,-0.03900,-0.00100,1.00300,0.12300,-0.10500,0.00000,0.58300,0.49200,-1.32500,79.37000,-0.61000
041225_04.31.58.225,-0.04200,-0.00300,1.00100,0.08700,-0.10500,-0.01800,0.57900,0.48600,-1.31500,80.08000,0.71000
041225_04.31.58.236,-0.03800,-0.00400,1.00300,0.12300,-0.07000,-0.01800,0.57600,0.48600,-1.31800,79.25000,-0.83000
041225_04.31.58.248,-0.04100,-0.00300,1.00800,0.08700,-0.12300,-0.01800,0.57800,0.49000,-1.32000,79.74000,0.49000
041225_04.31.58.259,-0.03700,-0.00100,0.99900,0.10500,-0.08700,-0.01800,0.57800,0.49000,-1.32000,79.65000,-0.09000
041225_04.31.58.271,-0.04300,-0.00200,1.00100,0.07000,-0.10500,-0.03500,0.57700,0.49100,-1.31500,79.76000,0.11000
041225_04.31.58.282,-0.03800,-0.00500,1.00300,0.08700,-0.14000,-0.01800,0.57000,0.48800,-1.32300,79.70000,-0.06000
041225_04.31.58.294,-0.03600,-0.00000,0.99500,0.12300,-0.08700,-0.01800,0.57100,0.48800,-1.32000,79.75000,0.05000
041225_04.31.58.305,-0.04300,-0.00200,1.00900,0.10500,-0.12300,-0.03500,0.57100,0.48800,-1.32000,79.69000,-0.06000
041225_04.31.58.316,-0.03800,-0.00200,1.00200,0.12300,-0.10500,0.00000,0.57100,0.48900,-1.31700,79.66000,-0.03000
041225_04.31.58.328,-0.04300,-0.00200,1.00200,0.07000,-0.14000,0.00000,0.57200,0.48900,-1.32300,79.20000,-0.46000
041225_04.31.58.339,-0.03700,-0.00400,1.00200,0.14000,-0.14000,0.00000,0.56800,0.48800,-1.32000,79.13000,-0.07000
041225_04.31.58.351,-0.03900,-0.00200,0.99400,0.12300,-0.12300,-0.03500,0.56900,0.48700,-1.32600,79.32000,0.19000
041225_04.31.58.362,-0.04100,-0.00200,1.01000,0.12300,-0.14000,0.00000,0.56900,0.48700,-1.32600,79.60000,0.28000
041225_04.31.58.373,-0.03800,0.00100,0.99900,0.12300,-0.12300,0.01800,0.57700,0.49100,-1.31800,79.21000,-0.39000
041225_04.31.58.385,-0.04500,-0.00200,1.00300,0.07000,-0.15700,-0.01800,0.57800,0.48500,-1.31800,79.76000,0.55000
041225_04.31.58.396,-0.03800,-0.00500,1.00200,0.10500,-0.14000,0.00000,0.58100,0.49000,-1.32400,79.74000,-0.02000
041225_04.31.58.408,-0.03900,-0.00300,0.99400,0.10500,-0.14000,-0.01800,0.58100,0.49000,-1.32400,79.60000,-0.14000
041225_04.31.58.419,-0.03800,-0.00200,0.99800,0.08700,-0.12300,-0.03500,0.57900,0.48600,-1.32200,79.95000,0.35000
041225_04.31.58.430,-0.04300,-0.00400,1.00300,0.05300,-0.14000,-0.03500,0.58500,0.48800,-1.32700,79.10000,-0.85000
041225_04.31.58.442,-0.03700,-0.00500,1.00200,0.10500,-0.12300,0.00000,0.58700,0.48800,-1.32700,79.29000,0.19000
041225_04.31.58.453,-0.04100,-0.00100,0.99500,0.10500,-0.10500,-0.01800,0.59100,0.48700,-1.32500,79.16000,-0.13000
041225_04.31.58.465,-0.04200,-0.00000,1.00900,0.08700,-0.12300,0.00000,0.59100,0.48700,-1.32500,79.67000,0.51000
041225_04.31.58.476,-0.03800,-0.00000,0.99700,0.10500,-0.10500,-0.03500,0.58300,0.48700,-1.31600,79.69000,0.02000
041225_04.31.58.487,-0.04500,-0.00400,1.00300,0.05300,-0.14000,-0.03500,0.58200,0.49100,-1.32500,79.75000,0.06000
041225_04.31.58.499,-0.03700,-0.00600,1.00100,0.12300,-0.14000,-0.01800,0.57800,0.48800,-1.31900,80.18000,0.43000
041225_04.31.58.510,-0.03900,-0.00100,0.99600,0.12300,-0.14000,-0.03500,0.57800,0.49100,-1.31800,79.84000,-0.34000
041225_04.31.58.522,-0.04000,-0.00300,1.00600,0.12300,-0.15700,0.00000,0.58200,0.49100,-1.31800,79.48000,-0.36000
041225_04.31.58.533,-0.04000,-0.00000,0.99700,0.08700,-0.10500,0.00000,0.57600,0.48800,-1.32100,79.86000,0.38000
041225_04.31.58.544,-0.04300,-0.00400,1.00300,0.08700,-0.17500,-0.01800,0.57300,0.48900,-1.31700,79.70000,-0.16000
041225_04.31.58.556,-0.03400,-0.00400,1.00200,0.10500,-0.15700,-0.01800,0.57500,0.48800,-1.31400,79.72000,0.02000
041225_04.31.58.567,-0.04000,-0.00100,1.00000,0.08700,-0.12300,-0.03500,0.57500,0.48800,-1.31400,79.15000,-0.57000
041225_04.31.58.579,-0.03900,0.00000,1.00600,0.10500,-0.12300,-0.01800,0.57200,0.49000,-1.32600,79.39000,0.24000
041225_04.31.58.590,-0.04100,-0.00500,1.00500,0.08700,-0.14000,-0.03500,0.57100,0.48500,-1.32000,78.90000,-0.49000
041225_04.31.58.602,-0.03600,-0.00400,1.00000,0.10500,-0.10500,-0.01800,0.57000,0.48800,-1.31100,79.84000,0.94000
041225_04.31.58.613,-0.04100,-0.00300,0.99900,0.12300,-0.14000,-0.01800,0.56800,0.48800,-1.32200,79.96000,0.12000
041225_04.31.58.624,-0.04000,-0.00100,1.00600,0.12300,-0.10500,0.00000,0.56800,0.48800,-1.32200,79.22000,-0.74000
041225_04.31.58.636,-0.04100,-0.00200,0.99900,0.08700,-0.10500,0.00000,0.57400,0.49200,-1.31700,79.53000,0.31000
041225_04.31.58.647,-0.03900,-0.00400,1.00600,0.05300,-0.14000,-0.01800,0.57900,0.49200,-1.32100,79.44000,-0.09000
041225_04.31.58.659,-0.03600,-0.00300,0.99800,0.12300,-0.10500,-0.01800,0.57700,0.49100,-1.32500,79.57000,0.13000
041225_04.31.58.670,-0.04200,-0.00300,1.00400,0.10500,-0.14000,-0.01800,0.57700,0.49100,-1.32500,79.85000,0.28000
041225_04.31.58.681,-0.04000,-0.00400,1.00300,0.12300,-0.12300,0.00000,0.57700,0.49000,-1.33000,78.80000,-1.05000
041225_04.31.58.693,-0.04300,-0.00100,0.99900,0.10500,-0.12300,-0.03500,0.58400,0.48800,-1.32400,79.60000,0.80000
041225_04.31.58.704,-0.04100,-0.00500,1.00200,0.08700,-0.15700,-0.01800,0.58700,0.49000,-1.33400,79.05000,-0.55000
041225_04.31.58.716,-0.03700,-0.00500,0.99600,0.10500,-0.10500,0.00000,0.58400,0.49000,-1.32500,80.03000,0.98000
041225_04.31.58.727,-0.04400,-0.00200,1.00700,0.12300,-0.15700,-0.01800,0.58400,0.49000,-1.32500,79.47000,-0.56000
041225_04.31.58.739,-0.03800,-0.00000,1.00200,0.12300,-0.12300,-0.01800,0.59000,0.49100,-1.32500,79.33000,-0.14000
041225_04.31.58.750,-0.04400,-0.00200,0.99600,0.10500,-0.15700,-0.01800,0.59300,0.48900,-1.33100,79.35000,0.02000
041225_04.31.58.762,-0.04000,-0.00100,0.99200,0.12300,-0.10500,-0.01800,0.58700,0.48900,-1.32000,79.18000,-0.17000
041225_04.31.58.773,-0.04600,-0.00200,1.00700,0.10500,-0.12300,0.00000,0.58700,0.48900,-1.32000,79.33000,0.15000
041225_04.31.58.784,-0.03500,0.00000,1.00100,0.12300,-0.12300,-0.01800,0.58600,0.49000,-1.32000,79.82000,0.49000
041225_04.31.58.796,-0.04600,-0.00200,0.99700,0.07000,-0.08700,-0.01800,0.58100,0.49000,-1.31600,79.11000,-0.71000
041225_04.31.58.807,-0.04000,-0.00400,1.00700,0.10500,-0.10500,-0.01800,0.58300,0.49100,-1.31900,79.81000,0.70000
041225_04.31.58.819,-0.03700,-0.00100,0.99400,0.10500,-0.07000,-0.03500,0.57900,0.49100,-1.32700,78.86000,-0.95000
041225_04.31.58.830,-0.04400,-0.00100,1.01100,0.10500,-0.14000,-0.01800,0.57900,0.49100,-1.32700,78.76000,-0.10000
041225_04.31.58.842,-0.03600,-0.00000,1.00000,0.10500,-0.10500,0.00000,0.58100,0.49000,-1.32200,79.49000,0.73000
041225_04.31.58.853,-0.04300,-0.00300,0.99800,0.07000,-0.12300,-0.01800,0.57200,0.49100,-1.32400,80.27000,0.78000
041225_04.31.58.864,-0.04000,-0.00300,1.00400,0.08700,-0.12300,-0.01800,0.57000,0.48600,-1.31500,79.56000,-0.71000
041225_04.31.58.876,-0.03500,-0.00000,0.99300,0.14000,-0.12300,0.00000,0.57200,0.48800,-1.32000,79.65000,0.09000
041225_04.31.58.887,-0.04300,-0.00200,1.01000,0.08700,-0.14000,-0.01800,0.57200,0.48800,-1.32000,79.42000,-0.23000
041225_04.31.58.899,-0.03800,-0.00100,1.00100,0.12300,-0.12300,0.00000,0.57000,0.48700,-1.32300,79.34000,-0.08000
041225_04.31.58.910,-0.04200,-0.00300,1.00100,0.07000,-0.14000,-0.01800,0.57300,0.48700,-1.32400,80.13000,0.79000
041225_04.31.58.921,-0.04000,-0.00500,1.00500,0.10500,-0.10500,-0.03500,0.57200,0.48800,-1.32100,79.87000,-0.26000
041225_04.31.58.933,-0.04100,-0.00300,1.00800,0.08700,-0.12300,-0.01800,0.57200,0.48800,-1.32100,79.02000,-0.85000
041225_04.31.58.944,-0.03900,-0.00000,1.00200,0.10500,-0.10500,-0.01800,0.57300,0.49100,-1.32700,79.26000,0.24000
041225_04.31.58.955,-0.04200,-0.00400,1.00100,0.05300,-0.15700,-0.03500,0.57900,0.48600,-1.32000,79.53000,0.27000
041225_04.31.58.967,-0.03700,-0.00400,1.00500,0.12300,-0.12300,-0.01800,0.57400,0.48900,-1.32600,79.76000,0.23000
041225_04.31.58.978,-0.03900,-0.00100,0.99400,0.10500,-0.10500,-0.01800,0.57600,0.49000,-1.32600,79.40000,-0.36000
041225_04.31.58.990,-0.04000,-0.00200,1.00700,0.08700,-0.14000,-0.03500,0.57600,0.49000,-1.32600,79.92000,0.52000
041225_04.31.59.001,-0.03900,-0.00100,1.00100,0.10500,-0.12300,-0.01800,0.58000,0.49000,-1.32600,79.15000,-0.77000
041225_04.31.59.012,-0.04200,-0.00400,1.00200,0.05300,-0.14000,-0.01800,0.58700,0.49000,-1.32900,79.01000,-0.14000
041225_04.31.59.024,-0.03800,-0.00400,1.00300,0.08700,-0.12300,-0.03500,0.58500,0.49100,-1.32600,79.39000,0.38000
041225_04.31.59.035,-0.03800,-0.00300,0.99600,0.10500,-0.07000,0.00000,0.58500,0.49100,-1.32600,79.65000,0.26000
041225_04.31.59.047,-0.03800,-0.00100,1.00700,0.12300,-0.14000,-0.01800,0.58500,0.49000,-1.32100,78.92000,-0.73000
041225_04.31.59.058,-0.04000,-0.00000,0.99900,0.12300,-0.10500,-0.01800,0.57800,0.49400,-1.32400,79.56000,0.64000
041225_04.31.59.070,-0.04100,-0.00500,1.00100,0.05300,-0.15700,-0.03500,0.57800,0.48900,-1.32500,79.57000,0.01000
041225_04.31.59.081,-0.03500,-0.00500,1.00000,0.10500,-0.10500,-0.01800,0.58300,0.49400,-1.33300,79.05000,-0.52000
041225_04.31.59.092,-0.03900,-0.00000,1.00000,0.07000,-0.14000,-0.03500,0.58300,0.49400,-1.33300,79.91000,0.86000
041225_04.31.59.104,-0.03900,-0.00200,0.99800,0.07000,-0.08700,-0.01800,0.57200,0.49200,-1.32700,79.31000,-0.60000
041225_04.31.59.115,-0.04200,-0.00400,1.00300,0.05300,-0.12300,-0.01800,0.57200,0.49200,-1.32000,79.59000,0.28000
041225_04.31.59.127,-0.03600,-0.00400,0.99900,0.12300,-0.07000,-0.01800,0.57200,0.49500,-1.32900,79.61000,0.02000
041225_04.31.59.138,-0.04400,-0.00200,1.00100,0.10500,-0.12300,0.00000,0.57200,0.49000,-1.33000,79.03000,-0.58000
041225_04.31.59.150,-0.03800,-0.00100,1.00400,0.10500,-0.14000,0.00000,0.56900,0.49000,-1.33000,79.38000,0.35000
041225_04.31.59.161,-0.04100,-0.00100,0.99700,0.05300,-0.12300,-0.01800,0.56700,0.49300,-1.33100,79.08000,-0.30000
041225_04.31.59.172,-0.04300,-0.00700,1.00400,0.05300,-0.15700,-0.03500,0.56800,0.48800,-1.32100,79.25000,0.17000
041225_04.31.59.184,-0.03800,-0.00100,0.99700,0.10500,-0.12300,-0.01800,0.56700,0.48800,-1.32700,79.71000,0.46000
041225_04.31.59.195,-0.04300,-0.00300,1.00500,0.08700,-0.12300,-0.01800,0.56700,0.48800,-1.32700,79.22000,-0.49000
041225_04.31.59.207,-0.03900,0.00000,1.00300,0.10500,-0.12300,-0.01800,0.57300,0.49200,-1.32300,79.05000,-0.17000
041225_04.31.59.218,-0.04100,-0.00100,0.99800,0.07000,-0.08700,0.00000,0.57200,0.48800,-1.32400,79.45000,0.40000
041225_04.31.59.229,-0.04100,-0.00400,1.00600,0.08700,-0.14000,-0.01800,0.57600,0.48800,-1.32900,79.88000,0.43000
041225_04.31.59.241,-0.03700,-0.00100,0.99500,0.10500,-0.10500,-0.01800,0.57800,0.49000,-1.33000,79.94000,0.06000
041225_04.31.59.252,-0.04600,-0.00300,1.00600,0.10500,-0.12300,-0.01800,0.57800,0.49000,-1.33000,79.34000,-0.60000
041225_04.31.59.264,-0.04000,-0.00000,0.97200,0.08700,-0.10500,-0.01800,0.58500,0.48700,-1.32100,79.32000,-0.02000
041225_04.31.59.275,-0.04200,-0.00400,1.00600,0.10500,-0.17500,-0.01800,0.57800,0.49000,-1.32700,79.78000,0.46000
041225_04.31.59.286,-0.03800,-0.00200,0.99600,0.12300,-0.10500,-0.01800,0.58100,0.49100,-1.33100,79.66000,-0.12000
041225_04.31.59.298,-0.04400,-0.00200,1.00700,0.08700,-0.15700,-0.03500,0.58100,0.49100,-1.33100,80.03000,0.37000
041225_04.31.59.309,-0.03900,-0.00200,1.00200,0.10500,-0.12300,-0.01800,0.58200,0.48800,-1.32600,79.12000,-0.91000
041225_04.31.59.321,-0.04300,-0.00300,0.99800,0.07000,-0.10500,-0.01800,0.58600,0.48800,-1.32900,79.51000,0.39000
041225_04.31.59.332,-0.04000,-0.00500,1.00800,0.08700,-0.15700,0.00000,0.58200,0.49000,-1.33100,79.55000,0.04000
041225_04.31.59.343,-0.03600,-0.00100,0.99300,0.12300,-0.12300,-0.01800,0.58000,0.48900,-1.32400,79.84000,0.29000
041225_04.31.59.355,-0.04500,-0.00200,1.00800,0.07000,-0.15700,-0.01800,0.58000,0.48900,-1.32400,79.37000,-0.47000
041225_04.31.59.366,-0.03900,-0.00100,1.00500,0.10500,-0.12300,-0.01800,0.57800,0.48900,-1.31700,78.92000,-0.45000
041225_04.31.59.378,-0.04200,-0.00200,0.99600,0.07000,-0.15700,-0.01800,0.57800,0.48800,-1.31900,79.80000,0.88000
041225_04.31.59.389,-0.03900,-0.00500,1.00400,0.10500,-0.19200,-0.01800,0.57900,0.49000,-1.32300,80.27000,0.47000
041225_04.31.59.401,-0.03800,-0.00100,0.99400,0.12300,-0.12300,-0.01800,0.57900,0.49000,-1.32900,79.14000,-1.13000
041225_04.31.59.412,-0.04300,-0.00200,1.01000,0.08700,-0.14000,-0.01800,0.57400,0.48700,-1.32900,78.87000,-0.27000
041225_04.31.59.423,-0.03900,-0.00000,1.00200,0.10500,-0.15700,-0.01800,0.56800,0.48700,-1.32000,79.41000,0.54000
041225_04.31.59.435,-0.04200,-0.00400,1.00500,0.07000,-0.15700,-0.01800,0.56600,0.48700,-1.32300,79.62000,0.21000
041225_04.31.59.446,-0.03600,-0.00200,0.99500,0.10500,-0.10500,0.00000,0.57400,0.48600,-1.32500,80.03000,0.41000
041225_04.31.59.458,-0.04100,-0.00000,1.00600,0.12300,-0.14000,0.00000,0.57400,0.48600,-1.32500,79.58000,-0.45000
041225_04.31.59.469,-0.04200,0.00100,1.00200,0.10500,-0.12300,0.00000,0.57100,0.48700,-1.31900,79.99000,0.41000
041225_04.31.59.480,-0.03800,-0.00300,1.00100,0.05300,-0.12300,-0.01800,0.56600,0.48700,-1.31800,79.50000,-0.49000
041225_04.31.59.492,-0.03800,-0.00800,0.99900,0.10500,-0.10500,-0.03500,0.56700,0.49000,-1.32200,79.48000,-0.02000
041225_04.31.59.503,-0.03800,0.00000,0.99600,0.10500,-0.10500,-0.01800,0.57100,0.49100,-1.32700,79.68000,0.20000
041225_04.31.59.515,-0.03300,0.00100,1.00900,0.08700,-0.17500,-0.01800,0.57100,0.49100,-1.32700,79.99000,0.31000
041225_04.31.59.526,-0.04400,-0.00300,0.99600,0.08700,-0.08700,-0.01800,0.57900,0.48500,-1.32700,79.26000,-0.73000
041225_04.31.59.537,-0.04000,-0.00300,1.00300,0.07000,-0.14000,-0.03500,0.57700,0.48800,-1.33100,79.81000,0.55000
041225_04.31.59.549,-0.03600,-0.00400,1.00100,0.10500,-0.12300,-0.01800,0.57900,0.49100,-1.32700,79.38000,-0.43000
041225_04.31.59.560,-0.03900,-0.00100,0.99900,0.10500,-0.08700,0.00000,0.57900,0.49100,-1.32700,79.35000,-0.03000
041225_04.31.59.572,-0.03700,-0.00200,1.00600,0.10500,-0.14000,-0.03500,0.58200,0.49400,-1.33500,79.25000,-0.10000
041225_04.31.59.583,-0.04100,-0.00200,0.99800,0.10500,-0.08700,-0.01800,0.58200,0.48400,-1.33300,79.56000,0.31000
041225_04.31.59.594,-0.04100,-0.00600,1.00300,0.10500,-0.12300,-0.01800,0.57900,0.48600,-1.32900,79.81000,0.25000
041225_04.31.59.606,-0.03700,-0.00300,1.00100,0.10500,-0.08700,-0.01800,0.58100,0.48900,-1.32500,79.31000,-0.50000
041225_04.31.59.617,-0.03800,0.00000,1.00400,0.10500,-0.14000,-0.01800,0.58100,0.48900,-1.32500,79.11000,-0.20000
041225_04.31.59.629,-0.03800,0.00000,0.99900,0.10500,-0.10500,0.00000,0.58200,0.48700,-1.32600,79.42000,0.31000
041225_04.31.59.640,-0.04200,-0.00400,1.00600,0.05300,-0.14000,-0.03500,0.57700,0.48700,-1.32700,79.17000,-0.25000
041225_04.31.59.652,-0.03800,-0.00400,0.99800,0.08700,-0.08700,-0.01800,0.57300,0.49100,-1.33200,80.34000,1.17000
041225_04.31.59.663,-0.04100,-0.00200,1.00000,0.07000,-0.12300,-0.01800,0.57300,0.49100,-1.33200,79.73000,-0.61000
041225_04.31.59.674,-0.03800,0.00000,1.00600,0.10500,-0.14000,-0.01800,0.57500,0.48900,-1.32200,79.44000,-0.29000
041225_04.31.59.686,-0.04100,-0.00200,0.99900,0.08700,-0.08700,-0.01800,0.57000,0.48800,-1.32600,79.57000,0.13000
041225_04.31.59.697,-0.04100,-0.00400,1.00400,0.08700,-0.15700,-0.01800,0.57000,0.48700,-1.32700,79.29000,-0.28000
041225_04.31.59.709,-0.03700,-0.00200,0.99700,0.12300,-0.12300,-0.03500,0.57100,0.48700,-1.32200,79.30000,0.01000
041225_04.31.59.721,-0.04200,-0.00100,1.00300,0.10500,-0.10500,-0.01800,0.57100,0.48700,-1.32200,79.12000,-0.18000
041225_04.31.59.733,-0.04000,-0.00000,1.00400,0.10500,-0.12300,-0.01800,0.56600,0.48700,-1.32800,79.85000,0.73000
041225_04.31.59.744,-0.04100,0.00100,0.99600,0.10500,-0.10500,-0.01800,0.56600,0.48600,-1.32400,79.09000,-0.76000
041225_04.31.59.756,-0.04000,-0.00400,1.00700,0.08700,-0.17500,0.00000,0.56500,0.48400,-1.31900,79.50000,0.41000
041225_04.31.59.768,-0.03600,-0.00300,0.99700,0.10500,-0.10500,-0.01800,0.56500,0.48400,-1.32700,78.46000,-1.04000
041225_04.31.59.779,-0.04300,-0.00100,1.00500,0.10500,-0.12300,-0.01800,0.57300,0.48400,-1.32700,79.91000,1.45000
041225_04.31.59.791,-0.04200,-0.00100,0.99400,0.07000,-0.12300,-0.01800,0.57100,0.48700,-1.32000,79.59000,-0.32000
041225_04.31.59.803,-0.04000,-0.00600,1.00700,0.07000,-0.17500,-0.01800,0.57700,0.48500,-1.33200,80.21000,0.62000
041225_04.31.59.814,-0.03700,-0.00200,0.99600,0.12300,-0.08700,-0.01800,0.58300,0.48500,-1.32100,79.11000,-1.10000
041225_04.31.59.826,-0.04400,-0.00200,1.00700,0.08700,-0.12300,-0.03500,0.58300,0.48500,-1.32100,79.24000,0.13000
041225_04.31.59.838,-0.03900,-0.00100,1.00600,0.08700,-0.12300,-0.01800,0.58200,0.48500,-1.32300,79.71000,0.47000
041225_04.31.59.849,-0.04300,-0.00100,0.99400,0.07000,-0.10500,-0.01800,0.58200,0.48700,-1.33500,79.86000,0.15000
041225_04.31.59.861,-0.04100,-0.00500,1.00500,0.05300,-0.14000,-0.01800,0.57800,0.48700,-1.33200,79.58000,-0.28000
041225_04.31.59.872,-0.03700,-0.00300,0.99500,0.10500,-0.07000,-0.03500,0.57900,0.48700,-1.32100,79.59000,0.01000
041225_04.31.59.884,-0.04500,-0.00200,1.00600,0.10500,-0.10500,-0.01800,0.57900,0.48700,-1.32100,79.22000,-0.37000
041225_04.31.59.896,-0.04000,-0.00200,1.00400,0.08700,-0.12300,-0.03500,0.58200,0.48600,-1.32100,79.56000,0.34000
041225_04.31.59.907,-0.04300,-0.00200,0.99600,0.03500,-0.10500,-0.05300,0.57900,0.48600,-1.32400,79.57000,0.01000
041225_04.31.59.919,-0.04000,-0.00500,1.00600,0.07000,-0.14000,-0.03500,0.57300,0.48800,-1.32500,79.70000,0.13000
041225_04.31.59.930,-0.03900,-0.00200,0.99400,0.08700,-0.10500,-0.03500,0.57300,0.48800,-1.32500,79.96000,0.26000
041225_04.31.59.942,-0.04100,-0.00200,1.00600,0.12300,-0.10500,-0.01800,0.57700,0.48800,-1.32200,79.50000,-0.46000
041225_04.31.59.953,-0.03900,-0.00200,0.99700,0.08700,-0.14000,-0.01800,0.57400,0.48900,-1.32300,79.38000,-0.12000
041225_04.31.59.965,-0.03900,-0.00500,1.00500,0.10500,-0.15700,0.00000,0.57300,0.49100,-1.31900,79.30000,-0.08000
041225_04.31.59.976,-0.03900,-0.00100,0.99500,0.10500,-0.12300,0.01800,0.57400,0.48900,-1.31800,79.48000,0.18000
041225_04.31.59.988,-0.04100,-0.00100,1.00500,0.08700,-0.15700,-0.01800,0.57400,0.48900,-1.31800,78.94000,-0.54000
041225_04.31.59.999,-0.03900,-0.00100,1.00300,0.10500,-0.12300,-0.01800,0.56400,0.49000,-1.31900,79.12000,0.18000
041225_04.32.00.010,-0.04300,-0.00300,0.99900,0.08700,-0.14000,-0.01800,0.57000,0.48900,-1.31300,79.49000,0.37000
041225_04.32.00.022,-0.03700,-0.00500,1.00000,0.10500,-0.15700,0.00000,0.56900,0.49600,-1.32500,79.44000,-0.05000
041225_04.32.00.033,-0.03900,-0.00000,0.99700,0.10500,-0.12300,-0.01800,0.56900,0.49600,-1.32300,79.61000,0.17000
041225_04.32.00.045,-0.04000,-0.00100,1.00600,0.12300,-0.14000,0.00000,0.56700,0.49300,-1.32300,79.05000,-0.56000
041225_04.32.00.056,-0.03900,0.00000,1.00200,0.12300,-0.10500,-0.01800,0.56600,0.48800,-1.32300,79.46000,0.41000
041225_04.32.00.068,-0.04400,-0.00300,1.00200,0.08700,-0.14000,-0.01800,0.57300,0.49200,-1.32300,80.10000,0.64000
041225_04.32.00.079,-0.03700,-0.00200,1.00100,0.08700,-0.15700,-0.01800,0.57500,0.49000,-1.32500,79.90000,-0.20000
041225_04.32.00.091,-0.03800,-0.00200,0.99900,0.10500,-0.10500,-0.01800,0.57500,0.49000,-1.32500,79.11000,-0.79000
041225_04.32.00.102,-0.03900,0.00100,1.00800,0.10500,-0.14000,-0.01800,0.58000,0.48600,-1.32300,79.73000,0.62000
041225_04.32.00.113,-0.04000,-0.00200,1.00200,0.07000,-0.14000,-0.01800,0.57600,0.49200,-1.31700,79.20000,-0.53000
041225_04.32.00.125,-0.04200,-0.00400,0.99900,0.10500,-0.12300,-0.01800,0.58200,0.48500,-1.32100,79.07000,-0.13000
041225_04.32.00.136,-0.04100,-0.00000,1.00100,0.10500,-0.10500,-0.01800,0.58400,0.49000,-1.32400,79.48000,0.41000
041225_04.32.00.148,-0.03800,-0.00100,1.00500,0.08700,-0.14000,0.00000,0.58400,0.49000,-1.32400,79.17000,-0.31000
041225_04.32.00.159,-0.03800,-0.00000,0.99800,0.08700,-0.12300,-0.01800,0.58200,0.48600,-1.32000,79.20000,0.03000
041225_04.32.00.171,-0.04400,-0.00300,1.00600,0.05300,-0.15700,-0.03500,0.58300,0.48300,-1.32700,79.80000,0.60000
041225_04.32.00.182,-0.03600,-0.00500,0.99700,0.08700,-0.12300,0.00000,0.58400,0.48400,-1.32800,79.19000,-0.61000
041225_04.32.00.194,-0.04200,-0.00200,1.00000,0.08700,-0.10500,0.00000,0.58400,0.48400,-1.32800,79.67000,0.48000
041225_04.32.00.205,-0.04000,-0.00000,1.00700,0.08700,-0.14000,-0.03500,0.58300,0.48700,-1.32700,79.94000,0.27000
041225_04.32.00.217,-0.04000,0.00000,0.99600,0.07000,-0.12300,-0.03500,0.58300,0.48700,-1.32600,79.87000,-0.07000
041225_04.32.00.228,-0.04400,-0.00600,1.00600,0.07000,-0.14000,-0.01800,0.57900,0.48700,-1.32700,79.44000,-0.43000
041225_04.32.00.239,-0.03600,-0.00400,0.99800,0.12300,-0.10500,-0.01800,0.58000,0.48700,-1.32200,78.88000,-0.56000
041225_04.32.00.251,-0.04300,-0.00100,1.00200,0.10500,-0.12300,-0.01800,0.58000,0.48700,-1.32200,79.92000,1.04000
041225_04.32.00.262,-0.03900,-0.00100,1.00400,0.12300,-0.14000,-0.03500,0.57600,0.48900,-1.32100,78.61000,-1.31000
041225_04.32.00.274,-0.04100,-0.00000,0.99300,0.08700,-0.10500,-0.03500,0.57200,0.48700,-1.32700,79.69000,1.08000
041225_04.32.00.285,-0.04200,-0.00600,1.00800,0.10500,-0.10500,0.00000,0.57200,0.48800,-1.32400,79.88000,0.19000
041225_04.32.00.297,-0.03600,-0.00200,1.00100,0.10500,-0.08700,-0.01800,0.57200,0.48800,-1.32400,79.18000,-0.70000
041225_04.32.00.308,-0.03900,-0.00200,1.00600,0.10500,-0.10500,-0.01800,0.56900,0.49200,-1.32000,79.42000,0.24000
041225_04.32.00.320,-0.04000,-0.00100,0.99500,0.08700,-0.08700,-0.01800,0.57000,0.48800,-1.31700,79.54000,0.12000
041225_04.32.00.331,-0.04100,-0.00600,1.00700,0.08700,-0.12300,-0.01800,0.56900,0.49100,-1.32100,80.35000,0.81000
041225_04.32.00.343,-0.03600,-0.00300,0.99500,0.12300,-0.10500,0.00000,0.57400,0.48800,-1.32100,79.95000,-0.40000
041225_04.32.00.354,-0.04100,-0.00100,1.00400,0.08700,-0.10500,-0.01800,0.57400,0.48800,-1.32100,79.82000,-0.13000
041225_04.32.00.366,-0.03900,-0.00200,1.00600,0.12300,-0.10500,-0.01800,0.57200,0.48900,-1.32200,80.01000,0.19000
041225_04.32.00.377,-0.04000,0.00100,0.99500,0.07000,-0.08700,-0.01800,0.57500,0.48700,-1.32100,79.53000,-0.48000
041225_04.32.00.389,-0.03800,-0.00400,1.00700,0.10500,-0.15700,-0.01800,0.58200,0.49000,-1.32700,79.50000,-0.03000
041225_04.32.00.401,-0.03600,-0.00300,0.99700,0.12300,-0.12300,-0.01800,0.58500,0.49200,-1.32500,79.76000,0.26000
041225_04.32.00.412,-0.04400,-0.00200,1.00500,0.10500,-0.12300,0.00000,0.58500,0.49200,-1.32500,79.15000,-0.61000
041225_04.32.00.424,-0.04000,-0.00400,1.00700,0.10500,-0.14000,-0.01800,0.58100,0.49200,-1.32500,79.86000,0.71000
041225_04.32.00.435,-0.04300,-0.00100,0.99500,0.08700,-0.14000,-0.03500,0.58400,0.49100,-1.33000,79.13000,-0.73000
041225_04.32.00.447,-0.03900,-0.00500,1.00600,0.08700,-0.17500,-0.01800,0.58800,0.49100,-1.33200,80.09000,0.96000
041225_04.32.00.459,-0.03700,-0.00400,0.99700,0.12300,-0.14000,-0.01800,0.58800,0.49100,-1.33200,79.68000,-0.41000
041225_04.32.00.470,-0.04300,-0.00000,1.00500,0.10500,-0.10500,0.00000,0.58400,0.49200,-1.32700,79.18000,-0.50000
041225_04.32.00.482,-0.04300,-0.00400,0.99600,0.05300,-0.12300,-0.01800,0.58200,0.49200,-1.32500,79.87000,0.69000
041225_04.32.00.493,-0.03900,-0.00500,1.00500,0.10500,-0.12300,-0.01800,0.58300,0.49300,-1.32100,79.57000,-0.30000
041225_04.32.00.505,-0.03700,-0.00300,0.99400,0.14000,-0.08700,-0.01800,0.58200,0.49000,-1.32200,78.95000,-0.62000
041225_04.32.00.516,-0.04400,-0.00300,1.00500,0.10500,-0.15700,0.00000,0.58200,0.49000,-1.32200,79.64000,0.69000
041225_04.32.00.527,-0.04000,-0.00200,1.00500,0.10500,-0.10500,-0.01800,0.57800,0.49300,-1.32300,79.72000,0.08000
041225_04.32.00.539,-0.04300,-0.00200,0.99700,0.07000,-0.15700,-0.01800,0.58400,0.49000,-1.32000,80.14000,0.42000
041225_04.32.00.551,-0.03700,-0.00400,1.00000,0.10500,-0.19200,0.01800,0.57200,0.49000,-1.32100,79.86000,-0.28000
041225_04.32.00.562,-0.04000,-0.00100,0.99700,0.12300,-0.08700,-0.01800,0.57200,0.49000,-1.32100,79.26000,-0.60000
041225_04.32.00.574,-0.04200,-0.00100,1.00500,0.12300,-0.17500,-0.01800,0.56800,0.49000,-1.31700,79.72000,0.46000
041225_04.32.00.585,-0.03900,0.00000,0.99800,0.12300,-0.10500,-0.01800,0.57100,0.48600,-1.31900,80.04000,0.32000
041225_04.32.00.597,-0.04400,-0.00400,1.00100,0.05300,-0.14000,-0.01800,0.56600,0.49000,-1.31900,78.97000,-1.07000
041225_04.32.00.608,-0.03800,-0.00400,0.99900,0.10500,-0.14000,0.00000,0.56800,0.49000,-1.31900,79.60000,0.63000
041225_04.32.00.619,-0.03800,0.00000,0.99600,0.12300,-0.12300,-4.48000,0.56800,0.49000,-1.31900,79.96000,0.36000
041225_04.32.00.631,-0.04100,-0.00000,1.00800,0.08700,-0.10500,-0.01800,0.56900,0.48500,-1.31900,79.16000,-0.80000
041225_04.32.00.642,-0.04000,-0.00400,1.00700,0.07000,-0.14000,0.00000,0.57400,0.48900,-1.31900,79.51000,0.35000
041225_04.32.00.654,-0.03600,-0.00400,1.00000,0.08700,-0.15700,-0.01800,0.57200,0.49000,-1.32000,79.05000,-0.46000
041225_04.32.00.665,-0.04100,-0.00100,1.00000,0.08700,-0.12300,-0.01800,0.57200,0.48900,-1.32400,79.82000,0.77000
041225_04.32.00.677,-0.03800,-0.00000,1.00700,0.08700,-0.15700,-0.01800,0.57500,0.48900,-1.32400,79.26000,-0.56000
041225_04.32.00.688,-0.03700,0.00200,0.99600,0.10500,-0.08700,-0.01800,0.57600,0.49200,-1.31800,79.96000,0.70000
041225_04.32.00.700,-0.04200,-0.00300,1.00800,0.05300,-0.14000,-0.03500,0.57800,0.49000,-1.31700,79.41000,-0.55000
041225_04.32.00.711,-0.03700,-0.00500,1.00200,0.08700,-0.12300,-0.01800,0.58000,0.49100,-1.32400,79.85000,0.44000
041225_04.32.00.723,-0.04000,-0.00200,1.00000,0.12300,-0.12300,-0.01800,0.58000,0.49100,-1.32400,79.24000,-0.61000
041225_04.32.00.734,-0.03900,-0.00000,1.00800,0.12300,-0.14000,-0.01800,0.58000,0.49100,-1.32500,79.32000,0.08000
041225_04.32.00.746,-0.04000,0.00000,0.99700,0.08700,-0.08700,0.00000,0.57700,0.48700,-1.32900,79.57000,0.25000
041225_04.32.00.756,-0.04100,-0.00500,1.00800,0.05300,-0.15700,0.01800,0.58100,0.48900,-1.32600,79.76000,0.19000
041225_04.32.00.768,-0.03500,-0.00400,0.99800,0.10500,-0.10500,0.00000,0.58600,0.48800,-1.32300,79.62000,-0.14000
041225_04.32.00.779,-0.04100,-0.00300,0.99800,0.10500,-0.08700,-0.01800,0.58600,0.48800,-1.32300,79.26000,-0.36000
041225_04.32.00.791,-0.03900,-0.00300,1.00800,0.12300,-0.12300,-0.01800,0.58400,0.49400,-1.32700,79.88000,0.62000
041225_04.32.00.802,-0.03900,0.00100,0.99400,0.03500,-0.15700,-0.05300,0.57500,0.49200,-1.33000,80.41000,0.53000
041225_04.32.00.814,-0.03700,-0.00400,0.99800,0.07000,-0.08700,-0.01800,0.57700,0.49000,-1.32100,79.65000,-0.76000
041225_04.32.00.825,-0.04300,-0.00300,1.00000,0.07000,-0.12300,-0.01800,0.57700,0.49000,-1.32100,79.65000,0.00000
041225_04.32.00.836,-0.04100,-0.00200,1.00800,0.10500,-0.14000,0.00000,0.57700,0.49600,-1.32300,79.77000,0.12000
041225_04.32.00.848,-0.04100,-0.00000,0.99200,0.07000,-0.10500,-0.03500,0.57500,0.49200,-1.31800,79.37000,-0.40000
041225_04.32.00.859,-0.04100,-0.00500,1.00700,0.05300,-0.15700,-0.01800,0.56700,0.49300,-1.32600,79.54000,0.17000
041225_04.32.00.871,-0.03800,-0.00300,0.99500,0.10500,-0.08700,-0.01800,0.56700,0.49100,-1.32600,79.49000,-0.05000
041225_04.32.00.882,-0.04300,-0.00300,1.00000,0.10500,-0.10500,-0.01800,0.56700,0.49100,-1.32600,79.96000,0.47000
041225_04.32.00.894,-0.04000,-0.00000,1.00600,0.12300,-0.12300,0.00000,0.56600,0.49000,-1.32400,79.59000,-0.37000
041225_04.32.00.905,-0.04300,0.00000,0.99600,0.08700,-0.12300,-0.01800,0.56900,0.48900,-1.32000,79.29000,-0.30000
041225_04.32.00.916,-0.04000,-0.00400,1.00400,0.07000,-0.14000,-0.01800,0.56800,0.49200,-1.32300,79.97000,0.68000
041225_04.32.00.928,-0.03700,-0.00500,0.99800,0.10500,-0.10500,-0.01800,0.56800,0.49200,-1.32000,79.47000,-0.50000
041225_04.32.00.939,-0.04500,-0.00300,1.00200,0.10500,-0.15700,-0.01800,0.56600,0.48900,-1.32000,79.98000,0.51000
041225_04.32.00.951,-0.03800,-0.00200,1.00600,0.15700,-0.14000,0.00000,0.57300,0.49400,-1.32400,79.07000,-0.91000
041225_04.32.00.962,-0.04200,-0.00200,0.99500,0.08700,-0.10500,-0.01800,0.57300,0.48900,-1.32500,79.23000,0.16000
041225_04.32.00.974,-0.04000,-0.00500,1.00300,0.14000,-0.12300,0.00000,0.57700,0.48800,-1.32400,79.61000,0.38000
041225_04.32.00.985,-0.04300,-0.00200,1.00400,0.12300,-0.14000,-0.01800,0.57700,0.48800,-1.32400,79.38000,-0.23000
041225_04.32.00.997,-0.03900,-0.00000,1.00600,0.10500,-0.10500,-0.01800,0.57900,0.49000,-1.33400,79.22000,-0.16000
041225_04.32.01.009,-0.04200,-0.00200,0.99800,0.07000,-0.12300,0.00000,0.58000,0.48900,-1.33500,79.84000,0.62000
041225_04.32.01.020,-0.03900,-0.00400,1.00500,0.08700,-0.15700,0.00000,0.58100,0.49300,-1.32900,79.75000,-0.09000
041225_04.32.01.032,-0.03800,-0.00100,0.99800,0.12300,-0.14000,0.00000,0.58700,0.49200,-1.33300,79.10000,-0.65000
041225_04.32.01.044,-0.04300,-0.00300,1.00800,0.10500,-0.15700,-0.01800,0.58700,0.49200,-1.33300,79.64000,0.54000
041225_04.32.01.055,-0.04000,-0.00200,1.00200,0.10500,-0.12300,0.00000,0.58400,0.49100,-1.33000,79.71000,0.07000
041225_04.32.01.067,-0.04300,-0.00300,1.00100,0.07000,-0.17500,-0.01800,0.57900,0.49100,-1.32600,79.72000,0.01000
041225_04.32.01.079,-0.03800,-0.00300,1.00300,0.10500,-0.17500,0.00000,0.57800,0.49600,-1.32600,79.80000,0.08000
041225_04.32.01.090,-0.03800,-0.00100,0.99600,0.10500,-0.10500,-0.01800,0.57800,0.49600,-1.32600,79.64000,-0.16000
041225_04.32.01.102,-0.04100,-0.00400,1.00800,0.10500,-0.15700,-0.01800,0.58000,0.49100,-1.32700,79.82000,0.18000
041225_04.32.01.114,-0.03800,-0.00100,1.00100,0.10500,-0.12300,-0.03500,0.58000,0.49100,-1.32400,79.56000,-0.26000
041225_04.32.01.125,-0.04300,-0.00200,1.00400,0.07000,-0.12300,0.00000,0.57400,0.48700,-1.31800,79.74000,0.18000
041225_04.32.01.137,-0.03900,-0.00400,1.00000,0.08700,-0.14000,-0.01800,0.57100,0.49100,-1.32300,79.60000,-0.14000
041225_04.32.01.149,-0.03900,-0.00300,0.99500,0.10500,-0.14000,-0.03500,0.57100,0.49100,-1.32300,79.26000,-0.34000
041225_04.32.01.160,-0.03800,-0.00100,1.00000,0.08700,-0.10500,-0.01800,0.57400,0.49000,-1.32500,79.55000,0.29000
041225_04.32.01.172,-0.04200,-0.00300,1.00400,0.07000,-0.14000,-0.03500,0.56800,0.48900,-1.32800,80.19000,0.64000
041225_04.32.01.184,-0.03600,-0.00400,1.00100,0.08700,-0.12300,-0.01800,0.56800,0.48900,-1.32300,79.79000,-0.40000
041225_04.32.01.195,-0.03800,-0.00200,0.99500,0.10500,-0.10500,-0.03500,0.56800,0.48900,-1.32300,79.14000,-0.65000
041225_04.32.01.207,-0.04100,-0.00100,1.01000,0.07000,-0.14000,-0.01800,0.56500,0.49200,-1.31700,79.28000,0.14000
041225_04.32.01.219,-0.03700,0.00100,0.99500,0.08700,-0.08700,-0.03500,0.56800,0.48700,-1.32500,80.13000,0.85000
041225_04.32.01.230,-0.04200,-0.00300,1.00500,0.05300,-0.15700,-0.03500,0.56900,0.49200,-1.32700,79.47000,-0.66000
041225_04.32.01.242,-0.03500,-0.00500,1.00200,0.08700,-0.14000,-0.01800,0.57300,0.49200,-1.33100,79.39000,-0.08000
041225_04.32.01.254,-0.04000,-0.00300,0.99500,0.10500,-0.08700,-0.03500,0.57300,0.49200,-1.33100,80.10000,0.71000
041225_04.32.01.265,-0.03900,-0.00200,1.01000,0.10500,-0.10500,0.00000,0.57300,0.49300,-1.32700,79.36000,-0.74000
041225_04.32.01.277,-0.03700,0.00000,0.99500,0.05300,-0.08700,-0.01800,0.58100,0.49000,-1.32700,80.94000,1.58000
041225_04.32.01.289,-0.04200,-0.00500,1.00500,0.03500,-0.15700,-0.01800,0.58000,0.48900,-1.32600,78.95000,-1.99000
041225_04.32.01.300,-0.03600,-0.00400,0.99800,0.07000,-0.08700,0.00000,0.57900,0.48800,-1.31400,79.55000,0.60000
041225_04.32.01.312,-0.03900,-0.00100,0.99600,0.08700,-0.07000,-0.03500,0.57900,0.48800,-1.31400,79.20000,-0.35000
041225_04.32.01.323,-0.04000,-0.00200,1.00800,0.08700,-0.07000,0.00000,0.57700,0.48500,-1.32300,79.29000,0.09000
041225_04.32.01.335,-0.04300,-0.00400,1.00600,0.05300,-0.12300,-0.01800,0.58300,0.49000,-1.32300,79.48000,0.19000
041225_04.32.01.347,-0.03800,-0.00500,0.99900,0.10500,-0.08700,0.01800,0.58000,0.48800,-1.32700,80.18000,0.70000
041225_04.32.01.358,-0.04300,-0.00200,0.99500,0.08700,-0.10500,-0.03500,0.58000,0.48800,-1.32700,79.30000,-0.88000
041225_04.32.01.370,-0.04100,-0.00000,1.00800,0.12300,-0.10500,-0.01800,0.58000,0.48800,-1.32600,79.94000,0.64000
041225_04.32.01.381,-0.04300,-0.00000,0.99700,0.08700,-0.08700,0.00000,0.57500,0.48700,-1.32300,79.27000,-0.67000
041225_04.32.01.393,-0.04400,-0.00500,1.00300,0.07000,-0.14000,-0.01800,0.57400,0.49000,-1.31900,80.13000,0.86000
041225_04.32.01.404,-0.03400,-0.00300,1.00200,0.14000,-0.12300,-0.01800,0.57600,0.49000,-1.31800,79.77000,-0.36000
041225_04.32.01.416,-0.04200,-0.00100,0.99900,0.10500,-0.12300,-0.01800,0.57600,0.49000,-1.31800,80.02000,0.25000
041225_04.32.01.428,-0.04600,-0.00300,1.00400,0.10500,-0.08700,-0.01800,0.57100,0.48600,-1.32100,79.56000,-0.46000
041225_04.32.01.439,-0.03500,-0.00200,1.00100,0.08700,-0.12300,-0.03500,0.56500,0.49100,-1.32300,79.73000,0.17000
041225_04.32.01.451,-0.04700,-0.00200,1.00200,0.07000,-0.17500,-0.03500,0.56500,0.49600,-1.32400,79.58000,-0.15000
041225_04.32.01.463,-0.03500,-0.00100,1.00300,0.10500,-0.10500,-0.01800,0.56500,0.49600,-1.32400,79.49000,-0.09000
041225_04.32.01.474,-0.04000,-0.00500,1.00000,0.08700,-0.14000,-0.03500,0.56500,0.49100,-1.32100,79.78000,0.29000
041225_04.32.01.486,-0.04800,-0.00100,1.00600,0.10500,-0.12300,-0.03500,0.56300,0.49100,-1.32500,80.26000,0.48000
041225_04.32.01.498,-0.04000,-0.00100,1.00200,0.07000,-0.14000,-0.01800,0.55900,0.49400,-1.32700,79.58000,-0.68000
041225_04.32.01.509,-0.03700,-0.00300,1.00000,0.10500,-0.10500,0.00000,0.56100,0.49500,-1.31900,79.49000,-0.09000
041225_04.32.01.521,-0.04000,-0.00200,1.00100,0.08700,-0.12300,-0.03500,0.56100,0.49500,-1.31900,79.89000,0.40000
041225_04.32.01.533,-0.04100,0.00000,1.00400,0.10500,-0.10500,-0.01800,0.57000,0.49300,-1.32600,79.99000,0.10000
041225_04.32.01.544,-0.04000,-0.00100,1.00000,0.05300,-0.15700,-0.01800,0.56900,0.49000,-1.31600,79.89000,-0.10000
041225_04.32.01.556,-0.03800,-0.00400,1.00300,0.08700,-0.17500,-0.01800,0.57400,0.48800,-1.32200,79.53000,-0.36000
041225_04.32.01.568,-0.03900,-0.00300,0.99600,0.10500,-0.10500,-0.01800,0.57400,0.48800,-1.32000,79.18000,-0.35000
041225_04.32.01.579,-0.04300,-0.00200,1.00600,0.08700,-0.14000,-0.01800,0.57100,0.49100,-1.32000,79.29000,0.11000
041225_04.32.01.591,-0.03700,-0.00100,1.00000,0.10500,-0.10500,-0.01800,0.57300,0.49200,-1.32800,79.30000,0.01000
041225_04.32.01.603,-0.04200,-0.00200,0.99900,0.05300,-0.10500,-0.01800,0.57900,0.49000,-1.32100,79.76000,0.46000
041225_04.32.01.614,-0.03900,-0.00400,1.00200,0.08700,-0.14000,-0.01800,0.58000,0.49000,-1.32700,79.44000,-0.32000
041225_04.32.01.626,-0.03800,-0.00100,0.99500,0.12300,-0.08700,-0.01800,0.58000,0.49000,-1.32700,79.79000,0.35000
041225_04.32.01.638,-0.04100,-0.00200,1.01100,0.10500,-0.14000,0.00000,0.57900,0.49200,-1.32300,79.82000,0.03000
041225_04.32.01.649,-0.03800,-0.00000,0.99900,0.10500,-0.12300,0.00000,0.57800,0.49200,-1.32600,79.88000,0.06000
041225_04.32.01.661,-0.04200,-0.00200,1.00100,0.07000,-0.15700,-0.01800,0.58000,0.49100,-1.31800,79.85000,-0.03000
041225_04.32.01.673,-0.03800,-0.00500,0.97100,0.12300,-0.10500,-0.01800,0.57600,0.49200,-1.32400,79.55000,-0.30000
041225_04.32.01.684,-0.04200,-0.00300,1.01000,0.08700,-0.15700,-0.03500,0.57600,0.49200,-1.32400,79.91000,0.36000
041225_04.32.01.696,-0.03800,-0.00100,0.99900,0.10500,-0.10500,-0.01800,0.57500,0.49400,-1.31900,79.53000,-0.38000
041225_04.32.01.708,-0.04300,-0.00400,1.00400,0.05300,-0.14000,0.00000,0.57300,0.49100,-1.31600,79.65000,0.12000
041225_04.32.01.719,-0.03800,-0.00400,1.00300,0.08700,-0.12300,0.00000,0.57400,0.49300,-1.31300,79.43000,-0.22000
041225_04.32.01.731,-0.04000,-0.00200,0.99200,0.12300,-0.10500,0.00000,0.57400,0.49300,-1.31300,79.28000,-0.15000
041225_04.32.01.743,-0.04000,-0.00100,1.00900,0.10500,-0.15700,-0.01800,0.57400,0.49200,-1.31600,79.94000,0.66000
041225_04.32.01.754,-0.03700,-0.00000,0.99700,0.12300,-0.12300,-0.01800,0.56600,0.49100,-1.32600,79.92000,-0.02000
041225_04.32.01.766,-0.04400,-0.00300,1.00300,0.08700,-0.14000,-0.01800,0.56400,0.49500,-1.32100,78.83000,-1.09000
041225_04.32.01.778,-0.03800,-0.00400,1.00400,0.10500,-0.14000,0.00000,0.56200,0.49400,-1.32000,79.40000,0.57000
041225_04.32.01.789,-0.03900,-0.00300,0.99400,0.08700,-0.12300,-0.01800,0.56200,0.49400,-1.32000,79.50000,0.10000
041225_04.32.01.801,-0.04100,-0.00300,1.00900,0.10500,-0.10500,-0.01800,0.56600,0.48900,-1.31600,79.46000,-0.04000
041225_04.32.01.813,-0.03900,-0.00200,0.99700,0.10500,-0.08700,0.00000,0.57400,0.49200,-1.31900,79.91000,0.45000
041225_04.32.01.824,-0.04300,-0.00400,1.00300,0.07000,-0.12300,-0.01800,0.57200,0.48700,-1.32400,79.61000,-0.30000
041225_04.32.01.836,-0.03600,-0.00400,1.00200,0.12300,-0.12300,-0.01800,0.57200,0.48700,-1.32400,79.62000,0.01000
041225_04.32.01.847,-0.04100,-0.00100,1.02600,0.12300,-0.14000,0.00000,0.57400,0.49200,-1.32700,79.66000,0.04000
041225_04.32.01.859,-0.04000,0.00100,0.99700,0.10500,-0.12300,-0.01800,0.57400,0.49200,-1.32300,79.73000,0.07000
041225_04.32.01.871,-0.04300,-0.00400,1.00300,0.07000,-0.15700,-0.03500,0.58000,0.49100,-1.32300,79.26000,-0.47000
041225_04.32.01.882,-0.03800,-0.00600,1.00100,0.10500,-0.12300,-0.01800,0.57900,0.49000,-1.32900,80.08000,0.82000
041225_04.32.01.894,-0.04100,-0.00300,0.99700,0.10500,-0.10500,-0.03500,0.57900,0.49000,-1.32900,79.62000,-0.46000
041225_04.32.01.906,-0.04000,-0.00200,1.00700,0.12300,-0.14000,-0.01800,0.58100,0.49200,-1.31800,80.08000,0.46000
041225_04.32.01.917,-0.04100,-0.00000,0.99700,0.10500,-0.10500,-0.01800,0.58000,0.49200,-1.32500,79.73000,-0.35000
041225_04.32.01.929,-0.04100,-0.00300,1.00200,0.08700,-0.15700,-0.03500,0.58300,0.49400,-1.32900,79.75000,0.02000
041225_04.32.01.941,-0.03700,-0.00300,1.00000,0.12300,-0.12300,0.00000,0.58200,0.48900,-1.32600,79.20000,-0.55000
041225_04.32.01.952,-0.04300,-0.00300,1.00200,0.12300,-0.12300,0.00000,0.58200,0.48900,-1.32600,79.21000,0.01000
041225_04.32.01.964,-0.03900,-0.00000,1.00400,0.10500,-0.15700,0.00000,0.57500,0.49100,-1.31900,80.79000,1.58000
041225_04.32.01.976,-0.04100,-0.00000,0.99700,0.10500,-0.12300,-0.01800,0.58300,0.49000,-1.31700,79.76000,-1.03000
041225_04.32.01.987,-0.04200,-0.00300,1.00300,0.05300,-0.15700,0.00000,0.57400,0.49300,-1.31700,79.55000,-0.21000
041225_04.32.01.999,-0.03700,-0.00400,0.99900,0.10500,-0.12300,-0.01800,0.57400,0.49300,-1.31700,80.05000,0.50000
041225_04.32.02.010,-0.04400,-0.00100,1.00300,0.08700,-0.12300,0.00000,0.57400,0.48900,-1.31900,79.52000,-0.53000
041225_04.32.02.022,-0.03900,-0.00000,0.99700,0.07000,-0.08700,-0.01800,0.56900,0.48700,-1.31600,79.72000,0.20000
041225_04.32.02.033,-0.04100,-0.00300,1.00300,0.08700,-0.14000,0.00000,0.57000,0.49100,-1.31200,80.19000,0.47000
041225_04.32.02.045,-0.03700,-0.00200,0.99900,0.14000,-0.10500,0.01800,0.56800,0.48900,-1.31400,79.57000,-0.62000
041225_04.32.02.056,-0.04300,-0.00200,1.00600,0.10500,-0.14000,0.00000,0.56800,0.48900,-1.31400,79.78000,0.21000
041225_04.32.02.067,-0.03700,-0.00100,1.00300,0.14000,-0.12300,0.00000,0.57000,0.48900,-1.31300,79.90000,0.12000
041225_04.32.02.079,-0.04200,0.00000,1.00000,0.10500,-0.12300,0.00000,0.56300,0.48500,-1.31500,79.93000,0.03000
041225_04.32.02.090,-0.03900,-0.00400,1.00800,0.10500,-0.15700,-0.01800,0.56700,0.48800,-1.31400,79.61000,-0.32000
041225_04.32.02.102,-0.03600,-0.00100,0.99800,0.14000,-0.08700,-0.03500,0.56700,0.48800,-1.31400,80.06000,0.45000
041225_04.32.02.113,-0.04100,-0.00200,1.00800,0.12300,-0.12300,-0.03500,0.57000,0.48800,-1.31800,79.92000,-0.14000
041225_04.32.02.125,-0.03400,-0.00100,1.00400,0.12300,-0.10500,-0.01800,0.57700,0.49000,-1.31200,80.17000,0.25000
041225_04.32.02.136,-0.04000,-0.00200,1.00000,0.08700,-0.10500,-0.01800,0.57200,0.49100,-1.31800,79.62000,-0.55000
041225_04.32.02.148,-0.03700,-0.00500,1.00400,0.07000,-0.15700,0.00000,0.57400,0.49300,-1.32000,79.72000,0.10000
041225_04.32.02.159,-0.03600,-0.00200,0.99400,0.08700,-0.12300,-0.01800,0.57400,0.49300,-1.32000,79.06000,-0.66000
041225_04.32.02.171,-0.03900,-0.00400,1.00800,0.10500,-0.14000,-0.01800,0.58200,0.49000,-1.31700,79.43000,0.37000
041225_04.32.02.182,-0.03500,-0.00200,1.00000,0.07000,-0.12300,-0.03500,0.58200,0.48900,-1.32100,79.23000,-0.20000
041225_04.32.02.194,-0.04400,-0.00300,1.00300,0.07000,-0.14000,-0.03500,0.58100,0.49200,-1.32400,79.53000,0.30000
041225_04.32.02.205,-0.03600,-0.00500,0.99200,0.10500,-0.10500,0.00000,0.58100,0.49000,-1.31600,79.40000,-0.13000
041225_04.32.02.216,-0.04400,-0.00300,1.00800,0.10500,-0.12300,0.00000,0.58800,0.49000,-1.31600,79.77000,0.37000
041225_04.32.02.228,-0.04100,-0.00200,0.99900,0.10500,-0.08700,-0.03500,0.58700,0.49100,-1.32000,79.60000,-0.17000
041225_04.32.02.239,-0.04500,-0.00200,0.99900,0.05300,-0.12300,-0.05300,0.58300,0.49000,-1.32200,80.12000,0.52000
041225_04.32.02.251,-0.04000,-0.00500,1.00300,0.10500,-0.14000,-0.03500,0.58300,0.49300,-1.32500,79.60000,-0.52000
041225_04.32.02.262,-0.04000,-0.00000,0.99200,0.10500,-0.08700,-0.03500,0.58300,0.49300,-1.32500,79.31000,-0.29000
041225_04.32.02.274,-0.04500,-0.00200,1.00900,0.08700,-0.12300,-0.03500,0.57900,0.49100,-1.32100,79.97000,0.66000
041225_04.32.02.285,-0.03900,-0.00100,1.00000,0.08700,-0.08700,0.00000,0.57300,0.48800,-1.31500,79.84000,-0.13000
041225_04.32.02.297,-0.04600,-0.00300,1.00200,0.07000,-0.08700,-0.03500,0.58000,0.49100,-1.32000,79.55000,-0.29000
041225_04.32.02.308,-0.04000,-0.00500,1.00500,0.08700,-0.08700,-0.03500,0.57100,0.49100,-1.31400,79.79000,0.24000
041225_04.32.02.320,-0.04000,-0.00100,0.99400,0.08700,-0.07000,-0.03500,0.57100,0.49100,-1.31400,80.12000,0.33000
041225_04.32.02.331,-0.04300,-0.00200,1.00800,0.10500,-0.10500,-0.01800,0.56500,0.49100,-1.32100,79.26000,-0.86000
041225_04.32.02.343,-0.04100,-0.00100,1.00000,0.08700,-0.10500,0.00000,0.56600,0.49100,-1.31700,78.93000,-0.33000
041225_04.32.02.354,-0.04500,-0.00400,0.99900,0.10500,-0.14000,0.00000,0.56600,0.49100,-1.32200,79.62000,0.69000
041225_04.32.02.365,-0.04000,-0.00300,0.99600,0.10500,-0.14000,-0.01800,0.56600,0.49100,-1.32200,79.32000,-0.30000
041225_04.32.02.377,-0.04100,0.00100,1.00600,0.10500,-0.17500,0.00000,0.56900,0.48700,-1.32300,79.87000,0.55000
041225_04.32.02.388,-0.04200,-0.00200,0.99900,0.10500,-0.15700,0.00000,0.56700,0.48900,-1.32700,79.04000,-0.83000
041225_04.32.02.400,-0.04500,-0.00200,1.00300,0.07000,-0.21000,-0.01800,0.57000,0.49100,-1.32300,79.80000,0.76000
041225_04.32.02.411,-0.04000,-0.00500,1.00100,0.10500,-0.17500,0.00000,0.57300,0.49400,-1.32300,79.64000,-0.16000
041225_04.32.02.423,-0.04400,-0.00100,0.99500,0.08700,-0.15700,-0.01800,0.57300,0.49400,-1.32300,80.07000,0.43000
041225_04.32.02.434,-0.04300,0.00000,1.00400,0.08700,-0.19200,0.00000,0.57400,0.49000,-1.32700,79.94000,-0.13000
041225_04.32.02.446,-0.04100,-0.00100,0.99900,0.07000,-0.15700,0.00000,0.58100,0.48900,-1.33000,79.43000,-0.51000
041225_04.32.02.457,-0.04500,-0.00300,1.00500,0.05300,-0.19200,-0.05300,0.57800,0.48900,-1.32500,79.73000,0.30000
041225_04.32.02.469,-0.03900,-0.00200,0.99900,0.08700,-0.15700,-0.01800,0.57800,0.48900,-1.32200,79.70000,-0.03000
041225_04.32.02.480,-0.04200,-0.00100,0.99900,0.07000,-0.17500,-0.01800,0.58300,0.49200,-1.32200,79.97000,0.27000
041225_04.32.02.492,-0.04000,-0.00000,1.00400,0.08700,-0.19200,-0.01800,0.58600,0.49100,-1.32600,79.63000,-0.34000
041225_04.32.02.503,-0.03900,-0.00000,0.99800,0.08700,-0.15700,0.00000,0.59100,0.49300,-1.32800,79.86000,0.23000
041225_04.32.02.515,-0.04100,-0.00400,1.00500,0.07000,-0.17500,-0.03500,0.58500,0.49100,-1.32700,79.82000,-0.04000
041225_04.32.02.526,-0.03600,-0.00300,0.99900,0.08700,-0.12300,-0.01800,0.58500,0.49100,-1.32700,79.63000,-0.19000
041225_04.32.02.537,-0.04200,-0.00200,1.00600,0.10500,-0.14000,-0.01800,0.57800,0.49300,-1.32100,79.92000,0.29000
041225_04.32.02.549,-0.03900,-0.00100,0.99800,0.05300,-0.12300,-0.03500,0.57800,0.49100,-1.32700,79.61000,-0.31000
041225_04.32.02.560,-0.03700,-0.00500,1.00600,0.05300,-0.14000,-0.03500,0.57700,0.49300,-1.32000,79.56000,-0.05000
041225_04.32.02.572,-0.03400,-0.00300,0.99700,0.08700,-0.10500,-0.03500,0.57500,0.49000,-1.32400,79.94000,0.38000
041225_04.32.02.583,-0.03900,-0.00300,1.00700,0.08700,-0.12300,-0.01800,0.57500,0.49000,-1.32400,79.95000,0.01000
041225_04.32.02.595,-0.03500,-0.00100,1.00400,0.10500,-0.14000,-0.01800,0.57200,0.49000,-1.31800,79.75000,-0.20000
041225_04.32.02.606,-0.03600,-0.00300,0.99600,0.05300,-0.12300,-0.05300,0.56800,0.48900,-1.32500,79.45000,-0.30000
041225_04.32.02.618,-0.03700,-0.00400,1.00800,0.07000,-0.15700,-0.03500,0.57400,0.49300,-1.32600,79.65000,0.20000
041225_04.32.02.629,-0.03200,-0.00300,0.99500,0.10500,-0.12300,-0.03500,0.57400,0.49300,-1.32600,79.91000,0.26000
041225_04.32.02.641,-0.03900,-0.00400,1.00700,0.08700,-0.14000,-0.01800,0.56500,0.49200,-1.32700,79.98000,0.07000
041225_04.32.02.652,-0.03600,-0.00300,1.00400,0.12300,-0.14000,0.00000,0.56500,0.49200,-1.32200,79.67000,-0.31000
041225_04.32.02.663,-0.03800,-0.00400,0.99500,0.07000,-0.12300,-0.03500,0.56800,0.49200,-1.32300,79.75000,0.08000
041225_04.32.02.675,-0.03600,-0.00500,1.00500,0.07000,-0.14000,-0.01800,0.57200,0.49300,-1.32200,79.77000,0.02000
041225_04.32.02.686,-0.03500,-0.00200,0.99400,0.08700,-0.08700,-0.01800,0.57200,0.49300,-1.32200,79.12000,-0.65000
041225_04.32.02.698,-0.03900,-0.00300,1.00700,0.08700,-0.08700,-0.01800,0.57300,0.49000,-1.32500,79.53000,0.41000
041225_04.32.02.709,-0.03400,-0.00100,0.99600,0.05300,-0.07000,-0.01800,0.57800,0.48900,-1.32700,80.10000,0.57000
041225_04.32.02.721,-0.03700,-0.00400,1.00800,0.07000,-0.10500,0.00000,0.57700,0.49800,-1.33000,80.33000,0.23000
041225_04.32.02.732,-0.03500,-0.00100,0.99400,0.08700,-0.07000,-0.01800,0.57700,0.49800,-1.33000,80.21000,-0.12000
041225_04.32.02.744,-0.04100,-0.00000,1.00700,0.08700,-0.07000,-0.01800,0.58200,0.49000,-1.32600,79.80000,-0.41000
041225_04.32.02.755,-0.03900,-0.00100,1.00300,0.08700,-0.07000,0.01800,0.58500,0.49000,-1.32500,80.13000,0.33000
041225_04.32.02.767,-0.04100,-0.00200,0.99700,0.05300,-0.08700,-0.01800,0.58100,0.48600,-1.32500,80.11000,-0.02000
041225_04.32.02.778,-0.03800,-0.00300,1.00600,0.10500,-0.07000,0.00000,0.58400,0.49100,-1.32200,79.74000,-0.37000
041225_04.32.02.790,-0.03900,-0.00000,0.99500,0.14000,-0.05300,-0.01800,0.58400,0.49100,-1.32200,80.12000,0.38000
041225_04.32.02.801,-0.04200,0.00000,1.00800,0.08700,-0.08700,0.00000,0.58800,0.49100,-1.32500,79.65000,-0.47000
041225_04.32.02.812,-0.04000,-0.00200,1.00100,0.08700,-0.07000,0.01800,0.58600,0.49200,-1.32200,80.01000,0.36000
041225_04.32.02.824,-0.04400,-0.00300,1.00000,0.08700,-0.10500,0.00000,0.58200,0.49100,-1.32600,80.62000,0.61000
041225_04.32.02.835,-0.04100,-0.00400,1.00500,0.10500,-0.10500,-0.01800,0.58200,0.49800,-1.32300,79.64000,-0.98000
041225_04.32.02.847,-0.04000,-0.00200,0.99500,0.10500,-0.07000,-0.01800,0.58200,0.49800,-1.32300,79.55000,-0.09000
041225_04.32.02.858,-0.04300,-0.00000,1.00600,0.10500,-0.12300,0.00000,0.57700,0.49500,-1.32000,80.63000,1.08000
041225_04.32.02.870,-0.04300,-0.00100,1.00400,0.08700,-0.14000,0.00000,0.57900,0.49100,-1.32400,80.21000,-0.42000
041225_04.32.02.881,-0.04700,-0.00400,1.00300,0.10500,-0.14000,0.00000,0.57500,0.49000,-1.32900,79.87000,-0.34000
041225_04.32.02.893,-0.04300,0.00000,0.99700,0.10500,-0.10500,-0.01800,0.57500,0.49000,-1.32900,79.84000,-0.03000
041225_04.32.02.904,-0.04300,-0.00200,1.00700,0.10500,-0.15700,0.00000,0.57200,0.49200,-1.32900,80.26000,0.42000
041225_04.32.02.915,-0.04300,-0.00000,1.00000,0.08700,-0.08700,-0.01800,0.56700,0.49200,-1.32500,79.25000,-1.01000
041225_04.32.02.927,-0.04500,-0.00500,1.00300,0.05300,-0.14000,0.00000,0.57000,0.49500,-1.32100,79.74000,0.49000
041225_04.32.02.938,-0.04200,-0.00400,1.00300,0.08700,-0.14000,-0.01800,0.57300,0.49100,-1.32700,79.88000,0.14000
041225_04.32.02.950,-0.04500,-0.00300,0.99900,0.10500,-0.10500,-0.01800,0.57300,0.49100,-1.32700,79.04000,-0.84000
041225_04.32.02.961,-0.04200,-0.00100,1.00500,0.12300,-0.15700,-0.01800,0.56900,0.48800,-1.32800,79.89000,0.85000
041225_04.32.02.973,-0.04300,-0.00200,0.99800,0.10500,-0.14000,-0.01800,0.57200,0.49100,-1.32500,79.59000,-0.30000
041225_04.32.02.984,-0.04500,-0.00500,1.00400,0.08700,-0.17500,-0.01800,0.57900,0.49200,-1.32400,79.86000,0.27000
041225_04.32.02.996,-0.03900,-0.00200,0.99900,0.12300,-0.14000,-0.03500,0.57900,0.49200,-1.32400,80.58000,0.72000
041225_04.32.03.007,-0.04300,-0.00300,1.00000,0.07000,-0.14000,-0.01800,0.57800,0.48900,-1.32200,79.84000,-0.74000
041225_04.32.03.019,-0.04200,-0.00200,1.00500,0.07000,-0.17500,-0.01800,0.58000,0.48900,-1.32400,80.51000,0.67000
041225_04.32.03.030,-0.04100,-0.00100,0.99600,0.08700,-0.12300,-0.01800,0.57700,0.48900,-1.32200,79.74000,-0.77000
041225_04.32.03.042,-0.04300,-0.00600,1.00500,0.10500,-0.15700,-0.01800,0.58100,0.49100,-1.32500,80.78000,1.04000
041225_04.32.03.053,-0.03700,-0.00100,1.00300,0.08700,-0.14000,-0.03500,0.58100,0.49100,-1.32500,79.85000,-0.93000
041225_04.32.03.065,-0.03800,-0.00200,1.00500,0.10500,-0.15700,-0.03500,0.58100,0.48800,-1.33400,80.34000,0.49000
041225_04.32.03.076,-0.04000,-0.00000,0.99400,0.08700,-0.14000,-0.05300,0.58700,0.48900,-1.33300,79.70000,-0.64000
041225_04.32.03.088,-0.04000,-0.00600,1.00800,0.08700,-0.19200,-0.03500,0.58200,0.48800,-1.33100,79.60000,-0.10000
041225_04.32.03.099,-0.03500,-0.00200,0.99600,0.14000,-0.12300,-0.01800,0.58200,0.48600,-1.32200,79.23000,-0.37000
041225_04.32.03.110,-0.04200,-0.00300,1.00300,0.10500,-0.15700,-0.01800,0.57900,0.48600,-1.32200,79.98000,0.75000
041225_04.32.03.122,-0.03700,-0.00200,1.00500,0.12300,-0.17500,0.00000,0.57700,0.49100,-1.32200,79.97000,-0.01000
041225_04.32.03.133,-0.03800,-0.00100,0.99600,0.07000,-0.14000,0.00000,0.57900,0.49300,-1.32500,79.98000,0.01000
041225_04.32.03.145,-0.03800,-0.00500,1.00900,0.07000,-0.17500,0.00000,0.57200,0.48900,-1.32700,79.38000,-0.60000
041225_04.32.03.156,-0.03500,-0.00200,0.99600,0.14000,-0.12300,-0.03500,0.57200,0.48900,-1.32700,79.91000,0.53000
041225_04.32.03.168,-0.03900,-0.00200,1.00400,0.10500,-0.15700,-0.03500,0.56900,0.48900,-1.32200,79.72000,-0.19000
041225_04.32.03.179,-0.03500,-0.00200,1.00500,0.12300,-0.12300,0.00000,0.57100,0.49100,-1.32400,79.80000,0.08000
041225_04.32.03.191,-0.03700,-0.00200,0.99500,0.08700,-0.14000,0.00000,0.57000,0.49300,-1.32700,80.17000,0.37000
041225_04.32.03.202,-0.03700,-0.00500,1.00600,0.10500,-0.15700,-0.01800,0.56200,0.48800,-1.32800,80.04000,-0.13000
041225_04.32.03.214,-0.03300,0.00000,0.99500,0.10500,-0.15700,-0.01800,0.56200,0.48800,-1.32800,79.83000,-0.21000
041225_04.32.03.225,-0.03900,-0.00200,1.00500,0.10500,-0.14000,0.00000,0.55600,0.48700,-1.32600,79.42000,-0.41000
041225_04.32.03.236,-0.04100,-0.00000,0.99500,0.07000,-0.12300,-0.01800,0.56800,0.49000,-1.32900,80.22000,0.80000
041225_04.32.03.248,-0.03700,-0.00400,1.00600,0.10500,-0.14000,-0.01800,0.57300,0.49200,-1.33200,79.39000,-0.83000
041225_04.32.03.259,-0.03400,-0.00100,0.99500,0.14000,-0.08700,-0.01800,0.57300,0.49200,-1.33200,80.13000,0.74000
041225_04.32.03.271,-0.04200,-0.00200,1.00600,0.12300,-0.10500,0.00000,0.56700,0.48600,-1.33200,80.15000,0.02000
041225_04.32.03.282,-0.03800,-0.00200,1.00300,0.12300,-0.08700,-0.03500,0.56800,0.48900,-1.32800,79.75000,-0.40000
041225_04.32.03.294,-0.04100,-0.00200,0.99500,0.07000,-0.10500,-0.01800,0.57200,0.48800,-1.33000,80.35000,0.60000
041225_04.32.03.305,-0.03800,-0.00400,1.00400,0.08700,-0.10500,0.00000,0.57800,0.48700,-1.32500,80.15000,-0.20000
041225_04.32.03.317,-0.03900,-0.00100,0.99600,0.12300,-0.07000,-0.01800,0.57800,0.48700,-1.32500,80.54000,0.39000
041225_04.32.03.328,-0.04200,-0.00100,1.00600,0.10500,-0.12300,-0.01800,0.57700,0.48700,-1.33100,79.61000,-0.93000
041225_04.32.03.339,-0.03900,-0.00100,1.00400,0.12300,-0.08700,-0.01800,0.57600,0.49000,-1.32900,80.00000,0.39000
041225_04.32.03.351,-0.04300,-0.00300,1.00100,0.08700,-0.10500,-0.03500,0.58100,0.48600,-1.32800,79.59000,-0.41000
041225_04.32.03.362,-0.04000,-0.00500,1.00300,0.08700,-0.10500,0.00000,0.58100,0.48600,-1.32800,79.99000,0.40000
041225_04.32.03.374,-0.04000,-0.00100,0.99600,0.14000,-0.07000,-0.01800,0.57800,0.48500,-1.32800,79.64000,-0.35000
041225_04.32.03.385,-0.04300,-0.00100,1.00600,0.08700,-0.08700,-0.03500,0.57800,0.48900,-1.32600,79.78000,0.14000
041225_04.32.03.397,-0.04600,-0.00400,1.00100,0.07000,-0.14000,-0.03500,0.57400,0.48600,-1.32700,80.62000,0.84000
041225_04.32.03.408,-0.03800,-0.00300,1.00300,0.10500,-0.12300,-0.03500,0.57000,0.48600,-1.32000,79.43000,-1.19000
041225_04.32.03.420,-0.04100,-0.00300,0.99800,0.12300,-0.08700,-0.01800,0.57000,0.48600,-1.32000,79.43000,0.00000
041225_04.32.03.431,-0.04200,-0.00100,1.00600,0.12300,-0.15700,-0.01800,0.57300,0.48800,-1.32400,79.68000,0.25000
041225_04.32.03.443,-0.04000,-0.00100,0.99700,0.10500,-0.10500,-0.01800,0.57300,0.49300,-1.32600,79.34000,-0.34000
041225_04.32.03.454,-0.04500,-0.00400,1.00400,0.08700,-0.14000,-0.01800,0.56800,0.48800,-1.32500,80.03000,0.69000
041225_04.32.03.466,-0.04000,-0.00500,1.00000,0.14000,-0.12300,-0.03500,0.56400,0.48800,-1.31500,79.92000,-0.11000
041225_04.32.03.477,-0.04100,-0.00300,0.99900,0.14000,-0.12300,-0.01800,0.56400,0.48800,-1.31500,80.03000,0.11000
041225_04.32.03.489,-0.04200,-0.00100,1.00600,0.10500,-0.15700,0.00000,0.56800,0.48900,-1.32000,80.09000,0.06000
041225_04.32.03.500,-0.03900,-0.00000,0.99700,0.10500,-0.12300,-0.01800,0.56400,0.49100,-1.32600,80.01000,-0.08000
041225_04.32.03.512,-0.04400,-0.00600,1.00500,0.07000,-0.15700,-0.03500,0.56800,0.48800,-1.32800,80.44000,0.43000
041225_04.32.03.523,-0.03700,-0.00400,0.99800,0.12300,-0.15700,-0.01800,0.56800,0.48800,-1.32800,80.42000,-0.02000
041225_04.32.03.534,-0.04200,-0.00000,1.00000,0.14000,-0.15700,-0.01800,0.57100,0.49000,-1.32800,80.01000,-0.41000
041225_04.32.03.546,-0.04000,-0.00200,1.00500,0.12300,-0.15700,0.00000,0.57100,0.49100,-1.32800,80.41000,0.40000
041225_04.32.03.557,-0.03900,0.00100,0.99600,0.07000,-0.15700,-0.01800,0.57300,0.48800,-1.32400,79.38000,-1.03000
041225_04.32.03.569,-0.03500,-0.00300,0.99600,0.10500,-0.12300,0.00000,0.57700,0.49100,-1.32100,79.88000,0.50000
041225_04.32.03.580,-0.04200,-0.00200,1.00100,0.08700,-0.12300,0.00000,0.57700,0.49100,-1.32100,79.38000,-0.50000
041225_04.32.03.592,-0.04000,-0.00200,1.00700,0.12300,-0.14000,0.00000,0.57500,0.48800,-1.32100,80.12000,0.74000
041225_04.32.03.603,-0.04100,0.00000,0.99300,0.10500,-0.12300,0.00000,0.57700,0.48400,-1.32800,80.28000,0.16000
041225_04.32.03.615,-0.04300,-0.00600,1.00800,0.08700,-0.19200,-0.01800,0.58000,0.48800,-1.32100,80.13000,-0.15000
041225_04.32.03.626,-0.03600,-0.00300,0.99700,0.10500,-0.12300,0.00000,0.58000,0.48800,-1.32100,80.53000,0.40000
041225_04.32.03.637,-0.04200,-0.00300,1.00500,0.12300,-0.10500,0.00000,0.58300,0.49000,-1.32700,79.74000,-0.79000
041225_04.32.03.649,-0.03800,-0.00200,1.00600,0.12300,-0.12300,0.00000,0.58300,0.49000,-1.32700,79.89000,0.15000
041225_04.32.03.660,-0.04000,0.00100,0.99600,0.08700,-0.10500,0.00000,0.57900,0.49000,-1.32200,79.95000,0.06000
041225_04.32.03.672,-0.04200,-0.00400,1.00800,0.08700,-0.15700,-0.01800,0.57600,0.48900,-1.32300,79.04000,-0.91000
041225_04.32.03.683,-0.03500,-0.00500,0.99600,0.10500,-0.14000,-0.01800,0.57600,0.48900,-1.32300,80.04000,1.00000
041225_04.32.03.695,-0.04400,-0.00300,1.00300,0.10500,-0.12300,-0.03500,0.57600,0.49300,-1.32000,80.39000,0.35000
041225_04.32.03.706,-0.03900,-0.00200,1.00700,0.10500,-0.12300,-0.01800,0.57900,0.49500,-1.32100,80.35000,-0.04000
041225_04.32.03.718,-0.04100,-0.00000,0.99300,0.07000,-0.14000,-0.03500,0.57600,0.49000,-1.32600,79.54000,-0.81000
041225_04.32.03.729,-0.04000,-0.00600,1.00600,0.14000,-0.10500,-0.01800,0.57600,0.49300,-1.32700,80.15000,0.61000
041225_04.32.03.741,-0.04200,-0.00100,1.00500,0.12300,-0.14000,-0.01800,0.57000,0.49300,-1.32700,79.31000,-0.84000
041225_04.32.03.752,-0.03800,-0.00000,1.00500,0.12300,-0.12300,-0.01800,0.57100,0.48800,-1.32600,79.98000,0.67000
041225_04.32.03.764,-0.04000,-0.00100,0.99500,0.08700,-0.12300,-0.03500,0.56900,0.48800,-1.32600,79.95000,-0.03000
041225_04.32.03.775,-0.03800,-0.00600,1.00800,0.08700,-0.17500,-0.03500,0.56600,0.48700,-1.32800,80.04000,0.09000
041225_04.32.03.786,-0.03500,-0.00300,0.99600,0.12300,-0.12300,-0.03500,0.56600,0.48700,-1.32800,80.23000,0.19000
041225_04.32.03.798,-0.04100,-0.00200,1.00200,0.10500,-0.12300,-0.03500,0.56400,0.49000,-1.32000,80.41000,0.18000
041225_04.32.03.810,-0.03700,-0.00200,1.00700,0.10500,-0.10500,0.00000,0.56000,0.48900,-1.33400,79.93000,-0.48000
041225_04.32.03.821,-0.04000,-0.00400,0.99800,0.08700,-0.14000,0.00000,0.56900,0.48800,-1.33100,80.18000,0.25000
041225_04.32.03.833,-0.03700,-0.00500,1.00100,0.08700,-0.15700,-0.01800,0.56600,0.49200,-1.32700,79.66000,-0.52000
041225_04.32.03.844,-0.03800,-0.00200,0.99300,0.12300,-0.10500,-0.03500,0.56600,0.49200,-1.32700,79.93000,0.27000
041225_04.32.03.855,-0.03800,-0.00200,1.00500,0.10500,-0.14000,-0.03500,0.57100,0.48700,-1.32700,79.34000,-0.59000
041225_04.32.03.867,-0.03800,-0.00100,1.00100,0.10500,-0.10500,0.00000,0.57900,0.48800,-1.32900,79.65000,0.31000
041225_04.32.03.878,-0.04200,-0.00100,0.99800,0.05300,-0.14000,-0.01800,0.57800,0.49100,-1.32700,79.90000,0.25000
041225_04.32.03.890,-0.03600,-0.00500,1.00000,0.07000,-0.12300,-0.03500,0.57800,0.49100,-1.32700,79.95000,0.05000
041225_04.32.03.901,-0.03600,-0.00300,0.99500,0.08700,-0.12300,-0.01800,0.58300,0.49000,-1.33400,80.01000,0.06000
041225_04.32.03.913,-0.04000,-0.00100,1.00200,0.10500,-0.08700,-0.01800,0.57900,0.49100,-1.32600,79.54000,-0.47000
041225_04.32.03.924,-0.04600,-0.00400,1.00300,0.05300,-0.12300,-0.03500,0.58200,0.48900,-1.32000,79.69000,0.15000
041225_04.32.03.936,-0.03700,-0.00500,1.00200,0.08700,-0.12300,-0.01800,0.58400,0.48800,-1.32400,79.79000,0.10000
041225_04.32.03.947,-0.04000,-0.00000,0.99900,0.12300,-0.07000,0.01800,0.58400,0.48800,-1.32400,79.86000,0.07000
041225_04.32.03.958,-0.04100,-0.00200,1.00700,0.08700,-0.10500,-0.01800,0.58200,0.48800,-1.32600,79.88000,0.02000
041225_04.32.03.970,-0.04000,0.00100,1.00000,0.10500,-0.08700,-0.01800,0.57600,0.48400,-1.32700,79.96000,0.08000
041225_04.32.03.981,-0.04600,-0.00300,1.00400,0.03500,-0.12300,-0.01800,0.57500,0.49000,-1.32500,80.12000,0.16000
041225_04.32.03.993,-0.03900,-0.00500,1.00000,0.10500,-0.10500,-0.01800,0.57500,0.49000,-1.32600,79.73000,-0.39000
041225_04.32.04.004,-0.04300,-0.00400,0.99700,0.12300,-0.08700,-0.01800,0.57600,0.48800,-1.32600,79.67000,-0.06000
041225_04.32.04.016,-0.04100,-0.00100,1.00900,0.10500,-0.12300,0.01800,0.57600,0.48700,-1.32500,79.77000,0.10000
041225_04.32.04.027,-0.04100,-0.00000,0.99900,0.10500,-0.10500,0.00000,0.56900,0.48600,-1.32700,80.03000,0.26000
041225_04.32.04.039,-0.04600,-0.00400,1.00700,0.08700,-0.14000,0.00000,0.56700,0.48800,-1.32000,79.49000,-0.54000
041225_04.32.04.050,-0.03700,-0.00500,0.99700,0.10500,-0.12300,-0.01800,0.56700,0.48800,-1.32000,79.64000,0.15000
041225_04.32.04.062,-0.04300,-0.00300,0.99800,0.12300,-0.17500,-0.03500,0.56700,0.48900,-1.33000,80.35000,0.71000
041225_04.32.04.073,-0.04100,-0.00100,0.97700,0.12300,-0.12300,-0.01800,0.56400,0.48800,-1.31900,80.11000,-0.24000
041225_04.32.04.084,-0.04300,-0.00300,1.00600,0.07000,-0.17500,-0.01800,0.56700,0.48600,-1.32600,80.47000,0.36000
041225_04.32.04.096,-0.03700,-0.00400,1.00000,0.08700,-0.12300,-0.01800,0.57000,0.48600,-1.32700,80.29000,-0.18000
041225_04.32.04.107,-0.04200,-0.00200,0.99900,0.08700,-0.12300,-0.01800,0.57000,0.48600,-1.32700,80.19000,-0.10000
041225_04.32.04.119,-0.03900,-0.00100,1.00900,0.12300,-0.14000,-0.01800,0.57100,0.48800,-1.32000,79.38000,-0.81000
041225_04.32.04.130,-0.04000,0.00000,0.99300,0.08700,-0.10500,-0.01800,0.57900,0.48800,-1.32800,80.12000,0.74000
041225_04.32.04.142,-0.04200,-0.00500,1.00600,0.07000,-0.17500,-0.01800,0.57900,0.49100,-1.32700,79.64000,-0.48000
041225_04.32.04.152,-0.03500,-0.00500,0.99700,0.08700,-0.12300,-0.01800,0.57900,0.49100,-1.32700,79.95000,0.31000
041225_04.32.04.164,-0.04200,-0.00000,0.99900,0.10500,-0.14000,-0.01800,0.57900,0.48500,-1.32200,79.43000,-0.52000
041225_04.32.04.175,-0.04000,-0.00100,1.00800,0.12300,-0.14000,0.00000,0.57700,0.49000,-1.32700,80.01000,0.58000
041225_04.32.04.187,-0.03900,0.00000,0.99200,0.10500,-0.12300,-0.01800,0.58200,0.49300,-1.31600,79.84000,-0.17000
041225_04.32.04.198,-0.04200,-0.00500,1.00700,0.07000,-0.17500,-0.01800,0.58300,0.49400,-1.32400,79.98000,0.14000
041225_04.32.04.210,-0.03700,-0.00300,1.00000,0.12300,-0.12300,-0.01800,0.58300,0.49400,-1.32400,79.73000,-0.25000
041225_04.32.04.221,-0.04100,-0.00200,0.99900,0.10500,-0.15700,-0.01800,0.58100,0.49000,-1.32800,79.59000,-0.14000
041225_04.32.04.233,-0.03900,-0.00100,1.00700,0.12300,-0.12300,-0.03500,0.57500,0.48800,-1.31900,80.10000,0.51000
041225_04.32.04.244,-0.04100,-0.00200,1.02700,0.07000,-0.14000,-0.03500,0.57700,0.49000,-1.31700,79.52000,-0.58000
041225_04.32.04.255,-0.03700,-0.00300,0.99800,0.10500,-0.12300,-0.01800,0.57700,0.49000,-1.31700,79.78000,0.26000
041225_04.32.04.267,-0.04300,-0.00200,1.00400,0.07000,-0.15700,-0.03500,0.57400,0.48900,-1.31200,80.38000,0.60000
041225_04.32.04.278,-0.04000,-0.00100,1.00700,0.08700,-0.12300,-0.01800,0.57100,0.49100,-1.32000,80.46000,0.08000
041225_04.32.04.290,-0.04000,-0.00200,0.99800,0.07000,-0.14000,-0.03500,0.57000,0.49100,-1.31900,79.98000,-0.48000
041225_04.32.04.301,-0.04000,-0.00400,1.00400,0.05300,-0.14000,-0.03500,0.56800,0.49200,-1.31400,79.92000,-0.06000
041225_04.32.04.313,-0.03700,-0.00400,0.99600,0.08700,-0.08700,-0.01800,0.56800,0.49200,-1.31400,80.38000,0.46000
041225_04.32.04.324,-0.04100,-0.00200,1.00200,0.07000,-0.14000,-0.01800,0.57000,0.48800,-1.32100,79.93000,-0.45000
041225_04.32.04.336,-0.03900,-0.00100,1.00700,0.08700,-0.12300,-0.01800,0.56600,0.48800,-1.32800,79.88000,-0.05000
041225_04.32.04.347,-0.04000,-0.00300,0.99900,0.07000,-0.14000,-0.03500,0.56600,0.49100,-1.32500,79.62000,-0.26000
041225_04.32.04.359,-0.03800,-0.00400,1.00200,0.08700,-0.14000,-0.01800,0.56500,0.49200,-1.32000,79.83000,0.21000
041225_04.32.04.370,-0.03800,-0.00400,0.99500,0.12300,-0.10500,0.00000,0.56500,0.49200,-1.32000,79.79000,-0.04000
041225_04.32.04.382,-0.04000,-0.00400,1.00500,0.12300,-0.14000,-0.01800,0.56800,0.49300,-1.32400,79.75000,-0.04000
041225_04.32.04.393,-0.03800,-0.00200,1.00200,0.10500,-0.12300,0.00000,0.56900,0.49200,-1.33000,79.66000,-0.09000
041225_04.32.04.404,-0.04100,-0.00300,0.99900,0.08700,-0.12300,-0.01800,0.57500,0.49000,-1.32400,79.72000,0.06000
041225_04.32.04.416,-0.03700,-0.00500,0.97100,0.12300,-0.10500,-0.01800,0.57500,0.49000,-1.32400,80.05000,0.33000
041225_04.32.04.427,-0.04000,-0.00200,1.00800,0.10500,-0.14000,-0.01800,0.57500,0.48600,-1.31600,80.09000,0.04000
041225_04.32.04.439,-0.03800,-0.00200,1.00100,0.12300,-0.10500,0.00000,0.57900,0.48600,-1.32000,80.49000,0.40000
041225_04.32.04.450,-0.04300,-0.00500,1.00100,0.07000,-0.14000,0.00000,0.58300,0.48600,-1.33000,79.52000,-0.97000
041225_04.32.04.462,-0.03600,-0.00400,1.00200,0.10500,-0.14000,-0.01800,0.57900,0.49100,-1.33200,79.58000,0.06000
041225_04.32.04.473,-0.03900,-0.00200,0.99500,0.10500,-0.07000,0.00000,0.57900,0.49100,-1.33200,80.40000,0.82000
041225_04.32.04.485,-0.04100,-0.00200,1.00900,0.12300,-0.12300,0.00000,0.57700,0.48800,-1.33100,79.96000,-0.44000
041225_04.32.04.496,-0.03700,-0.00100,0.99900,0.12300,-0.08700,0.00000,0.57900,0.48900,-1.33200,79.79000,-0.17000
041225_04.32.04.507,-0.04400,-0.00400,1.00500,0.08700,-0.10500,-0.01800,0.57800,0.49400,-1.33300,79.34000,-0.45000
041225_04.32.04.519,-0.03700,-0.00500,1.00400,0.08700,-0.12300,-0.01800,0.57800,0.49400,-1.33300,79.95000,0.61000
041225_04.32.04.530,-0.03800,-0.00200,0.99600,0.12300,-0.08700,0.00000,0.57400,0.49100,-1.32700,79.79000,-0.16000
041225_04.32.04.542,-0.04200,-0.00000,1.01100,0.12300,-0.12300,0.00000,0.57200,0.49000,-1.32200,80.00000,0.21000
041225_04.32.04.553,-0.03900,-0.00100,0.99700,0.10500,-0.07000,-0.01800,0.57200,0.49000,-1.31900,79.67000,-0.33000
041225_04.32.04.565,-0.04500,-0.00400,1.00500,0.03500,-0.12300,-0.01800,0.57100,0.48700,-1.32000,79.83000,0.16000
041225_04.32.04.576,-0.03800,-0.00400,1.00100,0.08700,-0.10500,-0.03500,0.57100,0.48700,-1.32000,80.10000,0.27000
041225_04.32.04.588,-0.04100,0.00100,1.01000,0.10500,-0.15700,-0.01800,0.56900,0.48800,-1.31900,79.77000,-0.33000
041225_04.32.04.599,-0.03900,0.00100,0.99500,0.08700,-0.12300,-0.01800,0.56700,0.49100,-1.31900,79.89000,0.12000
041225_04.32.04.610,-0.04600,-0.00200,1.00600,0.05300,-0.15700,-0.03500,0.56300,0.48700,-1.32400,79.54000,-0.35000
041225_04.32.04.622,-0.03800,-0.00300,1.00000,0.08700,-0.12300,-0.01800,0.56300,0.48700,-1.31900,79.43000,-0.11000
041225_04.32.04.633,-0.04100,-0.00100,0.99300,0.10500,-0.10500,-0.01800,0.56500,0.48700,-1.31900,79.75000,0.32000
041225_04.32.04.645,-0.04200,-0.00100,1.01000,0.08700,-0.12300,0.00000,0.56500,0.49100,-1.32300,80.04000,0.29000
041225_04.32.04.656,-0.04100,0.00000,0.99500,0.07000,-0.10500,-0.01800,0.56700,0.48600,-1.32500,80.05000,0.01000
041225_04.32.04.668,-0.04500,-0.00400,1.00700,0.05300,-0.12300,-0.01800,0.56400,0.49200,-1.32600,79.73000,-0.32000
041225_04.32.04.679,-0.03700,-0.00300,1.00100,0.10500,-0.10500,-0.03500,0.56400,0.49200,-1.32600,79.48000,-0.25000
041225_04.32.04.691,-0.04200,-0.00100,0.99800,0.08700,-0.10500,-0.03500,0.57400,0.48800,-1.31700,79.63000,0.15000
041225_04.32.04.702,-0.04100,-0.00100,1.01000,0.08700,-0.12300,0.00000,0.57400,0.49000,-1.32200,80.23000,0.60000
041225_04.32.04.714,-0.04100,-0.00000,0.99500,0.07000,-0.08700,-0.01800,0.57800,0.48900,-1.32400,79.94000,-0.29000
041225_04.32.04.725,-0.04300,-0.00300,1.00600,0.05300,-0.14000,-0.03500,0.57800,0.49400,-1.31800,79.62000,-0.32000
041225_04.32.04.736,-0.03800,-0.00500,1.00000,0.10500,-0.10500,0.00000,0.57800,0.49400,-1.31800,80.35000,0.73000
041225_04.32.04.748,-0.04100,-0.00300,0.99900,0.12300,-0.12300,0.00000,0.58200,0.48700,-1.32100,79.52000,-0.83000
041225_04.32.04.759,-0.04100,-0.00200,0.99400,0.08700,-0.12300,-0.01800,0.57900,0.48900,-1.31800,79.75000,0.23000
041225_04.32.04.771,-0.04000,-0.00600,1.00500,0.08700,-0.15700,-0.01800,0.58500,0.49100,-1.31900,80.15000,0.40000
041225_04.32.04.782,-0.03800,-0.00400,1.00100,0.10500,-0.07000,-0.01800,0.58500,0.49100,-1.31900,80.21000,0.06000
041225_04.32.04.794,-0.04300,-0.00100,1.00300,0.10500,-0.12300,0.00000,0.58200,0.49000,-1.32200,80.09000,-0.12000
041225_04.32.04.805,-0.03800,-0.00200,1.00500,0.10500,-0.15700,0.00000,0.57100,0.48900,-1.31900,80.30000,0.21000
041225_04.32.04.817,-0.04200,-0.00100,0.99400,0.07000,-0.14000,-0.01800,0.57600,0.49200,-1.31900,79.64000,-0.66000
041225_04.32.04.828,-0.04000,-0.00500,1.00400,0.08700,-0.17500,-0.01800,0.57200,0.49200,-1.30900,79.39000,-0.25000
041225_04.32.04.839,-0.03600,-0.00400,0.99800,0.12300,-0.12300,0.00000,0.57200,0.49200,-1.30900,79.64000,0.25000
041225_04.32.04.851,-0.04300,-0.00300,1.00300,0.10500,-0.17500,0.00000,0.57100,0.49200,-1.31900,79.74000,0.10000
041225_04.32.04.862,-0.03800,-0.00100,1.00600,0.12300,-0.14000,-0.01800,0.56500,0.48900,-1.32200,79.97000,0.23000
041225_04.32.04.874,-0.04200,-0.00200,0.99800,0.08700,-0.14000,-0.01800,0.56500,0.49300,-1.31400,80.05000,0.08000
041225_04.32.04.885,-0.03700,-0.00500,1.00400,0.08700,-0.17500,0.00000,0.56500,0.49300,-1.31800,80.12000,0.07000
041225_04.32.04.897,-0.03800,-0.00300,0.99600,0.14000,-0.08700,-0.01800,0.56500,0.49500,-1.31800,79.92000,-0.20000
041225_04.32.04.908,-0.04000,-0.00200,1.00800,0.10500,-0.15700,0.00000,0.56300,0.49100,-1.32400,80.61000,0.69000
041225_04.32.04.920,-0.03700,-0.00200,1.00100,0.07000,-0.08700,-0.01800,0.56000,0.48700,-1.31500,80.26000,-0.35000
041225_04.32.04.931,-0.04200,-0.00300,1.00400,0.08700,-0.14000,-0.01800,0.56600,0.49000,-1.32200,80.16000,-0.10000
041225_04.32.04.943,-0.03600,-0.00300,0.99600,0.10500,-0.10500,-0.01800,0.56600,0.49000,-1.32200,79.55000,-0.61000
041225_04.32.04.954,-0.04000,-0.00200,1.00900,0.08700,-0.12300,-0.03500,0.56700,0.49200,-1.32600,80.24000,0.69000
041225_04.32.04.966,-0.03800,-0.00100,1.00000,0.08700,-0.07000,-0.01800,0.57300,0.48900,-1.32600,80.26000,0.02000
041225_04.32.04.977,-0.04300,-0.00100,1.00100,0.05300,-0.10500,-0.01800,0.57300,0.49200,-1.32100,79.57000,-0.69000
041225_04.32.04.988,-0.03700,-0.00400,1.00200,0.10500,-0.14000,-0.01800,0.57500,0.49100,-1.32600,79.57000,0.00000
041225_04.32.05.000,-0.03700,0.00000,0.99500,0.10500,-0.07000,-0.01800,0.57500,0.49100,-1.32600,80.22000,0.65000
041225_04.32.05.012,-0.04100,-0.00200,1.00900,0.08700,-0.12300,-0.01800,0.57800,0.49100,-1.32300,79.93000,-0.29000
041225_04.32.05.023,-0.03700,0.00000,0.99700,0.10500,-0.10500,-0.01800,0.58000,0.48900,-1.32800,80.14000,0.21000
041225_04.32.05.035,-0.04400,-0.00200,1.00300,0.05300,-0.14000,0.00000,0.57800,0.48700,-1.32900,80.19000,0.05000
041225_04.32.05.046,-0.03600,-0.00300,1.00400,0.08700,-0.14000,-0.01800,0.57800,0.48700,-1.32900,79.62000,-0.57000
041225_04.32.05.058,-0.03800,0.00000,0.99300,0.10500,-0.10500,-0.01800,0.58000,0.48900,-1.33500,80.28000,0.66000
041225_04.32.05.070,-0.04100,-0.00100,1.01100,0.08700,-0.14000,-0.01800,0.57700,0.48800,-1.32000,79.82000,-0.46000
041225_04.32.05.081,-0.03900,-0.00000,0.99900,0.10500,-0.12300,-0.01800,0.57900,0.49100,-1.32800,79.86000,0.04000
041225_04.32.05.093,-0.04400,-0.00300,1.00300,0.08700,-0.12300,0.00000,0.57600,0.49000,-1.32600,80.19000,0.33000
041225_04.32.05.104,-0.03800,0.02800,0.99500,0.10500,-0.10500,-0.01800,0.57600,0.49000,-1.32600,79.90000,-0.29000
041225_04.32.05.115,-0.04200,0.00100,1.01300,0.08700,-0.14000,-0.01800,0.57300,0.48800,-1.32500,80.26000,0.36000
041225_04.32.05.127,-0.04000,-0.00000,0.99500,0.08700,-0.10500,0.00000,0.57100,0.49400,-1.32600,79.30000,-0.96000
041225_04.32.05.138,-0.04500,-0.00300,1.00200,0.07000,-0.14000,-0.01800,0.56800,0.49300,-1.32000,79.80000,0.50000
041225_04.32.05.150,-0.03900,-0.00400,1.00400,0.10500,-0.14000,-0.01800,0.56800,0.49300,-1.32000,79.94000,0.14000
041225_04.32.05.161,-0.04100,-0.00100,0.99600,0.10500,-0.12300,-0.01800,0.56600,0.49200,-1.32700,79.89000,-0.05000
041225_04.32.05.173,-0.04100,-0.00200,1.00900,0.10500,-0.12300,0.00000,0.56100,0.48900,-1.31800,79.48000,-0.41000
041225_04.32.05.184,-0.04200,-0.00200,0.99700,0.10500,-0.10500,0.00000,0.56100,0.48900,-1.32300,79.83000,0.35000
041225_04.32.05.196,-0.04400,-0.00600,1.00600,0.10500,-0.14000,0.00000,0.56400,0.49000,-1.33100,80.45000,0.62000
041225_04.32.05.207,-0.03700,-0.00300,1.00200,0.14000,-0.12300,0.00000,0.56400,0.49000,-1.33100,79.99000,-0.46000
041225_04.32.05.218,-0.04000,-0.00100,0.99900,0.08700,-0.12300,-0.01800,0.56300,0.49000,-1.32400,80.41000,0.42000
041225_04.32.05.230,-0.04000,-0.00200,1.00800,0.12300,-0.15700,-0.01800,0.56700,0.49200,-1.32600,80.17000,-0.24000
041225_04.32.05.241,-0.03800,0.00000,0.99700,0.12300,-0.10500,0.00000,0.57000,0.48900,-1.33200,79.97000,-0.20000
041225_04.32.05.253,-0.04200,-0.00300,1.00600,0.10500,-0.15700,-0.01800,0.57000,0.48900,-1.32600,80.41000,0.44000
041225_04.32.05.264,-0.03700,-0.00300,1.00400,0.10500,-0.14000,-0.01800,0.57400,0.48900,-1.32600,80.34000,-0.07000
041225_04.32.05.276,-0.04000,-0.00300,1.00700,0.12300,-0.14000,-0.01800,0.57300,0.48700,-1.33400,79.89000,-0.45000
041225_04.32.05.287,-0.04000,-0.00200,0.99800,0.10500,-0.12300,-0.01800,0.57400,0.48900,-1.33200,79.59000,-0.30000
041225_04.32.05.299,-0.03900,-0.00600,1.00500,0.08700,-0.15700,0.00000,0.57800,0.48800,-1.32600,79.38000,-0.21000
041225_04.32.05.310,-0.03700,-0.00300,1.00000,0.14000,-0.12300,0.00000,0.57800,0.48800,-1.32600,79.92000,0.54000
041225_04.32.05.322,-0.04000,-0.00200,1.00200,0.10500,-0.14000,-0.01800,0.57900,0.48800,-1.32800,80.16000,0.24000
041225_04.32.05.333,-0.03600,-0.00100,1.00600,0.12300,-0.14000,-0.01800,0.57900,0.48800,-1.33300,79.98000,-0.18000
041225_04.32.05.345,-0.04000,-0.00100,0.99800,0.08700,-0.08700,0.00000,0.57500,0.48800,-1.32600,80.00000,0.02000
041225_04.32.05.356,-0.04000,-0.00400,1.00200,0.07000,-0.15700,0.00000,0.57600,0.49100,-1.32400,80.11000,0.11000
041225_04.32.05.367,-0.03700,-0.00400,0.99700,0.10500,-0.10500,0.00000,0.57600,0.49100,-1.32400,79.55000,-0.56000
041225_04.32.05.379,-0.04200,-0.00300,1.00300,0.08700,-0.10500,-0.01800,0.57400,0.49000,-1.31400,79.33000,-0.22000
041225_04.32.05.390,-0.03800,-0.00100,1.00300,0.08700,-0.10500,-0.01800,0.57500,0.49100,-1.32400,80.23000,0.90000
041225_04.32.05.402,-0.04400,-0.00300,0.99700,0.07000,-0.08700,-0.01800,0.57000,0.49500,-1.32100,79.94000,-0.29000
041225_04.32.05.413,-0.04000,-0.00400,1.00200,0.07000,-0.14000,-0.01800,0.57000,0.49500,-1.32100,79.73000,-0.21000
041225_04.32.05.425,-0.03700,-0.00300,0.99500,0.08700,-0.07000,-4.48000,0.56500,0.49000,-1.32100,80.07000,0.34000
041225_04.32.05.436,-0.04300,-0.00200,1.00700,0.14000,-0.12300,0.00000,0.56500,0.48700,-1.32600,79.59000,-0.48000
041225_04.32.05.448,-0.03900,-0.00200,0.99700,0.07000,-0.12300,0.00000,0.56400,0.48400,-1.31300,79.57000,-0.02000
041225_04.32.05.459,-0.04000,-0.00300,1.00400,0.10500,-0.14000,-0.01800,0.56200,0.48700,-1.32400,80.14000,0.57000
041225_04.32.05.471,-0.03800,-0.00200,0.99500,0.12300,-0.08700,-0.01800,0.56200,0.48700,-1.32400,79.85000,-0.29000
041225_04.32.05.482,-0.04400,-0.00300,1.00700,0.12300,-0.12300,-0.01800,0.56200,0.49200,-1.31700,80.31000,0.46000
041225_04.32.05.494,-0.03900,0.00000,1.00300,0.10500,-0.08700,-0.01800,0.55800,0.48400,-1.31900,79.99000,-0.32000
041225_04.32.05.505,-0.04500,-0.00300,1.00000,0.07000,-0.10500,-0.05300,0.56200,0.48800,-1.31700,80.11000,0.12000
041225_04.32.05.517,-0.03900,-0.00400,1.00600,0.10500,-0.14000,-0.01800,0.56200,0.48800,-1.32400,79.89000,-0.22000
041225_04.32.05.528,-0.03900,-0.00100,0.99200,0.14000,-0.10500,-0.01800,0.57100,0.49100,-1.32400,80.22000,0.33000
041225_04.32.05.539,-0.04400,-0.00200,1.01100,0.12300,-0.14000,0.00000,0.57100,0.49100,-1.32700,80.13000,-0.09000
041225_04.32.05.551,-0.03800,-0.00000,1.00000,0.12300,-0.12300,-0.03500,0.57400,0.48800,-1.32000,80.38000,0.25000
041225_04.32.05.562,-0.04300,-0.00200,1.00100,0.08700,-0.12300,-0.01800,0.57700,0.49200,-1.32100,80.54000,0.16000
041225_04.32.05.574,-0.04100,-0.00300,1.00700,0.12300,-0.14000,-0.01800,0.57700,0.49200,-1.32100,80.36000,-0.18000
041225_04.32.05.585,-0.03900,-0.00100,0.99400,0.08700,-0.10500,-0.01800,0.57800,0.49100,-1.32700,80.00000,-0.36000
041225_04.32.05.597,-0.04100,-0.00000,1.01300,0.07000,-0.14000,-0.01800,0.57900,0.48700,-1.32700,79.85000,-0.15000
041225_04.32.05.608,-0.03900,-0.00100,1.00000,0.03500,-0.14000,-0.01800,0.57700,0.49100,-1.32300,80.23000,0.38000
041225_04.32.05.620,-0.04400,-0.00500,1.00500,0.08700,-0.12300,0.00000,0.57600,0.48900,-1.32200,79.88000,-0.35000
041225_04.32.05.631,-0.03800,-0.00100,0.99500,0.08700,-0.10500,-0.03500,0.57600,0.48900,-1.32200,79.72000,-0.16000
041225_04.32.05.643,-0.04200,-0.00200,1.01200,0.08700,-0.14000,-0.01800,0.57200,0.49000,-1.31800,80.25000,0.53000
041225_04.32.05.654,-0.03700,-0.00000,0.99800,0.08700,-0.10500,-0.03500,0.57800,0.49000,-1.32200,79.99000,-0.26000
041225_04.32.05.666,-0.04400,-0.00200,1.00200,0.07000,-0.15700,-0.03500,0.57300,0.49200,-1.32500,79.78000,-0.21000
041225_04.32.05.677,-0.03700,-0.00500,1.00500,0.08700,-0.14000,-0.01800,0.57300,0.49200,-1.32500,80.18000,0.40000
041225_04.32.05.689,-0.03900,-0.00300,0.99200,0.12300,-0.08700,-0.03500,0.57100,0.49000,-1.31700,79.88000,-0.30000
041225_04.32.05.700,-0.04100,-0.00200,1.01000,0.10500,-0.14000,-0.01800,0.56800,0.48900,-1.31800,80.07000,0.19000
041225_04.32.05.711,-0.04100,-0.00200,0.99800,0.07000,-0.12300,-0.01800,0.56600,0.49000,-1.32500,79.72000,-0.35000
041225_04.32.05.723,-0.04100,-0.00400,1.00200,0.05300,-0.15700,-0.03500,0.56100,0.49200,-1.31900,79.88000,0.16000
041225_04.32.05.734,-0.03600,-0.00400,1.00200,0.12300,-0.14000,-0.01800,0.56100,0.49200,-1.31900,80.41000,0.53000
041225_04.32.05.746,-0.03800,-0.00200,0.99400,0.08700,-0.10500,-0.01800,0.56400,0.48700,-1.31300,79.68000,-0.73000
041225_04.32.05.757,-0.04000,-0.00200,1.00700,0.12300,-0.12300,-0.01800,0.56000,0.49000,-1.32000,80.34000,0.66000
041225_04.32.05.769,-0.03900,-0.00100,0.99700,0.10500,-0.10500,-0.01800,0.56600,0.49400,-1.32000,80.23000,-0.11000
041225_04.32.05.780,-0.04000,-0.00300,1.00100,0.10500,-0.12300,0.00000,0.56600,0.49400,-1.32000,80.35000,0.12000
041225_04.32.05.792,-0.03700,-0.00400,0.99800,0.08700,-0.12300,-0.01800,0.56500,0.49000,-1.31400,80.21000,-0.14000
041225_04.32.05.803,-0.03800,-0.00200,1.00700,0.12300,-0.14000,-0.01800,0.57100,0.49000,-1.31500,79.70000,-0.51000
041225_04.32.05.814,-0.04000,-0.00000,0.99800,0.08700,-0.10500,0.00000,0.57600,0.48900,-1.31800,80.09000,0.39000
041225_04.32.05.826,-0.04100,-0.00500,1.00400,0.10500,-0.15700,-0.01800,0.58000,0.48900,-1.31800,80.33000,0.24000
041225_04.32.05.837,-0.03600,-0.00500,0.99800,0.14000,-0.10500,-0.01800,0.58000,0.48900,-1.31800,79.85000,-0.48000
041225_04.32.05.849,-0.04200,-0.00300,1.00000,0.12300,-0.14000,-0.03500,0.57800,0.48800,-1.32900,80.07000,0.22000
041225_04.32.05.860,-0.03800,-0.00100,1.00400,0.12300,-0.14000,0.00000,0.57800,0.48700,-1.32200,79.61000,-0.46000
041225_04.32.05.871,-0.04200,-0.00000,0.99700,0.08700,-0.08700,0.00000,0.57800,0.49000,-1.32100,79.95000,0.34000
041225_04.32.05.883,-0.04100,-0.00500,1.00600,0.07000,-0.15700,-0.01800,0.58000,0.49000,-1.32500,80.56000,0.61000
041225_04.32.05.894,-0.03600,-0.00400,0.99900,0.07000,-0.12300,-0.01800,0.58000,0.49000,-1.32500,79.44000,-1.12000
041225_04.32.05.906,-0.04300,-0.00300,1.00700,0.10500,-0.10500,0.00000,0.58000,0.48800,-1.32000,79.87000,0.43000
041225_04.32.05.917,-0.03900,-0.00100,1.00400,0.10500,-0.10500,-0.01800,0.57600,0.49100,-1.32200,80.20000,0.33000
041225_04.32.05.929,-0.04200,-0.00100,0.99600,0.07000,-0.07000,-0.01800,0.57100,0.49300,-1.32600,79.64000,-0.56000
041225_04.32.05.940,-0.04100,-0.00700,1.00500,0.08700,-0.14000,0.00000,0.57100,0.49300,-1.32600,79.56000,-0.08000
041225_04.32.05.952,-0.03700,-0.00300,0.99700,0.10500,-0.14000,-0.01800,0.57300,0.49000,-1.31800,79.55000,-0.01000
041225_04.32.05.963,-0.03900,-0.00100,1.00100,0.12300,-0.10500,0.00000,0.57600,0.49000,-1.32300,79.92000,0.37000
041225_04.32.05.974,-0.04200,-0.00000,1.00000,0.07000,-0.12300,-0.01800,0.56500,0.49100,-1.32500,79.93000,0.01000
041225_04.32.05.986,-0.04000,-0.00400,1.00800,0.07000,-0.14000,-0.03500,0.56800,0.49100,-1.31900,79.87000,-0.06000
041225_04.32.05.997,-0.03600,-0.00400,0.99400,0.12300,-0.08700,-0.01800,0.56800,0.49100,-1.31900,79.93000,0.06000
041225_04.32.06.009,-0.04500,-0.00200,1.00700,0.12300,-0.14000,0.00000,0.56400,0.49000,-1.31400,79.95000,0.02000
041225_04.32.06.020,-0.04000,-0.00100,1.00300,0.10500,-0.08700,0.00000,0.56300,0.49000,-1.31600,80.23000,0.28000
041225_04.32.06.031,-0.04100,-0.00100,0.99800,0.05300,-0.10500,-0.01800,0.56300,0.48800,-1.32600,79.52000,-0.71000
041225_04.32.06.043,-0.04000,-0.00500,1.00500,0.08700,-0.14000,-0.03500,0.56300,0.48800,-1.32600,79.76000,0.24000
041225_04.32.06.054,-0.03700,0.00000,0.99200,0.10500,-0.08700,-0.01800,0.56500,0.48900,-1.32500,80.15000,0.39000
041225_04.32.06.066,-0.04000,-0.00200,1.00900,0.08700,-0.14000,-0.01800,0.56600,0.48600,-1.31900,79.73000,-0.42000
041225_04.32.06.077,-0.03800,-0.00100,1.00100,0.08700,-0.12300,-0.01800,0.57200,0.48400,-1.32100,79.92000,0.19000
041225_04.32.06.089,-0.04300,-0.00100,0.99900,0.07000,-0.12300,-0.01800,0.57600,0.48600,-1.31800,79.53000,-0.39000
041225_04.32.06.100,-0.03800,-0.00300,1.00500,0.07000,-0.14000,-0.03500,0.57600,0.48600,-1.31800,79.50000,-0.03000
041225_04.32.06.111,-0.03700,-0.00100,0.99100,0.10500,-0.10500,-0.01800,0.57700,0.49100,-1.32400,80.04000,0.54000
041225_04.32.06.123,-0.04300,-0.00300,1.00900,0.10500,-0.12300,-0.03500,0.57500,0.48400,-1.31900,79.88000,-0.16000
041225_04.32.06.134,-0.04200,-0.00200,0.99800,0.07000,-0.14000,-0.03500,0.58200,0.48800,-1.32000,79.67000,-0.21000
041225_04.32.06.146,-0.03600,-0.00500,1.00400,0.05300,-0.15700,-0.01800,0.58200,0.48800,-1.32600,79.67000,0.00000
041225_04.32.06.157,-0.03700,-0.00100,0.99500,0.07000,-0.10500,-0.01800,0.58200,0.48700,-1.32600,79.78000,0.11000
041225_04.32.06.168,-0.04000,-0.00200,1.00900,0.10500,-0.12300,0.00000,0.57600,0.48600,-1.32900,80.08000,0.30000
041225_04.32.06.180,-0.03700,-0.00000,0.99800,0.10500,-0.10500,-0.01800,0.57400,0.48900,-1.32400,79.73000,-0.35000
041225_04.32.06.191,-0.04300,-0.00400,0.99800,0.05300,-0.12300,-0.01800,0.57500,0.48800,-1.31900,80.02000,0.29000
041225_04.32.06.203,-0.03800,-0.00600,1.00400,0.10500,-0.12300,0.01800,0.57500,0.48800,-1.31900,80.59000,0.57000
041225_04.32.06.214,-0.03800,-0.00200,0.99600,0.10500,-0.08700,0.00000,0.57200,0.48900,-1.32400,80.46000,-0.13000
041225_04.32.06.225,-0.04100,-0.00100,1.00900,0.10500,-0.12300,0.00000,0.57500,0.48900,-1.32000,79.99000,-0.47000
041225_04.32.06.237,-0.04000,-0.00200,1.00100,0.08700,-0.08700,-0.01800,0.57200,0.49100,-1.31500,80.86000,0.87000
041225_04.32.06.248,-0.04200,-0.00400,1.00200,0.05300,-0.12300,-0.03500,0.57200,0.49300,-1.31600,79.70000,-1.16000
041225_04.32.06.260,-0.03600,-0.00600,1.00100,0.10500,-0.14000,-0.01800,0.57200,0.49300,-1.31600,79.89000,0.19000
041225_04.32.06.272,-0.04100,-0.00200,0.99700,0.10500,-0.10500,0.00000,0.57100,0.49200,-1.31200,80.03000,0.14000
041225_04.32.06.283,-0.03900,-0.00200,1.00600,0.10500,-0.14000,0.00000,0.56500,0.49000,-1.31800,79.53000,-0.50000
041225_04.32.06.295,-0.03800,-0.00200,0.99900,0.08700,-0.14000,-0.03500,0.56000,0.48700,-1.31300,79.82000,0.29000
041225_04.32.06.306,-0.03800,-0.00500,1.00100,0.12300,-0.12300,-0.01800,0.56000,0.48700,-1.31300,79.39000,-0.43000
041225_04.32.06.318,-0.04000,-0.00300,0.99900,0.12300,-0.10500,-0.01800,0.55900,0.48600,-1.31800,79.90000,0.51000
041225_04.32.06.330,-0.03900,-0.00300,1.00500,0.14000,-0.10500,0.00000,0.56300,0.48700,-1.31900,79.99000,0.09000
041225_04.32.06.341,-0.04100,-0.00100,1.00000,0.08700,-0.08700,-0.03500,0.56800,0.48900,-1.32100,79.78000,-0.21000
041225_04.32.06.353,-0.04200,-0.00500,1.00400,0.08700,-0.17500,-0.01800,0.57000,0.48700,-1.32800,80.13000,0.35000
041225_04.32.06.364,-0.03600,-0.00300,0.99900,0.12300,-0.10500,0.00000,0.57000,0.48700,-1.32800,80.03000,-0.10000
041225_04.32.06.376,-0.04200,-0.00200,1.00200,0.10500,-0.12300,-0.01800,0.57100,0.48700,-1.32500,80.22000,0.19000
041225_04.32.06.388,-0.03600,-0.00100,1.00600,0.12300,-0.15700,-0.03500,0.57900,0.48800,-1.32000,79.90000,-0.32000
041225_04.32.06.399,-0.03900,0.00100,0.99800,0.10500,-0.10500,-0.03500,0.57600,0.48700,-1.32100,79.72000,-0.18000
041225_04.32.06.411,-0.04100,-0.00400,1.00700,0.07000,-0.17500,-0.01800,0.57600,0.48700,-1.32100,80.24000,0.52000
041225_04.32.06.422,-0.03600,-0.00300,0.99600,0.12300,-0.12300,0.00000,0.57900,0.49100,-1.31600,79.78000,-0.46000
041225_04.32.06.434,-0.04300,-0.00300,1.00500,0.12300,-0.10500,-0.01800,0.57600,0.48700,-1.31800,80.35000,0.57000
041225_04.32.06.445,-0.03900,0.00100,1.00500,0.10500,-0.12300,0.00000,0.58000,0.48700,-1.32300,79.55000,-0.80000
041225_04.32.06.457,-0.04200,-0.00100,0.99600,0.07000,-0.10500,-0.01800,0.58100,0.48500,-1.32900,79.79000,0.24000
041225_04.32.06.468,-0.04100,-0.00300,1.00400,0.10500,-0.10500,-0.01800,0.58100,0.48500,-1.32900,80.19000,0.40000
041225_04.32.06.480,-0.04400,-0.00200,1.00700,0.10500,-0.14000,0.00000,0.57600,0.48600,-1.32200,79.75000,-0.44000
041225_04.32.06.491,-0.03900,-0.00000,1.00300,0.12300,-0.12300,-0.01800,0.57100,0.48700,-1.32400,79.78000,0.03000
041225_04.32.06.503,-0.04200,0.00100,0.99600,0.08700,-0.10500,-0.01800,0.57200,0.48600,-1.32400,79.91000,0.13000
041225_04.32.06.514,-0.04100,-0.00400,1.00800,0.05300,-0.15700,-0.01800,0.57400,0.49000,-1.31800,80.15000,0.24000
041225_04.32.06.526,-0.03500,-0.00200,0.99300,0.10500,-0.08700,-0.01800,0.57400,0.49000,-1.31800,79.39000,-0.76000
041225_04.32.06.537,-0.04500,-0.00200,1.00700,0.10500,-0.12300,0.00000,0.57000,0.48500,-1.32100,80.62000,1.23000
041225_04.32.06.548,-0.03800,-0.00100,1.00500,0.08700,-0.10500,-0.01800,0.57000,0.48600,-1.32000,80.19000,-0.43000
041225_04.32.06.560,-0.04400,-0.00100,0.99700,0.07000,-0.12300,-0.03500,0.56400,0.48600,-1.31700,79.66000,-0.53000
041225_04.32.06.571,-0.04000,-0.00600,1.00700,0.07000,-0.17500,-0.01800,0.56400,0.48600,-1.31700,80.16000,0.50000
041225_04.32.06.583,-0.03800,-0.00100,0.99300,0.10500,-0.12300,-0.03500,0.56400,0.48200,-1.31500,80.30000,0.14000
041225_04.32.06.594,-0.04300,-0.00200,1.00800,0.10500,-0.14000,-0.01800,0.56100,0.48600,-1.31800,80.04000,-0.26000
041225_04.32.06.606,-0.03800,-0.00100,1.00300,0.10500,-0.12300,0.00000,0.56300,0.48400,-1.32500,79.29000,-0.75000
041225_04.32.06.617,-0.04300,-0.00200,0.99600,0.08700,-0.12300,-0.01800,0.57000,0.48700,-1.32400,79.82000,0.53000
041225_04.32.06.628,-0.03800,-0.00600,1.00600,0.08700,-0.10500,-0.01800,0.57000,0.48700,-1.32400,80.41000,0.59000
041225_04.32.06.640,-0.03700,-0.00300,0.99400,0.08700,-0.14000,-0.01800,0.57200,0.48400,-1.32000,80.35000,-0.06000
041225_04.32.06.651,-0.03800,-0.00200,1.00300,0.10500,-0.12300,-0.01800,0.57900,0.48100,-1.32200,79.69000,-0.66000
041225_04.32.06.663,-0.04200,-0.00400,0.99600,0.07000,-0.15700,-0.01800,0.57800,0.48200,-1.32700,80.08000,0.39000
041225_04.32.06.674,-0.03800,-0.00500,1.00400,0.08700,-0.15700,-0.01800,0.57800,0.48200,-1.32700,79.88000,-0.20000
041225_04.32.06.686,-0.03800,-0.00200,0.99400,0.08700,-0.10500,-0.03500,0.58100,0.48400,-1.32700,79.93000,0.05000
041225_04.32.06.697,-0.03800,-0.00100,1.00700,0.07000,-0.14000,-0.03500,0.57600,0.48600,-1.32700,80.27000,0.34000
041225_04.32.06.708,-0.03700,-0.00200,1.00300,0.08700,-0.08700,-0.03500,0.57800,0.48500,-1.32500,79.98000,-0.29000
041225_04.32.06.720,-0.04300,-0.00300,1.00100,0.05300,-0.15700,-0.05300,0.58800,0.48700,-1.33300,80.66000,0.68000
041225_04.32.06.731,-0.03700,-0.00600,1.00400,0.10500,-0.14000,-0.01800,0.58800,0.48700,-1.33300,79.65000,-1.01000
041225_04.32.06.743,-0.03700,-0.00300,0.99400,0.08700,-0.10500,-0.01800,0.58200,0.48100,-1.33200,80.06000,0.41000
041225_04.32.06.754,-0.04000,-0.00300,1.00700,0.10500,-0.10500,-0.03500,0.57500,0.48300,-1.32300,80.70000,0.64000
041225_04.32.06.766,-0.04100,-0.00000,1.00100,0.07000,-0.08700,-0.03500,0.58000,0.48300,-1.32000,79.93000,-0.77000
041225_04.32.06.777,-0.04300,-0.00300,1.00000,0.03500,-0.14000,-0.03500,0.58000,0.49100,-1.31600,79.96000,0.03000
041225_04.32.06.788,-0.03600,-0.00500,1.00100,0.08700,-0.12300,-0.01800,0.57500,0.49100,-1.31600,80.00000,0.04000
041225_04.32.06.800,-0.03900,-0.00200,0.99500,0.08700,-0.12300,-0.01800,0.57200,0.48400,-1.32100,79.99000,-0.01000
041225_04.32.06.811,-0.04100,-0.00200,1.00600,0.10500,-0.10500,0.00000,0.56100,0.48800,-1.31800,80.27000,0.28000
041225_04.32.06.822,-0.04500,-0.00300,1.00300,0.07000,-0.15700,-0.03500,0.56900,0.48800,-1.31500,79.68000,-0.59000
041225_04.32.06.834,-0.03700,-0.00300,1.00000,0.08700,-0.14000,-0.01800,0.56900,0.48800,-1.31500,79.84000,0.16000
041225_04.32.06.845,-0.04100,-0.00200,0.99800,0.08700,-0.08700,-0.03500,0.56500,0.49000,-1.32200,80.04000,0.20000
041225_04.32.06.857,-0.03900,0.00200,1.00700,0.10500,-0.12300,-0.01800,0.56700,0.48500,-1.32800,79.52000,-0.52000
041225_04.32.06.868,-0.04100,-0.00000,0.99800,0.08700,-0.07000,0.00000,0.56000,0.48900,-1.33100,80.27000,0.75000
041225_04.32.06.879,-0.04400,-0.00300,1.00600,0.05300,-0.12300,-0.03500,0.56700,0.48900,-1.32600,79.43000,-0.84000
041225_04.32.06.891,-0.03700,-0.00400,0.99700,0.10500,-0.10500,-0.01800,0.56700,0.48900,-1.32600,79.76000,0.33000
041225_04.32.06.902,-0.04100,-0.00200,1.00000,0.08700,-0.10500,-0.01800,0.56700,0.48600,-1.32500,79.74000,-0.02000
041225_04.32.06.914,-0.03900,0.00100,1.00600,0.10500,-0.15700,-0.01800,0.57800,0.49400,-1.33200,79.53000,-0.21000
041225_04.32.06.925,-0.04200,0.00100,0.99600,0.08700,-0.12300,-0.01800,0.57900,0.48900,-1.33000,79.27000,-0.26000
041225_04.32.06.937,-0.04300,-0.00400,1.00700,0.07000,-0.15700,0.01800,0.57900,0.48900,-1.33000,79.64000,0.37000
041225_04.32.06.948,-0.03600,-0.00500,0.99800,0.10500,-0.12300,0.00000,0.57500,0.49000,-1.32500,79.63000,-0.01000
041225_04.32.06.959,-0.04300,-0.00200,1.00300,0.10500,-0.14000,-0.01800,0.57800,0.49000,-1.33100,80.79000,1.16000
041225_04.32.06.971,-0.04000,-0.00100,1.00600,0.10500,-0.10500,-0.01800,0.58400,0.49000,-1.32800,79.84000,-0.95000
041225_04.32.06.982,-0.04100,0.00000,1.02600,0.07000,-0.19200,-0.01800,0.58100,0.48600,-1.32400,80.21000,0.37000
041225_04.32.06.994,-0.03500,-0.00300,0.99500,0.10500,-0.12300,-0.01800,0.58100,0.48600,-1.32400,80.16000,-0.05000
041225_04.32.07.005,-0.04200,-0.00300,1.00600,0.07000,-0.14000,-0.01800,0.57900,0.48500,-1.32600,79.23000,-0.93000
041225_04.32.07.016,-0.03700,-0.00100,1.00500,0.08700,-0.14000,0.00000,0.58000,0.48500,-1.32200,80.05000,0.82000
041225_04.32.07.028,-0.04100,-0.00100,0.99500,0.08700,-0.12300,0.00000,0.58000,0.48400,-1.31900,79.62000,-0.43000
041225_04.32.07.039,-0.04100,-0.00500,1.01000,0.07000,-0.14000,-0.05300,0.58000,0.48400,-1.32500,80.22000,0.60000
041225_04.32.07.051,-0.03600,-0.00300,0.99400,0.08700,-0.10500,-0.03500,0.57600,0.48600,-1.32500,79.94000,-0.28000
041225_04.32.07.062,-0.04300,-0.00400,1.00300,0.12300,-0.10500,-0.03500,0.57600,0.48700,-1.32500,79.85000,-0.09000
041225_04.32.07.073,-0.03800,-0.00200,1.00500,0.12300,-0.12300,-0.01800,0.57400,0.48900,-1.32400,80.16000,0.31000
041225_04.32.07.085,-0.04200,-0.00200,0.99600,0.07000,-0.10500,-0.03500,0.57200,0.48700,-1.32600,79.39000,-0.77000
041225_04.32.07.096,-0.04000,-0.00500,1.00700,0.05300,-0.14000,-0.03500,0.57200,0.48700,-1.32600,79.84000,0.45000
041225_04.32.07.108,-0.03600,-0.00300,0.99300,0.07000,-0.08700,-0.03500,0.56800,0.48800,-1.32700,79.76000,-0.08000
041225_04.32.07.119,-0.04200,-0.00300,1.00600,0.07000,-0.12300,-0.03500,0.56400,0.48900,-1.31900,79.91000,0.15000
041225_04.32.07.131,-0.03700,-0.00100,1.00400,0.10500,-0.10500,-0.01800,0.56300,0.48600,-1.31400,80.42000,0.51000
041225_04.32.07.142,-0.04200,-0.00000,0.99600,0.07000,-0.14000,-0.01800,0.56900,0.48900,-1.32100,79.82000,-0.60000
041225_04.32.07.153,-0.04000,-0.00500,0.99500,0.08700,-0.08700,-0.01800,0.56900,0.48900,-1.32100,80.01000,0.19000
041225_04.32.07.165,-0.04300,-0.00300,1.00500,0.12300,-0.12300,-0.01800,0.56800,0.49100,-1.31400,80.06000,0.05000
041225_04.32.07.176,-0.03700,-0.00100,1.00500,0.10500,-0.10500,0.00000,0.56400,0.48900,-1.31500,79.72000,-0.34000
041225_04.32.07.188,-0.04200,-0.00100,0.99700,0.05300,-0.14000,-0.01800,0.57300,0.48900,-1.32000,80.09000,0.37000
041225_04.32.07.199,-0.03600,-0.00500,1.00300,0.07000,-0.14000,-0.03500,0.57300,0.48900,-1.32000,79.94000,-0.15000
041225_04.32.07.211,-0.03900,-0.00100,0.99600,0.10500,-0.08700,-0.05300,0.57200,0.49300,-1.32000,79.97000,0.03000
041225_04.32.07.223,-0.03900,-0.00100,1.00700,0.08700,-0.14000,-0.01800,0.57900,0.49300,-1.32500,80.38000,0.41000
041225_04.32.07.234,-0.03800,0.00000,1.00300,0.10500,-0.12300,-0.01800,0.57600,0.49200,-1.32100,80.36000,-0.02000
041225_04.32.07.246,-0.04400,-0.00200,0.99900,0.05300,-0.14000,-0.01800,0.58000,0.49300,-1.32300,80.19000,-0.17000
041225_04.32.07.258,-0.03700,-0.00500,1.00300,0.07000,-0.12300,0.00000,0.58000,0.49300,-1.32300,79.51000,-0.68000
041225_04.32.07.269,-0.03800,-0.00200,0.99700,0.10500,-0.07000,0.00000,0.58000,0.48900,-1.32300,80.20000,0.69000
041225_04.32.07.281,-0.04000,-0.00000,1.00700,0.10500,-0.12300,-0.01800,0.57900,0.49300,-1.32800,79.67000,-0.53000
041225_04.32.07.292,-0.04000,-0.00100,1.00200,0.08700,-0.08700,0.00000,0.58000,0.49300,-1.32600,80.02000,0.35000
041225_04.32.07.304,-0.04500,-0.00500,1.00200,0.05300,-0.14000,-0.03500,0.58000,0.49300,-1.32600,79.42000,-0.60000
041225_04.32.07.316,-0.03800,-0.00500,1.00100,0.12300,-0.08700,-0.01800,0.57500,0.49200,-1.31900,79.53000,0.11000
041225_04.32.07.327,-0.04100,-0.00200,1.00600,0.10500,-0.14000,-0.01800,0.57300,0.49300,-1.32200,80.67000,1.14000
041225_04.32.07.339,-0.04000,-0.00100,0.99800,0.10500,-0.10500,-0.01800,0.57700,0.49500,-1.32600,80.05000,-0.62000
041225_04.32.07.350,-0.04600,-0.00400,1.00600,0.07000,-0.15700,-0.01800,0.57200,0.49000,-1.32500,79.97000,-0.08000
041225_04.32.07.362,-0.03600,-0.00600,1.00200,0.10500,-0.10500,-0.01800,0.57200,0.49000,-1.32500,79.86000,-0.11000
041225_04.32.07.373,-0.04100,-0.00100,0.99600,0.10500,-0.10500,-0.01800,0.56700,0.49200,-1.32200,79.47000,-0.39000
041225_04.32.07.385,-0.04000,-0.00300,1.00500,0.10500,-0.15700,-0.01800,0.56600,0.49200,-1.32300,80.13000,0.66000
041225_04.32.07.396,-0.04100,-0.00100,0.99800,0.07000,-0.10500,-0.01800,0.56600,0.48900,-1.32700,80.02000,-0.11000
041225_04.32.07.407,-0.04400,-0.00500,1.00700,0.07000,-0.15700,-0.01800,0.57000,0.49200,-1.33300,79.91000,-0.11000
041225_04.32.07.419,-0.03500,-0.00300,0.99700,0.10500,-0.10500,-0.01800,0.57000,0.49200,-1.33300,79.79000,-0.12000
041225_04.32.07.430,-0.04300,-0.00100,1.00100,0.10500,-0.10500,-0.03500,0.56500,0.49300,-1.32500,80.12000,0.33000
041225_04.32.07.442,-0.04000,-0.00100,1.00800,0.12300,-0.14000,0.00000,0.56300,0.49100,-1.32800,80.52000,0.40000
041225_04.32.07.453,-0.03900,-0.00000,0.99600,0.10500,-0.12300,-0.03500,0.56700,0.49100,-1.32100,80.62000,0.10000
041225_04.32.07.465,-0.04300,-0.00700,1.00900,0.10500,-0.17500,-0.01800,0.56700,0.49100,-1.32100,80.55000,-0.07000
041225_04.32.07.477,-0.03600,-0.00400,0.99800,0.12300,-0.12300,-0.01800,0.56500,0.49000,-1.31800,79.83000,-0.72000
041225_04.32.07.488,-0.04200,-0.00300,1.00100,0.10500,-0.15700,-0.01800,0.57300,0.48700,-1.33000,79.70000,-0.13000
041225_04.32.07.500,-0.03800,-0.00200,0.99500,0.07000,-0.10500,-0.01800,0.57300,0.48700,-1.32100,80.11000,0.41000
041225_04.32.07.511,-0.04100,-0.00500,1.00800,0.07000,-0.15700,-0.03500,0.57500,0.48700,-1.32200,80.71000,0.60000
041225_04.32.07.523,-0.03500,-0.00300,0.99500,0.12300,-0.10500,-0.01800,0.57500,0.48700,-1.32200,79.58000,-1.13000
041225_04.32.07.534,-0.04100,-0.00300,1.00400,0.08700,-0.12300,-0.03500,0.57600,0.49100,-1.32400,79.96000,0.38000
041225_04.32.07.546,-0.04000,-0.00100,1.00800,0.12300,-0.14000,-0.01800,0.58000,0.49000,-1.32700,79.63000,-0.33000
041225_04.32.07.558,-0.04000,0.00100,0.99300,0.08700,-0.14000,-0.01800,0.58100,0.48700,-1.33000,78.94000,-0.69000
041225_04.32.07.569,-0.04000,-0.00500,1.00600,0.05300,-0.15700,-0.01800,0.58100,0.48700,-1.33000,80.16000,1.22000
041225_04.32.07.581,-0.03600,-0.00400,0.99600,0.10500,-0.10500,-0.03500,0.58000,0.48600,-1.32700,80.45000,0.29000
041225_04.32.07.592,-0.04200,-0.00200,1.00300,0.12300,-0.14000,-0.01800,0.57600,0.48500,-1.32200,81.17000,0.72000
041225_04.32.07.604,-0.04000,-0.00200,1.00400,0.14000,-0.10500,-0.01800,0.58000,0.49000,-1.32500,80.24000,-0.93000
041225_04.32.07.615,-0.04000,-0.00000,0.99300,0.08700,-0.12300,-0.01800,0.57700,0.49100,-1.32500,80.11000,-0.13000
041225_04.32.07.626,-0.04000,-0.00500,1.00600,0.07000,-0.14000,-0.03500,0.57700,0.49100,-1.32500,80.45000,0.34000
041225_04.32.07.638,-0.03700,-0.00100,0.99800,0.12300,-0.10500,0.00000,0.57400,0.48900,-1.32300,80.09000,-0.36000
041225_04.32.07.649,-0.04200,-0.00200,1.00500,0.07000,-0.12300,-0.01800,0.57500,0.49300,-1.32400,80.09000,0.00000
041225_04.32.07.661,-0.03700,-0.00100,1.00500,0.08700,-0.08700,-0.01800,0.57300,0.48600,-1.32600,79.95000,-0.14000
041225_04.32.07.672,-0.04100,-0.00100,1.00600,0.08700,-0.10500,-0.03500,0.57300,0.48900,-1.32400,79.48000,-0.47000
041225_04.32.07.684,-0.03700,-0.00100,0.99700,0.12300,-0.08700,-0.01800,0.56400,0.48900,-1.32400,79.49000,0.01000
041225_04.32.07.695,-0.04000,-0.00100,1.00400,0.12300,-0.12300,-0.01800,0.56400,0.49100,-1.32200,80.24000,0.75000
041225_04.32.07.706,-0.03800,-0.00000,1.00700,0.12300,-0.10500,-0.01800,0.56200,0.48900,-1.32200,79.84000,-0.40000
041225_04.32.07.718,-0.04100,-0.00200,0.99900,0.07000,-0.12300,-0.01800,0.56500,0.48800,-1.32100,80.18000,0.34000
041225_04.32.07.729,-0.03700,-0.00300,1.00300,0.08700,-0.14000,0.00000,0.56500,0.48800,-1.32100,79.69000,-0.49000
041225_04.32.07.741,-0.03900,-0.00300,0.99700,0.10500,-0.10500,0.00000,0.56200,0.48700,-1.31900,80.07000,0.38000
041225_04.32.07.752,-0.04100,-0.00100,1.00600,0.10500,-0.14000,-0.01800,0.56300,0.48700,-1.32000,79.90000,-0.17000
041225_04.32.07.764,-0.03800,-0.00100,1.00200,0.14000,-0.12300,0.00000,0.56600,0.48900,-1.32300,79.47000,-0.43000
041225_04.32.07.775,-0.04400,-0.00300,1.00100,0.07000,-0.14000,-0.01800,0.57100,0.49300,-1.31900,80.37000,0.90000
041225_04.32.07.786,-0.03700,-0.00500,1.00100,0.10500,-0.15700,-0.01800,0.57100,0.49300,-1.31900,80.01000,-0.36000
041225_04.32.07.798,-0.03800,-0.00200,0.99600,0.14000,-0.10500,-0.03500,0.57500,0.48900,-1.32400,79.83000,-0.18000
041225_04.32.07.809,-0.04200,-0.00100,1.00700,0.12300,-0.15700,-0.01800,0.57300,0.48800,-1.32700,80.16000,0.33000
041225_04.32.07.821,-0.04100,-0.00100,0.99900,0.12300,-0.10500,0.00000,0.57800,0.48900,-1.32000,79.90000,-0.26000
041225_04.32.07.832,-0.04700,-0.00400,1.00200,0.10500,-0.10500,-0.01800,0.57800,0.48900,-1.32000,80.15000,0.25000
041225_04.32.07.844,-0.03800,-0.00500,0.99500,0.10500,-0.08700,-0.03500,0.58100,0.49000,-1.32200,79.97000,-0.18000
041225_04.32.07.855,-0.04200,-0.00200,1.00700,0.10500,-0.12300,-0.03500,0.58100,0.49100,-1.32300,80.18000,0.21000
041225_04.32.07.866,-0.04100,0.00100,0.99900,0.10500,-0.10500,-0.01800,0.57700,0.48900,-1.32400,79.10000,-1.08000
041225_04.32.07.878,-0.04700,-0.00200,1.00500,0.07000,-0.14000,-0.03500,0.57800,0.49200,-1.32300,79.73000,0.63000
041225_04.32.07.889,-0.03800,-0.00400,0.99900,0.10500,-0.10500,0.00000,0.57800,0.49200,-1.32300,80.32000,0.59000
041225_04.32.07.901,-0.04000,-0.00200,0.99800,0.12300,-0.08700,-0.01800,0.57300,0.48900,-1.32000,79.63000,-0.69000
041225_04.32.07.912,-0.04200,-0.00100,1.00800,0.10500,-0.14000,-0.01800,0.57600,0.49100,-1.32400,79.06000,-0.57000
041225_04.32.07.924,-0.04000,-0.00100,0.99500,0.10500,-0.10500,-0.01800,0.57700,0.49400,-1.31700,79.93000,0.87000
041225_04.32.07.935,-0.04300,-0.00500,1.00700,0.07000,-0.15700,-0.01800,0.57700,0.49400,-1.32000,78.94000,-0.99000
041225_04.32.07.946,-0.03500,-0.00400,0.99900,0.08700,-0.12300,0.00000,0.57000,0.49200,-1.32000,80.52000,1.58000
041225_04.32.07.958,-0.04100,-0.00100,1.00000,0.12300,-0.12300,-0.01800,0.56700,0.48900,-1.32400,79.55000,-0.97000
041225_04.32.07.969,-0.04000,-0.00200,1.00800,0.12300,-0.14000,-0.03500,0.56800,0.49000,-1.31800,80.13000,0.58000
041225_04.32.07.981,-0.03800,-0.00000,0.99400,0.08700,-0.10500,0.00000,0.56400,0.49000,-1.31900,79.70000,-0.43000
041225_04.32.07.992,-0.04200,-0.00400,1.00800,0.05300,-0.17500,-0.01800,0.56400,0.49000,-1.31900,79.38000,-0.32000
041225_04.32.08.003,-0.03600,-0.00600,1.00000,0.10500,-0.12300,-0.01800,0.56500,0.48700,-1.32300,79.72000,0.34000
041225_04.32.08.015,-0.04300,-0.00300,1.00900,0.12300,-0.14000,0.00000,0.56400,0.48900,-1.31600,80.55000,0.83000
041225_04.32.08.026,-0.03900,-0.00100,0.99400,0.08700,-0.12300,0.00000,0.56800,0.48700,-1.32200,80.06000,-0.49000
041225_04.32.08.038,-0.04300,-0.00700,1.00600,0.05300,-0.17500,-0.01800,0.56700,0.49000,-1.31500,79.88000,-0.18000
041225_04.32.08.049,-0.03700,-0.00400,0.99900,0.08700,-0.12300,0.00000,0.56700,0.49000,-1.31500,80.31000,0.43000
041225_04.32.08.060,-0.04100,-0.00100,1.00100,0.10500,-0.14000,-0.01800,0.57500,0.48800,-1.32200,80.89000,0.58000
041225_04.32.08.072,-0.03800,-0.00200,1.00800,0.12300,-0.12300,-0.01800,0.57600,0.48800,-1.31800,79.90000,-0.99000
041225_04.32.08.083,-0.04100,0.00000,0.99500,0.07000,-0.08700,0.00000,0.57700,0.49100,-1.32500,80.27000,0.37000
041225_04.32.08.095,-0.04200,-0.00500,1.00600,0.07000,-0.14000,0.00000,0.57700,0.49100,-1.32500,80.33000,0.06000
041225_04.32.08.106,-0.03600,-0.00500,0.99800,0.10500,-0.10500,-0.01800,0.57800,0.49000,-1.32600,79.41000,-0.92000
041225_04.32.08.117,-0.04300,-0.00300,1.00000,0.10500,-0.10500,-0.01800,0.57900,0.48900,-1.32400,79.36000,-0.05000
041225_04.32.08.129,-0.03800,-0.00100,1.00700,0.08700,-0.12300,-0.01800,0.58400,0.48700,-1.32100,80.12000,0.76000
041225_04.32.08.140,-0.04000,-0.00100,0.99500,0.05300,-0.10500,-0.03500,0.57900,0.49100,-1.32300,81.07000,0.95000
041225_04.32.08.152,-0.03900,-0.00400,1.00500,0.05300,-0.12300,-0.01800,0.57900,0.49100,-1.32300,80.08000,-0.99000
041225_04.32.08.163,-0.03700,-0.00300,0.99800,0.12300,-0.08700,-0.01800,0.58000,0.49100,-1.31900,79.73000,-0.35000
041225_04.32.08.174,-0.04000,-0.00100,1.00300,0.10500,-0.10500,-0.01800,0.58000,0.49000,-1.32700,79.96000,0.23000
041225_04.32.08.186,-0.03800,-0.00000,0.99600,0.08700,-0.12300,-0.03500,0.57800,0.49200,-1.31700,79.72000,-0.24000
041225_04.32.08.197,-0.03900,-0.00400,1.00300,0.08700,-0.12300,-0.05300,0.57800,0.49200,-1.31700,80.30000,0.58000
041225_04.32.08.209,-0.03600,-0.00300,0.99700,0.10500,-0.10500,-0.01800,0.57800,0.48800,-1.32000,79.68000,-0.62000
041225_04.32.08.220,-0.04200,-0.00200,1.00200,0.10500,-0.12300,-0.01800,0.57800,0.48800,-1.31700,79.31000,-0.37000
041225_04.32.08.232,-0.03800,-0.00300,1.00300,0.12300,-0.10500,0.00000,0.57400,0.49100,-1.32300,79.99000,0.68000
041225_04.32.08.243,-0.04300,-0.00200,0.99800,0.07000,-0.14000,-0.03500,0.56800,0.48800,-1.31800,80.04000,0.05000
041225_04.32.08.255,-0.03800,-0.00600,1.00100,0.07000,-0.14000,-0.03500,0.56800,0.48800,-1.31800,80.88000,0.84000
041225_04.32.08.266,-0.03800,-0.00100,0.99800,0.08700,-0.08700,-0.01800,0.56700,0.48500,-1.31800,80.01000,-0.87000
041225_04.32.08.277,-0.04100,-0.00300,1.00500,0.08700,-0.14000,-0.01800,0.56900,0.48900,-1.31600,79.86000,-0.15000
041225_04.32.08.289,-0.03700,-0.00200,1.00200,0.10500,-0.10500,-0.01800,0.56500,0.48600,-1.32200,80.08000,0.22000
041225_04.32.08.300,-0.04400,-0.00200,1.00200,0.05300,-0.12300,-0.03500,0.56500,0.48600,-1.32000,80.19000,0.11000
041225_04.32.08.312,-0.03700,-0.00500,1.00200,0.08700,-0.14000,-0.01800,0.57200,0.48600,-1.32000,80.86000,0.67000
041225_04.32.08.323,-0.03900,-0.00200,0.99600,0.14000,-0.10500,0.00000,0.57300,0.48600,-1.31400,79.50000,-1.36000
041225_04.32.08.335,-0.04100,-0.00200,1.00900,0.12300,-0.14000,-0.01800,0.57300,0.49000,-1.31700,79.95000,0.45000
041225_04.32.08.346,-0.03900,-0.00100,1.00100,0.05300,-0.12300,-0.01800,0.57700,0.48300,-1.32500,80.30000,0.35000
041225_04.32.08.358,-0.04400,-0.00400,1.00000,0.08700,-0.14000,-0.01800,0.57700,0.48300,-1.32500,80.32000,0.02000
041225_04.32.08.369,-0.03900,-0.00300,0.99700,0.12300,-0.10500,-0.03500,0.58100,0.49000,-1.32300,80.09000,-0.23000
041225_04.32.08.381,-0.04000,-0.00100,1.00900,0.10500,-0.14000,-0.01800,0.57500,0.48400,-1.32400,79.85000,-0.24000
041225_04.32.08.392,-0.03900,0.00000,0.99800,0.08700,-0.08700,0.00000,0.57700,0.48700,-1.31700,80.37000,0.52000
041225_04.32.08.403,-0.04600,-0.00400,1.00500,0.05300,-0.14000,-0.03500,0.58500,0.48800,-1.32000,79.93000,-0.44000
041225_04.32.08.415,-0.03700,-0.00500,1.00100,0.08700,-0.14000,-0.01800,0.58500,0.48800,-1.32000,79.97000,0.04000
041225_04.32.08.426,-0.04000,-0.00200,0.99500,0.10500,-0.10500,-0.01800,0.58400,0.48800,-1.31900,80.43000,0.46000
041225_04.32.08.438,-0.04100,-0.00200,1.00800,0.10500,-0.15700,-0.01800,0.58000,0.48800,-1.32700,80.60000,0.17000
041225_04.32.08.449,-0.04100,-0.00100,0.99500,0.10500,-0.08700,-0.01800,0.57700,0.48900,-1.32500,79.64000,-0.96000
041225_04.32.08.461,-0.04500,-0.00500,1.00600,0.07000,-0.15700,0.00000,0.57700,0.48900,-1.32500,79.98000,0.34000
041225_04.32.08.472,-0.03500,-0.00400,1.00000,0.10500,-0.15700,-0.01800,0.57600,0.49100,-1.31700,80.38000,0.40000
041225_04.32.08.483,-0.04300,-0.00100,0.99700,0.12300,-0.15700,-0.01800,0.57500,0.49300,-1.32500,80.44000,0.06000
041225_04.32.08.495,-0.04200,-0.00200,1.00900,0.10500,-0.15700,-0.01800,0.57200,0.49200,-1.31500,80.28000,-0.16000
041225_04.32.08.506,-0.03900,0.00000,0.99500,0.10500,-0.12300,-0.01800,0.56700,0.49000,-1.31600,80.62000,0.34000
041225_04.32.08.518,-0.04300,-0.00500,1.00700,0.10500,-0.12300,-0.03500,0.56700,0.49000,-1.31600,80.25000,-0.37000
041225_04.32.08.529,-0.03700,-0.00300,0.99500,0.10500,-0.08700,-0.01800,0.56900,0.48500,-1.31500,80.26000,0.01000
041225_04.32.08.541,-0.03900,-0.00100,1.01000,0.10500,-0.12300,-0.01800,0.56500,0.48700,-1.31500,79.78000,-0.48000
041225_04.32.08.552,-0.03800,-0.00000,0.99800,0.10500,-0.10500,0.00000,0.56700,0.48500,-1.32600,79.45000,-0.33000
041225_04.32.08.564,-0.04100,-0.00400,1.00600,0.10500,-0.14000,-0.01800,0.56700,0.48500,-1.32200,79.99000,0.54000
041225_04.32.08.575,-0.03500,-0.00400,1.00000,0.12300,-0.08700,-0.01800,0.56400,0.48800,-1.32200,80.01000,0.02000
041225_04.32.08.586,-0.04100,-0.00200,0.99900,0.10500,-0.08700,-0.01800,0.56400,0.48700,-1.32300,80.39000,0.38000
041225_04.32.08.598,-0.03700,-0.00300,1.00800,0.12300,-0.12300,-0.01800,0.57100,0.48800,-1.32000,80.08000,-0.31000
041225_04.32.08.609,-0.03900,-0.00000,0.99700,0.10500,-0.10500,-0.01800,0.57500,0.48900,-1.32600,80.53000,0.45000
041225_04.32.08.621,-0.04000,-0.00400,1.00500,0.07000,-0.14000,0.00000,0.57500,0.48900,-1.32600,80.06000,-0.47000
041225_04.32.08.632,-0.03600,-0.00600,1.00000,0.10500,-0.08700,-0.01800,0.58000,0.48700,-1.32200,80.41000,0.35000
041225_04.32.08.644,-0.04100,-0.00200,1.00100,0.12300,-0.12300,-0.03500,0.57900,0.49000,-1.32400,79.92000,-0.49000
041225_04.32.08.655,-0.03800,-0.00200,1.00600,0.12300,-0.12300,-0.01800,0.57900,0.49100,-1.32300,80.40000,0.48000
041225_04.32.08.667,-0.04100,-0.00100,0.99600,0.08700,-0.10500,0.00000,0.58200,0.48800,-1.33000,79.35000,-1.05000
041225_04.32.08.678,-0.04000,-0.00500,1.00300,0.08700,-0.15700,0.00000,0.58200,0.48800,-1.33000,80.26000,0.91000
041225_04.32.08.690,-0.03700,-0.00300,0.99900,0.08700,-0.12300,-0.03500,0.57900,0.48400,-1.33200,80.38000,0.12000
041225_04.32.08.701,-0.03800,-0.00100,1.00500,0.10500,-0.12300,0.00000,0.58000,0.48700,-1.32100,81.28000,0.90000
041225_04.32.08.713,-0.04400,-0.00100,0.99600,0.07000,-0.10500,-0.03500,0.58000,0.48700,-1.32500,79.44000,-1.84000
041225_04.32.08.724,-0.03900,-0.00500,1.00300,0.07000,-0.14000,-0.01800,0.58000,0.48700,-1.32500,79.66000,0.22000
041225_04.32.08.736,-0.03800,-0.00300,0.99800,0.10500,-0.08700,0.00000,0.57300,0.49300,-1.32100,80.01000,0.35000
041225_04.32.08.747,-0.04300,-0.00300,1.00500,0.10500,-0.14000,-0.01800,0.57600,0.49100,-1.33000,80.05000,0.04000
041225_04.32.08.758,-0.03900,-0.00100,1.00300,0.10500,-0.10500,-0.01800,0.57700,0.49000,-1.32500,80.05000,0.00000
041225_04.32.08.770,-0.04400,-0.00400,1.00200,0.05300,-0.10500,-0.01800,0.56800,0.48800,-1.31400,79.94000,-0.11000
041225_04.32.08.781,-0.03700,-0.00400,1.00300,0.10500,-0.15700,-0.01800,0.56800,0.48800,-1.31400,79.75000,-0.19000
041225_04.32.08.793,-0.03800,-0.00100,0.99700,0.12300,-0.10500,0.00000,0.57100,0.49200,-1.32000,80.25000,0.50000
041225_04.32.08.804,-0.04100,-0.00200,1.00700,0.10500,-0.14000,-0.01800,0.57000,0.49300,-1.32200,80.07000,-0.18000
041225_04.32.08.816,-0.03700,-0.00200,1.00000,0.10500,-0.08700,-0.01800,0.56300,0.48800,-1.31600,80.16000,0.09000
041225_04.32.08.827,-0.04400,-0.00300,1.00200,0.08700,-0.10500,0.00000,0.56300,0.48800,-1.31600,79.48000,-0.68000
041225_04.32.08.839,-0.03800,-0.00400,1.00100,0.10500,-0.12300,-0.01800,0.56000,0.48600,-1.31600,80.81000,1.33000
041225_04.32.08.850,-0.03900,-0.00200,0.99200,0.10500,-0.08700,-0.01800,0.56200,0.48800,-1.32200,79.82000,-0.99000
041225_04.32.08.862,-0.04200,-0.00200,1.00800,0.10500,-0.10500,-0.01800,0.56800,0.48700,-1.32800,79.70000,-0.12000
041225_04.32.08.873,-0.04300,-0.00200,1.00200,0.08700,-0.14000,-0.01800,0.56700,0.48900,-1.32700,80.94000,1.24000
041225_04.32.08.885,-0.03700,-0.00400,1.00200,0.12300,-0.14000,-0.01800,0.56700,0.48900,-1.32700,79.79000,-1.15000
041225_04.32.08.896,-0.04000,-0.00000,0.99300,0.12300,-0.10500,0.00000,0.57400,0.48900,-1.32200,80.07000,0.28000
041225_04.32.08.907,-0.04200,-0.00300,1.01100,0.10500,-0.14000,0.00000,0.57700,0.48900,-1.32300,80.26000,0.19000
041225_04.32.08.919,-0.03800,0.00100,0.99900,0.14000,-0.14000,0.00000,0.58100,0.49000,-1.33100,79.97000,-0.29000
041225_04.32.08.930,-0.04400,-0.00200,1.00200,0.10500,-0.14000,0.00000,0.58100,0.48900,-1.33100,79.70000,-0.27000
041225_04.32.08.942,-0.03800,-0.00300,1.00400,0.10500,-0.14000,-0.01800,0.57700,0.48900,-1.33100,79.83000,0.13000
041225_04.32.08.953,-0.03900,-0.00200,0.99600,0.08700,-0.08700,-0.01800,0.57700,0.48600,-1.32600,79.65000,-0.18000
041225_04.32.08.965,-0.04200,-0.00200,1.01000,0.10500,-0.12300,-0.01800,0.58300,0.48900,-1.31800,79.58000,-0.07000
041225_04.32.08.976,-0.03900,-0.00000,0.99700,0.08700,-0.08700,-0.03500,0.58300,0.48700,-1.32400,79.80000,0.22000
041225_04.32.08.988,-0.04300,-0.00500,1.00300,0.07000,-0.14000,-0.03500,0.58300,0.48700,-1.32400,80.30000,0.50000
041225_04.32.08.999,-0.03700,-0.00500,1.00200,0.12300,-0.12300,-0.01800,0.58600,0.49000,-1.32400,80.07000,-0.23000
041225_04.32.09.011,-0.03900,-0.00100,0.99600,0.10500,-0.08700,-0.03500,0.57600,0.48400,-1.32600,80.46000,0.39000
041225_04.32.09.022,-0.04100,-0.00100,1.00900,0.10500,-0.14000,0.01800,0.58100,0.48800,-1.32600,79.86000,-0.60000
041225_04.32.09.033,-0.03900,0.00000,0.99600,0.05300,-0.15700,0.00000,0.57800,0.48900,-1.32600,79.41000,-0.45000
041225_04.32.09.045,-0.03800,-0.00600,1.00300,0.10500,-0.14000,0.00000,0.57800,0.48900,-1.32600,80.16000,0.75000
041225_04.32.09.056,-0.04100,-0.00100,0.99600,0.10500,-0.12300,-0.01800,0.57200,0.49300,-1.32700,79.59000,-0.57000
041225_04.32.09.068,-0.04000,-0.00100,1.00800,0.12300,-0.14000,-0.01800,0.57100,0.49300,-1.33100,79.83000,0.24000
041225_04.32.09.079,-0.04100,-0.00100,0.99500,0.07000,-0.12300,-0.05300,0.56900,0.49000,-1.31900,80.09000,0.26000
041225_04.32.09.091,-0.04300,-0.00600,1.00300,0.05300,-0.17500,-0.03500,0.56900,0.49000,-1.31900,79.92000,-0.17000
041225_04.32.09.102,-0.03700,-0.00500,1.00100,0.10500,-0.12300,-0.03500,0.56900,0.48700,-1.32200,80.19000,0.27000
041225_04.32.09.114,-0.04000,0.00000,0.99700,0.10500,-0.14000,-0.01800,0.56600,0.48600,-1.32800,80.31000,0.12000
041225_04.32.09.125,-0.04000,-0.00100,1.00600,0.12300,-0.14000,0.00000,0.56400,0.48700,-1.32800,80.78000,0.47000
041225_04.32.09.137,-0.04100,-0.00000,0.99600,0.10500,-0.10500,-0.01800,0.56700,0.49000,-1.32500,80.11000,-0.67000
041225_04.32.09.148,-0.04100,-0.00400,1.00200,0.07000,-0.17500,-0.03500,0.56700,0.49000,-1.32500,80.06000,-0.05000
041225_04.32.09.159,-0.03600,-0.00400,0.99900,0.12300,-0.12300,-0.01800,0.57000,0.48900,-1.32000,80.31000,0.25000
041225_04.32.09.171,-0.04100,-0.00200,1.00000,0.12300,-0.12300,-0.01800,0.57400,0.49100,-1.32300,79.94000,-0.37000
041225_04.32.09.183,-0.03800,-0.00100,1.00600,0.14000,-0.12300,-0.01800,0.57600,0.49200,-1.31700,79.78000,-0.16000
041225_04.32.09.194,-0.04100,-0.00100,0.99700,0.08700,-0.12300,-0.01800,0.57600,0.49200,-1.32000,80.16000,0.38000
041225_04.32.09.206,-0.03900,-0.00500,1.00300,0.14000,-0.14000,-0.01800,0.57500,0.48900,-1.32000,80.16000,0.00000
041225_04.32.09.217,-0.04100,-0.00100,1.00400,0.08700,-0.14000,-0.03500,0.58200,0.49000,-1.32800,80.57000,0.41000
041225_04.32.09.229,-0.03800,-0.00200,1.00300,0.12300,-0.14000,-0.01800,0.57800,0.49000,-1.32400,80.24000,-0.33000
041225_04.32.09.241,-0.04200,-0.00100,0.99800,0.10500,-0.12300,-0.03500,0.58200,0.48900,-1.33000,80.22000,-0.02000
041225_04.32.09.252,-0.03900,-0.00400,1.00500,0.08700,-0.15700,-0.01800,0.58200,0.48900,-1.33000,79.55000,-0.67000
041225_04.32.09.263,-0.03600,-0.00200,0.99800,0.12300,-0.10500,-0.01800,0.58500,0.49400,-1.32800,79.62000,0.07000
041225_04.32.09.275,-0.04300,-0.00200,1.00700,0.10500,-0.15700,-0.03500,0.58500,0.49200,-1.32600,80.16000,0.54000
041225_04.32.09.286,-0.03900,-0.00000,1.00600,0.14000,-0.12300,-0.01800,0.58300,0.49000,-1.32600,79.78000,-0.38000
041225_04.32.09.298,-0.04100,-0.00000,1.00000,0.08700,-0.14000,-0.03500,0.58600,0.48800,-1.32500,79.86000,0.08000
041225_04.32.09.309,-0.03800,-0.00400,1.00400,0.10500,-0.17500,-0.01800,0.58600,0.48800,-1.32500,80.12000,0.26000
041225_04.32.09.321,-0.03800,-0.00300,0.99600,0.10500,-0.14000,-0.01800,0.57800,0.48900,-1.33300,80.03000,-0.09000
041225_04.32.09.332,-0.04200,-0.00300,1.00800,0.12300,-0.14000,-0.03500,0.57600,0.48800,-1.32100,80.25000,0.22000
041225_04.32.09.344,-0.03700,0.00000,1.00200,0.14000,-0.10500,-0.01800,0.57300,0.49200,-1.31800,79.31000,-0.94000
041225_04.32.09.355,-0.04100,-0.00300,0.99800,0.10500,-0.12300,-0.03500,0.57300,0.49200,-1.31800,79.74000,0.43000
041225_04.32.09.367,-0.03900,-0.00500,1.00400,0.08700,-0.07000,0.00000,0.57200,0.49400,-1.32700,80.70000,0.96000
041225_04.32.09.378,-0.03700,-0.00200,0.99400,0.10500,-0.12300,-0.03500,0.57000,0.49000,-1.32400,80.15000,-0.55000
041225_04.32.09.389,-0.03800,-0.00100,1.00100,0.10500,-0.10500,-0.03500,0.56800,0.48600,-1.32400,80.12000,-0.03000
041225_04.32.09.401,-0.04200,-0.00400,1.00000,0.01800,-0.12300,-0.03500,0.56400,0.49000,-1.32700,79.34000,-0.78000
041225_04.32.09.412,-0.03900,-0.00600,1.00500,0.05300,-0.15700,-0.01800,0.56400,0.49000,-1.32700,80.61000,1.27000
041225_04.32.09.424,-0.03800,-0.00100,0.99300,0.10500,-0.08700,-0.01800,0.56100,0.48900,-1.32200,79.94000,-0.67000
041225_04.32.09.435,-0.04100,-0.00100,1.00900,0.08700,-0.12300,0.00000,0.56900,0.49000,-1.33000,79.89000,-0.05000
041225_04.32.09.447,-0.03800,-0.00000,0.99900,0.08700,-0.10500,-0.01800,0.57000,0.49200,-1.33000,79.78000,-0.11000
041225_04.32.09.458,-0.04200,-0.00300,1.00000,0.05300,-0.10500,-0.03500,0.57000,0.49200,-1.33000,80.18000,0.40000
