timestamp,ax,ay,az,gx,gy,gz,mx,my,mz,altitude,relative_altitude
011225_15.06.58.631,-0.19500,0.88500,-0.62300,43.08500,38.58800,192.34200,-0.29800,0.48600,-0.00800,266.79000,0.00000
011225_15.06.58.643,-0.12200,0.81100,-0.69000,50.78500,28.75300,172.23500,-0.28400,0.50000,-0.01100,266.70000,-0.09000
011225_15.06.58.654,-0.03900,0.78200,-0.75500,68.07500,21.45500,159.33700,-0.28200,0.51300,-0.01200,266.61000,-0.09000
011225_15.06.58.666,0.11200,0.73400,-0.83200,78.34800,16.01300,148.59200,-0.27700,0.53400,-0.02200,266.70000,0.09000
011225_15.06.58.677,0.16600,0.81000,-0.91800,91.56000,13.59700,143.34200,-0.26700,0.54800,-0.02200,266.73000,0.03000
011225_15.06.58.689,0.17900,0.78800,-0.95900,109.69000,16.53800,143.29000,-0.26700,0.54800,-0.02200,266.41000,-0.32000
011225_15.06.58.700,0.22400,0.76400,-0.94300,127.10300,22.71500,143.92000,-0.26200,0.57300,-0.02800,266.99000,0.58000
011225_15.06.58.712,0.17600,0.81400,-0.89100,127.12000,29.03200,144.58500,-0.25300,0.59500,-0.04100,265.98000,-1.01000
011225_15.06.58.723,0.13500,0.75100,-0.75900,104.37000,31.46500,140.84000,-0.24800,0.60800,-0.04400,266.06000,0.08000
011225_15.06.58.735,0.08500,0.74000,-0.74200,71.54000,24.43000,132.94700,-0.24800,0.60800,-0.04400,265.29000,-0.77000
011225_15.06.58.746,0.11100,0.60300,-0.76100,49.07000,15.01500,115.29000,-0.23600,0.61400,-0.05200,267.34000,2.05000
011225_15.06.58.758,0.14700,0.63800,-0.91400,32.58500,8.62700,94.78000,-0.23000,0.61600,-0.05400,266.07000,-1.27000
011225_15.06.58.769,0.25000,0.64800,-1.01800,29.31200,3.18500,77.91000,-0.22200,0.62300,-0.06200,266.69000,0.62000
011225_15.06.58.781,0.36400,0.63700,-1.06500,38.95500,1.80300,66.60500,-0.21800,0.63400,-0.06200,266.23000,-0.46000
011225_15.06.58.792,0.47800,0.60100,-1.12100,86.32700,5.44300,76.16000,-0.21800,0.63400,-0.06200,267.25000,1.02000
011225_15.06.58.804,0.56900,0.62800,-1.21400,112.85700,13.10800,89.95000,-0.21000,0.64800,-0.06600,266.76000,-0.49000
011225_15.06.58.815,0.41300,0.66900,-1.18400,131.05700,23.25700,104.00300,-0.20000,0.66200,-0.09200,266.52000,-0.24000
011225_15.06.58.827,0.30600,0.59300,-1.07300,126.31500,31.18500,115.62200,-0.18800,0.67300,-0.10700,266.41000,-0.11000
011225_15.06.58.839,0.25700,0.42600,-1.02600,107.45000,36.17300,119.12200,-0.18100,0.68700,-0.11200,266.71000,0.30000
011225_15.06.58.850,0.22900,0.28700,-0.98200,88.81300,40.32000,111.89500,-0.18100,0.68700,-0.11200,266.56000,-0.15000
011225_15.06.58.862,0.19000,0.21700,-0.90900,76.30000,46.20000,99.26000,-0.16900,0.69300,-0.11600,266.23000,-0.33000
011225_15.06.58.873,0.20200,0.23500,-0.90000,70.47300,53.04200,86.87000,-0.16000,0.70100,-0.12300,266.56000,0.33000
011225_15.06.58.885,0.25800,0.27000,-0.92800,69.66800,60.44500,78.43500,-0.16300,0.70800,-0.12800,267.15000,0.59000
011225_15.06.58.896,0.33900,0.28100,-0.95400,73.41200,66.58800,73.34200,-0.16300,0.71400,-0.14000,266.56000,-0.59000
011225_15.06.58.908,0.43000,0.18900,-0.96500,76.79000,68.26800,69.05500,-0.16300,0.71400,-0.14000,267.45000,0.89000
011225_15.06.58.919,0.54400,0.17000,-0.98800,74.06000,66.02800,66.13200,-0.16200,0.71400,-0.14400,266.66000,-0.79000
011225_15.06.58.931,0.62500,0.23900,-1.11200,72.92300,62.17800,66.64000,-0.15500,0.72100,-0.15200,266.95000,0.29000
011225_15.06.58.943,0.67500,0.31000,-1.14400,87.62200,55.80700,77.54300,-0.14500,0.72700,-0.16400,266.82000,-0.13000
011225_15.06.58.954,0.69400,0.21000,-0.91100,96.14500,49.52500,86.71300,-0.14500,0.72700,-0.17300,266.49000,-0.33000
011225_15.06.58.966,0.73000,0.16100,-0.94200,100.67700,39.02500,94.09800,-0.13900,0.73100,-0.17300,266.80000,0.31000
011225_15.06.58.977,0.77100,0.11600,-1.07600,103.30200,31.50000,103.81000,-0.12500,0.74000,-0.18900,266.59000,-0.21000
011225_15.06.58.989,0.78500,0.11000,-1.09600,109.13000,31.58700,116.32300,-0.11200,0.74500,-0.20300,266.12000,-0.47000
011225_15.06.59.000,0.76900,0.01000,-0.99700,118.12500,31.65700,129.25500,-0.09800,0.74900,-0.21800,265.95000,-0.17000
011225_15.06.59.012,0.70700,-0.08900,-0.91500,126.01800,27.58000,140.87500,-0.09800,0.74900,-0.21800,266.67000,0.72000
011225_15.06.59.023,0.63100,-0.16300,-0.87500,133.28000,22.20800,146.86000,-0.07500,0.74300,-0.23500,266.42000,-0.25000
011225_15.06.59.035,0.58200,-0.22300,-0.80900,139.61500,18.97000,147.89300,-0.05000,0.74300,-0.25600,267.12000,0.70000
011225_15.06.59.047,0.54700,-0.26800,-0.72200,142.36300,16.04800,148.99500,-0.02800,0.73700,-0.27200,266.84000,-0.28000
011225_15.06.59.058,0.49200,-0.55300,-0.66200,141.10200,13.05500,152.93200,-0.01000,0.72900,-0.29000,266.37000,-0.47000
011225_15.06.59.070,0.45300,-0.45400,-0.55500,130.86500,5.63500,134.68000,-0.01000,0.72900,-0.29000,266.84000,0.47000
011225_15.06.59.081,0.47300,-0.48100,-0.48000,123.35700,-17.55200,131.19700,0.00900,0.71900,-0.30000,266.24000,-0.60000
011225_15.06.59.093,0.43700,-0.57800,-0.50000,111.68500,-20.09000,132.02000,0.02600,0.70800,-0.31900,266.25000,0.01000
011225_15.06.59.104,0.38300,-0.66400,-0.49700,102.69000,-25.11200,128.87000,0.04600,0.69200,-0.32900,266.05000,-0.20000
011225_15.06.59.116,0.42000,-0.66800,-0.49300,96.88000,-34.10800,124.86300,0.06600,0.67800,-0.34700,266.62000,0.57000
011225_15.06.59.127,0.42700,-0.66100,-0.45300,94.29000,-47.79200,118.65000,0.06600,0.67800,-0.34700,266.40000,-0.22000
011225_15.06.59.139,0.39100,-0.69000,-0.40400,93.74700,-65.27500,109.18300,0.08000,0.66400,-0.37100,266.64000,0.24000
011225_15.06.59.150,0.30500,-0.71600,-0.35100,92.22500,-83.94800,95.97000,0.09600,0.64500,-0.38400,267.56000,0.92000
011225_15.06.59.162,0.23900,-0.54200,-0.40200,91.68300,-98.35000,90.07300,0.10000,0.63300,-0.40200,266.21000,-1.35000
011225_15.06.59.173,0.14000,-0.43900,-0.53500,99.87200,-96.84500,109.90000,0.10000,0.61300,-0.42700,266.50000,0.29000
011225_15.06.59.185,0.03700,-0.54500,-0.50400,105.22800,-80.32500,134.76800,0.11100,0.61300,-0.42700,266.82000,0.32000
011225_15.06.59.196,-0.14600,-0.62500,-0.31200,100.29300,-67.39300,140.85700,0.11700,0.58500,-0.44400,266.54000,-0.28000
011225_15.06.59.208,-0.16300,-0.85800,-0.07500,91.47300,-66.90300,133.57700,0.13000,0.56200,-0.46100,266.68000,0.14000
011225_15.06.59.219,-0.08300,-0.78900,-0.04400,69.70200,-76.03700,119.57700,0.13400,0.54000,-0.47500,266.38000,-0.30000
011225_15.06.59.231,-0.27200,-0.56900,-0.22600,69.40500,-86.08200,85.54000,0.13400,0.54000,-0.47500,266.40000,0.02000
011225_15.06.59.242,-0.27900,-0.74900,0.02000,71.33000,-89.54800,73.85000,0.13500,0.52400,-0.49900,266.93000,0.53000
011225_15.06.59.254,-0.32200,-0.74300,-0.05500,70.52500,-95.81300,60.81300,0.12600,0.50700,-0.51100,266.62000,-0.31000
011225_15.06.59.265,-0.27100,-0.77900,-0.07500,75.86300,-97.89500,47.28500,0.13000,0.49500,-0.53000,266.45000,-0.17000
011225_15.06.59.277,-0.24800,-0.75700,0.04400,83.94800,-98.08800,42.94500,0.12400,0.48100,-0.54900,267.46000,1.01000
011225_15.06.59.288,-0.25900,-0.72900,0.18200,87.44800,-101.13200,55.45800,0.12400,0.48100,-0.54900,266.66000,-0.80000
011225_15.06.59.300,-0.26300,-0.74800,0.25000,79.27500,-106.82000,79.94000,0.12000,0.46400,-0.56300,266.47000,-0.19000
011225_15.06.59.311,-0.34700,-0.79200,0.29600,60.98700,-115.76200,97.82500,0.11200,0.44400,-0.57900,266.11000,-0.36000
011225_15.06.59.323,-0.42600,-0.79900,0.33500,36.12000,-123.67300,105.50700,0.10500,0.42000,-0.58900,265.78000,-0.33000
011225_15.06.59.334,-0.40400,-0.81100,0.35700,14.00000,-128.13500,106.82000,0.09000,0.40300,-0.61200,266.07000,0.29000
011225_15.06.59.346,-0.49800,-0.85800,0.21700,-1.73200,-129.57000,100.50300,0.09000,0.40300,-0.61200,266.52000,0.45000
011225_15.06.59.357,-0.57100,-0.94400,0.13100,0.22800,-115.37800,89.32000,0.07700,0.39400,-0.62800,266.55000,0.03000
011225_15.06.59.369,-0.44100,-0.93100,0.28000,13.87800,-97.30000,69.37000,0.06900,0.38400,-0.63900,266.23000,-0.32000
011225_15.06.59.380,-0.50600,-0.78700,0.34700,28.75300,-90.54500,53.27000,0.05100,0.37100,-0.64400,266.98000,0.75000
011225_15.06.59.392,-0.70300,-0.64400,0.26300,16.10000,-82.25000,67.30500,0.04100,0.36100,-0.66000,266.57000,-0.41000
011225_15.06.59.403,-0.68500,-0.63300,0.20500,1.20700,-70.50700,77.52500,0.04100,0.36100,-0.66000,266.53000,-0.04000
011225_15.06.59.415,-0.62500,-0.60800,0.12200,-1.94200,-57.80300,71.38200,0.03100,0.35300,-0.65900,266.17000,-0.36000
011225_15.06.59.426,-0.47000,-0.66800,0.25600,7.54300,-50.89000,66.15000,0.02000,0.34700,-0.66500,266.09000,-0.08000
011225_15.06.59.438,-0.39800,-0.76400,0.36200,23.99300,-55.58000,51.97500,0.01200,0.33900,-0.66700,266.12000,0.03000
011225_15.06.59.449,-0.48000,-0.74300,0.41500,36.29500,-63.84000,36.05000,0.01200,0.33900,-0.66700,266.59000,0.47000
011225_15.06.59.461,-0.51900,-0.77800,0.34900,37.38000,-73.93800,31.60500,0.00300,0.32700,-0.67700,266.26000,-0.33000
011225_15.06.59.472,-0.51300,-0.70200,0.30100,41.79000,-77.50700,38.83300,-0.01400,0.31600,-0.68400,267.25000,0.99000
011225_15.06.59.484,-0.47200,-0.64900,0.28700,58.11800,-83.21300,40.26800,-0.03100,0.30000,-0.68400,266.60000,-0.65000
011225_15.06.59.495,-0.40100,-0.59200,0.33600,76.54500,-91.43800,33.93200,-0.04700,0.28700,-0.68500,266.85000,0.25000
011225_15.06.59.507,-0.50600,-0.63700,0.41800,89.02200,-99.08500,26.09300,-0.04700,0.28700,-0.68500,266.35000,-0.50000
011225_15.06.59.518,-0.49400,-0.60800,0.57900,93.69500,-110.84500,14.56000,-0.06600,0.27100,-0.68700,266.39000,0.04000
011225_15.06.59.530,-0.39000,-0.45400,0.86100,118.79000,-119.92700,11.41000,-0.09100,0.25200,-0.69200,265.97000,-0.42000
011225_15.06.59.541,-0.83800,-0.83400,0.78400,116.72500,-107.76500,11.95300,-0.10800,0.23400,-0.68600,266.77000,0.80000
011225_15.06.59.553,-0.76600,-0.66000,0.66100,112.36800,-85.66200,25.88200,-0.12600,0.21400,-0.67900,266.43000,-0.34000
011225_15.06.59.564,-0.71900,-0.52900,0.60000,115.22000,-62.30000,44.13500,-0.12600,0.21400,-0.67900,267.30000,0.87000
011225_15.06.59.576,-0.61600,-0.46700,0.73800,118.89500,-38.58800,51.11800,-0.13700,0.19200,-0.66900,267.12000,-0.18000
011225_15.06.59.587,-0.51700,-0.50500,0.81000,115.20200,-25.72500,45.64000,-0.15100,0.17100,-0.66200,266.36000,-0.76000
011225_15.06.59.599,-0.46400,-0.50600,0.78800,101.30800,-18.25300,32.35800,-0.15200,0.15600,-0.65100,266.62000,0.26000
011225_15.06.59.610,-0.48300,-0.56600,0.71900,79.69500,-10.72700,14.91000,-0.15500,0.14500,-0.65100,266.91000,0.29000
011225_15.06.59.622,-0.40700,-0.85100,0.62000,43.48700,-2.85200,2.57200,-0.15500,0.14500,-0.65100,266.28000,-0.63000
011225_15.06.59.633,-0.70900,-0.05800,0.68600,3.11500,9.06500,13.03800,-0.15300,0.13400,-0.64800,266.36000,0.08000
011225_15.06.59.645,-0.36300,0.00500,0.72800,-0.24500,16.80000,23.52000,-0.14900,0.13500,-0.65100,265.75000,-0.61000
011225_15.06.59.656,-0.48400,-0.48400,0.71800,-15.12000,12.49500,29.94300,-0.15000,0.13900,-0.65500,266.45000,0.70000
011225_15.06.59.668,-0.40100,-0.49600,0.85600,-60.35800,11.20000,4.04300,-0.15000,0.13900,-0.65500,266.04000,-0.41000
011225_15.06.59.679,-0.35800,-0.38900,0.84900,-65.67700,4.67300,-1.62800,-0.14800,0.14900,-0.66000,266.25000,0.21000
011225_15.06.59.691,-0.45200,-0.49100,0.81100,-68.75700,-1.78500,-6.14200,-0.14500,0.15700,-0.66800,266.67000,0.42000
011225_15.06.59.702,-0.49000,-0.50200,0.76700,-76.58000,-4.70700,-10.83300,-0.14300,0.16600,-0.67400,266.42000,-0.25000
011225_15.06.59.714,-0.49800,-0.46200,0.70900,-81.16500,-3.67500,-15.40000,-0.14000,0.18500,-0.68100,266.03000,-0.39000
011225_15.06.59.725,-0.56600,-0.40100,0.61700,-74.07700,0.05300,-19.82700,-0.14000,0.18500,-0.68100,267.19000,1.16000
011225_15.06.59.737,-0.60100,-0.33600,0.57500,-55.75500,8.80200,-22.57500,-0.14200,0.19900,-0.68400,266.48000,-0.71000
011225_15.06.59.748,-0.52700,-0.27900,0.53300,-32.58500,13.82500,-18.25300,-0.14000,0.20700,-0.68700,266.53000,0.05000
011225_15.06.59.760,-0.63100,-0.62500,0.66400,-11.84700,14.78800,-1.62800,-0.13500,0.20500,-0.69100,266.71000,0.18000
011225_15.06.59.771,-0.57600,-0.70200,0.68800,5.86300,19.96800,31.93700,-0.13300,0.19800,-0.68700,266.51000,-0.20000
011225_15.06.59.783,-0.51500,-0.12100,0.51300,25.88200,18.51500,73.95500,-0.13300,0.19800,-0.68700,266.23000,-0.28000
011225_15.06.59.794,-0.67600,-0.59300,0.63900,57.62700,15.71500,102.60300,-0.14400,0.18800,-0.67800,266.76000,0.53000
011225_15.06.59.806,-0.61600,-0.54300,0.56000,73.71000,22.89000,109.81300,-0.14700,0.17100,-0.67100,266.56000,-0.20000
011225_15.06.59.817,-0.45100,-0.41600,0.60900,79.03000,8.75000,117.56500,-0.15700,0.15700,-0.66400,266.71000,0.15000
011225_15.06.59.829,-0.40800,-0.58300,0.74600,76.70200,-5.33800,120.87200,-0.17700,0.14100,-0.65700,266.39000,-0.32000
011225_15.06.59.840,-0.41700,-0.50800,0.70000,75.05800,-22.38200,116.60300,-0.17700,0.14100,-0.65700,266.58000,0.19000
011225_15.06.59.852,-0.52900,-0.39900,0.62400,76.86000,-36.03300,109.93500,-0.19100,0.12700,-0.65800,266.74000,0.16000
011225_15.06.59.863,-0.60900,-0.29400,0.61500,81.58500,-41.16000,102.83000,-0.20600,0.11200,-0.64900,266.57000,-0.17000
011225_15.06.59.874,-0.64500,-0.13500,0.68600,86.87000,-40.60000,98.15800,-0.22200,0.10300,-0.63100,266.60000,0.03000
011225_15.06.59.886,-0.65300,0.00300,0.75100,93.13500,-39.37500,97.66800,-0.22200,0.10300,-0.62300,266.29000,-0.31000
011225_15.06.59.897,-0.66200,0.07600,0.76700,100.78300,-38.90300,100.08200,-0.24700,0.09000,-0.62300,266.64000,0.35000
011225_15.06.59.909,-0.66100,0.12700,0.75000,110.51200,-39.07700,101.92000,-0.26700,0.07900,-0.60800,267.03000,0.39000
011225_15.06.59.920,-0.62900,0.15500,0.72100,119.70000,-39.04200,101.60500,-0.28300,0.06000,-0.59100,266.79000,-0.24000
011225_15.06.59.932,-0.62400,0.14400,0.71700,125.14300,-37.71300,100.15300,-0.30200,0.05100,-0.57100,266.23000,-0.56000
011225_15.06.59.943,-0.67100,0.16700,0.72800,125.00300,-34.07200,98.52500,-0.30200,0.05100,-0.57100,266.45000,0.22000
011225_15.06.59.955,-0.70700,0.20200,0.74000,122.95500,-27.42300,96.33800,-0.32600,0.03800,-0.55000,266.85000,0.40000
011225_15.06.59.967,-0.69600,0.25900,0.71300,128.55500,-8.26000,99.31300,-0.34200,0.03600,-0.53900,267.19000,0.34000
011225_15.06.59.978,-0.64100,0.35900,0.72400,140.29800,0.33300,106.24300,-0.35800,0.02900,-0.51500,266.89000,-0.30000
011225_15.06.59.990,-0.64200,0.45200,0.82800,150.39500,7.05300,114.27500,-0.37600,0.02200,-0.48900,267.12000,0.23000
011225_15.07.00.001,-0.58500,0.57000,0.88400,156.53800,11.13000,125.84200,-0.37600,0.02200,-0.48900,266.87000,-0.25000
011225_15.07.00.013,-0.54300,0.69100,0.79300,161.92800,10.97200,139.61500,-0.40000,0.02300,-0.47400,267.24000,0.37000
011225_15.07.00.024,-0.53800,0.51300,0.52700,172.70800,10.48300,152.49500,-0.42300,0.02200,-0.45300,266.93000,-0.31000
011225_15.07.00.036,-0.25100,0.89000,0.67900,190.22500,11.53300,156.04800,-0.45100,0.02700,-0.41300,266.63000,-0.30000
011225_15.07.00.047,-0.93100,0.84100,0.66400,197.68000,12.74000,166.82700,-0.47800,0.04600,-0.39300,266.47000,-0.16000
011225_15.07.00.059,-0.18200,0.78800,0.46800,171.83300,46.98700,163.46700,-0.47800,0.04600,-0.39300,265.63000,-0.84000
011225_15.07.00.070,0.11200,1.19000,0.38000,149.78300,32.63800,163.94000,-0.50500,0.05700,-0.37400,266.67000,1.04000
011225_15.07.00.082,-0.33000,0.73000,0.46800,145.89800,13.10800,177.39800,-0.52500,0.08100,-0.36300,266.39000,-0.28000
011225_15.07.00.093,-0.32000,0.68800,0.62500,132.52700,5.40700,169.76800,-0.54900,0.10200,-0.35100,266.81000,0.42000
011225_15.07.00.105,-0.22700,0.89700,0.46100,115.50000,-15.34700,152.95000,-0.54900,0.12800,-0.33300,266.44000,-0.37000
011225_15.07.00.116,-0.21400,0.96300,0.27100,117.26800,-17.55200,148.71500,-0.56600,0.12800,-0.33300,266.39000,-0.05000
011225_15.07.00.128,-0.07500,0.95800,0.18100,117.96700,-18.25300,147.33300,-0.58200,0.15000,-0.31800,266.57000,0.18000
011225_15.07.00.139,-0.10100,0.95900,0.15300,126.59500,-20.26500,147.89300,-0.60000,0.18500,-0.30500,265.32000,-1.25000
011225_15.07.00.151,-0.17400,0.87200,0.20800,139.19500,-20.33500,148.12000,-0.61100,0.20900,-0.29200,266.54000,1.22000
011225_15.07.00.162,-0.54500,0.65400,0.46900,140.77000,-4.18200,134.55700,-0.61100,0.20900,-0.29200,266.64000,0.10000
011225_15.07.00.174,0.05600,0.98200,-0.01200,146.63300,-9.85200,101.41200,-0.62000,0.23400,-0.28100,266.65000,0.01000
011225_15.07.00.185,0.27100,0.85500,-0.12500,160.87800,-7.21000,95.70700,-0.63100,0.25900,-0.27200,267.30000,0.65000
011225_15.07.00.197,0.28300,0.81300,-0.04700,167.12500,4.13000,102.41000,-0.63800,0.28600,-0.26700,267.03000,-0.27000
011225_15.07.00.208,0.34100,0.99700,0.07000,169.62800,7.43700,104.07300,-0.64500,0.31400,-0.25600,266.14000,-0.89000
011225_15.07.00.220,0.28000,1.06500,-0.02400,162.31200,7.85800,103.75700,-0.64500,0.31400,-0.25600,267.38000,1.24000
011225_15.07.00.231,0.24600,1.21000,-0.28100,143.11500,9.46700,95.37500,-0.64300,0.33900,-0.26100,266.66000,-0.72000
011225_15.07.00.243,0.29500,0.96200,-0.39200,129.64000,7.17500,75.95000,-0.64500,0.35500,-0.25600,266.69000,0.03000
011225_15.07.00.254,0.38600,0.95300,-0.47500,121.64300,-1.85500,49.89300,-0.64700,0.37300,-0.26000,266.50000,-0.19000
011225_15.07.00.265,0.43400,0.82200,-0.48300,118.63200,-5.65300,50.55700,-0.64800,0.39000,-0.25700,266.41000,-0.09000
011225_15.07.00.277,0.46400,0.79100,-0.56100,119.87500,-9.73000,49.77000,-0.64800,0.39000,-0.25700,266.33000,-0.08000
011225_15.07.00.288,0.49100,0.75400,-0.64600,122.99000,-12.72200,50.92500,-0.64900,0.40600,-0.25000,266.46000,0.13000
011225_15.07.00.300,0.55200,0.74100,-0.73500,129.74500,-14.92700,53.62000,-0.64700,0.42500,-0.26100,267.05000,0.59000
011225_15.07.00.311,0.61400,0.77300,-0.79200,142.73000,-16.69500,59.64000,-0.64600,0.44400,-0.25400,266.40000,-0.65000
011225_15.07.00.323,0.61700,0.81900,-0.83100,160.31800,-17.69200,69.02000,-0.64600,0.46600,-0.25900,266.36000,-0.04000
011225_15.07.00.334,0.53200,0.80000,-0.81800,174.82500,-17.72800,75.89700,-0.64600,0.46600,-0.25900,266.32000,-0.04000
011225_15.07.00.346,0.51200,0.82400,-0.78200,182.49000,-16.13500,75.89700,-0.63700,0.49400,-0.25900,266.68000,0.36000
011225_15.07.00.357,0.46600,0.83700,-0.64100,185.58700,-11.74300,74.02500,-0.63600,0.51700,-0.26000,266.40000,-0.28000
011225_15.07.00.369,0.37200,0.76300,-0.58600,180.02300,-9.53800,71.75000,-0.63300,0.53700,-0.26500,266.32000,-0.08000
011225_15.07.00.380,0.36600,0.73600,-0.60600,167.17800,-5.79300,64.06700,-0.63300,0.53700,-0.26500,266.62000,0.30000
011225_15.07.00.392,0.34900,0.70200,-0.58000,155.48800,-4.51500,34.86000,-0.62900,0.55400,-0.27700,266.49000,-0.13000
011225_15.07.00.403,0.41800,0.64600,-0.53700,132.37000,-0.07000,32.20000,-0.62300,0.56600,-0.29400,266.17000,-0.32000
011225_15.07.00.415,0.40700,0.41900,-0.37400,123.02500,6.96500,33.07500,-0.62200,0.57500,-0.30100,267.12000,0.95000
011225_15.07.00.426,0.32100,0.24400,-0.33100,109.27000,11.04300,29.22500,-0.62400,0.58300,-0.31100,266.39000,-0.73000
011225_15.07.00.438,0.28800,0.26000,-0.36900,87.27200,19.23300,21.63000,-0.62400,0.58300,-0.31100,266.57000,0.18000
011225_15.07.00.449,0.45600,0.39800,-0.51400,70.84000,27.05500,12.53000,-0.61500,0.58600,-0.32100,266.04000,-0.53000
011225_15.07.00.461,0.43500,0.34400,-0.66300,65.06500,31.57000,8.57500,-0.61700,0.59000,-0.33100,266.13000,0.09000
011225_15.07.00.472,0.43400,0.18000,-0.77000,64.19000,39.91700,6.02000,-0.61700,0.59900,-0.33900,266.97000,0.84000
011225_15.07.00.483,0.53900,0.12900,-0.94600,63.35000,44.29200,0.28000,-0.61900,0.59600,-0.35300,266.70000,-0.27000
011225_15.07.00.495,0.62600,0.10900,-1.03700,65.52000,45.22000,-2.39800,-0.61900,0.59600,-0.35300,266.41000,-0.29000
011225_15.07.00.506,0.73900,0.12500,-1.16100,72.31000,40.16200,-2.06500,-0.61800,0.59900,-0.36200,266.82000,0.41000
011225_15.07.00.518,0.80100,0.12400,-1.17500,82.68800,34.56300,2.78300,-0.61600,0.59400,-0.37600,266.64000,-0.18000
011225_15.07.00.529,0.83500,0.10800,-1.15400,94.09800,28.07000,9.52000,-0.61200,0.60400,-0.38500,266.28000,-0.36000
011225_15.07.00.541,0.83000,0.09300,-1.12800,113.41800,13.35200,22.55800,-0.61100,0.60600,-0.39500,266.03000,-0.25000
011225_15.07.00.552,0.78000,-0.03500,-1.01600,118.59800,8.19000,26.14500,-0.61100,0.60600,-0.39500,266.34000,0.31000
011225_15.07.00.564,0.74200,-0.08700,-0.90600,121.52000,5.21500,28.54200,-0.60800,0.61000,-0.40700,266.46000,0.12000
011225_15.07.00.575,0.70500,-0.09500,-0.74700,119.66500,3.18500,31.69300,-0.60600,0.61400,-0.41600,266.32000,-0.14000
011225_15.07.00.587,0.65200,-0.12100,-0.63800,112.17500,3.34200,33.84500,-0.60100,0.61000,-0.42800,266.83000,0.51000
011225_15.07.00.598,0.70300,-0.15200,-0.61800,101.44800,4.30500,34.09000,-0.60100,0.61000,-0.42800,266.41000,-0.42000
011225_15.07.00.610,0.71500,-0.14400,-0.62700,89.72300,4.44500,36.89000,-0.59900,0.61800,-0.43500,267.37000,0.96000
011225_15.07.00.621,0.66200,-0.17100,-0.70400,75.37200,5.47700,39.09500,-0.59600,0.61800,-0.43700,266.53000,-0.84000
011225_15.07.00.633,0.71800,-0.17300,-0.83900,66.92000,6.73800,34.21300,-0.59100,0.62700,-0.44600,266.36000,-0.17000
011225_15.07.00.644,0.76800,-0.09600,-0.78600,61.51300,-1.01500,40.51300,-0.58800,0.62900,-0.44800,266.90000,0.54000
011225_15.07.00.656,0.65900,-0.16300,-0.77200,51.38000,-6.40500,45.39500,-0.58800,0.62900,-0.44800,265.87000,-1.03000
011225_15.07.00.667,0.66300,-0.13400,-0.79800,43.52200,-10.88500,44.67800,-0.58600,0.63200,-0.44900,266.99000,1.12000
011225_15.07.00.679,0.66400,-0.12500,-0.76600,39.25200,-12.56500,46.16500,-0.58200,0.63800,-0.44400,266.58000,-0.41000
011225_15.07.00.690,0.64400,-0.14900,-0.65400,32.90000,-6.52800,53.21700,-0.58000,0.64300,-0.45400,265.75000,-0.83000
011225_15.07.00.702,0.47500,-0.20300,-0.47200,31.01000,0.64700,53.25200,-0.57200,0.65200,-0.45100,266.64000,0.89000
011225_15.07.00.713,0.46800,-0.29000,-0.36800,25.53200,8.17200,51.95800,-0.57200,0.65200,-0.45100,267.24000,0.60000
011225_15.07.00.725,0.41900,-0.29700,-0.49400,14.82300,14.80500,51.99300,-0.56600,0.66000,-0.46300,266.54000,-0.70000
011225_15.07.00.736,0.39300,-0.33300,-0.56900,8.54000,21.36800,49.57700,-0.56400,0.66500,-0.46700,265.25000,-1.29000
011225_15.07.00.748,0.45200,-0.31100,-0.57600,3.30800,25.86500,45.51800,-0.56000,0.67500,-0.47100,266.21000,0.96000
011225_15.07.00.759,0.74300,0.02000,-0.36200,-9.01200,30.39800,43.55700,-0.54900,0.67600,-0.47500,265.90000,-0.31000
011225_15.07.00.770,0.65500,0.00300,-0.34400,-47.35500,55.17800,37.15300,-0.54900,0.67600,-0.47500,266.42000,0.52000
011225_15.07.00.782,0.44100,-0.23600,-0.82200,-80.09800,69.49300,23.24000,-0.55100,0.68400,-0.47000,266.96000,0.54000
011225_15.07.00.793,0.38300,-0.31400,-1.10200,-84.73500,53.74300,13.61500,-0.54400,0.68600,-0.46900,266.29000,-0.67000
011225_15.07.00.805,0.35600,-0.34400,-1.12000,-72.50300,29.40000,12.89800,-0.53900,0.69600,-0.46700,266.70000,0.41000
011225_15.07.00.816,0.59100,-0.29100,-0.84200,-53.44500,18.53200,13.23000,-0.53900,0.69600,-0.45800,266.54000,-0.16000
011225_15.07.00.828,0.67900,-0.20100,-0.61300,-42.21000,23.60800,16.36200,-0.54100,0.69800,-0.45800,266.23000,-0.31000
011225_15.07.00.839,0.69400,-0.16000,-0.54200,-36.92500,31.50000,28.52500,-0.53100,0.70000,-0.45800,266.58000,0.35000
011225_15.07.00.850,0.87400,0.32800,-0.53100,-36.87300,48.65000,52.92000,-0.52500,0.70500,-0.45800,266.54000,-0.04000
011225_15.07.00.861,0.75500,0.09000,-0.56300,-43.75000,72.43300,70.50700,-0.51300,0.71700,-0.45300,266.40000,-0.14000
011225_15.07.00.873,0.70500,0.06200,-0.72400,-55.58000,75.39000,83.38700,-0.51300,0.71700,-0.45300,266.69000,0.29000
011225_15.07.00.884,0.62000,0.08700,-0.86600,-62.19500,63.56000,94.95500,-0.50200,0.72800,-0.45700,266.04000,-0.65000
011225_15.07.00.896,0.66800,-0.04500,-0.82700,-62.79000,58.48500,99.15500,-0.48200,0.74200,-0.45300,266.36000,0.32000
011225_15.07.00.907,0.84000,-0.19500,-0.69700,-67.81300,59.13200,96.65300,-0.46400,0.75100,-0.45000,266.98000,0.62000
011225_15.07.00.919,0.91400,-0.17400,-0.66600,-78.31300,58.39700,92.66200,-0.45200,0.76800,-0.44400,266.31000,-0.67000
011225_15.07.00.930,0.88800,-0.21200,-0.75800,-86.13500,53.76000,88.09500,-0.45200,0.76800,-0.44400,266.33000,0.02000
011225_15.07.00.942,0.94600,-0.35500,-0.88400,-93.64300,53.98700,80.34200,-0.43300,0.77300,-0.43300,266.35000,0.02000
011225_15.07.00.953,0.90000,-0.57000,-0.90500,-100.97500,54.91500,65.62500,-0.42500,0.78400,-0.41900,266.87000,0.52000
011225_15.07.00.965,0.73800,-0.62000,-0.85400,-106.68000,54.00500,41.42300,-0.41800,0.78700,-0.41200,266.16000,-0.71000
011225_15.07.00.976,0.70600,-0.37700,-0.81000,-99.34800,56.63000,2.39800,-0.42000,0.78300,-0.40300,266.07000,-0.09000
011225_15.07.00.988,0.76600,-0.28800,-0.60000,-108.88500,62.77200,-10.71000,-0.42000,0.78300,-0.40300,266.67000,0.60000
011225_15.07.00.999,0.87400,0.11700,-0.63000,-107.81700,73.15000,-16.85300,-0.41800,0.78700,-0.38700,266.75000,0.08000
011225_15.07.01.011,0.90800,0.14800,-0.61800,-93.06500,84.00000,-16.76500,-0.41900,0.78900,-0.37200,266.75000,0.00000
011225_15.07.01.022,0.95500,0.06400,-0.52000,-78.13700,94.81500,-16.06500,-0.42300,0.78900,-0.36500,266.77000,0.02000
011225_15.07.01.034,0.98700,0.05300,-0.47900,-71.73200,104.96500,-19.86200,-0.42300,0.78900,-0.37100,266.43000,-0.34000
011225_15.07.01.045,1.00200,0.02100,-0.49800,-72.17000,116.35700,-22.83700,-0.43000,0.78900,-0.37100,266.74000,0.31000
011225_15.07.01.057,1.05200,-0.06200,-0.57200,-79.97500,127.80200,-21.54200,-0.43500,0.78800,-0.36700,266.66000,-0.08000
011225_15.07.01.069,1.15100,-0.09100,-0.65700,-92.08500,135.71200,-15.03300,-0.43500,0.78400,-0.36400,266.46000,-0.20000
011225_15.07.01.080,1.22500,-0.06800,-0.66500,-100.85300,136.39500,-3.86800,-0.43800,0.78500,-0.36500,267.27000,0.81000
011225_15.07.01.092,1.24800,-0.06800,-0.62000,-103.74000,125.37000,8.24300,-0.43800,0.78500,-0.36500,266.64000,-0.63000
011225_15.07.01.103,1.24600,-0.12800,-0.58500,-103.33800,104.17700,17.76300,-0.43800,0.78900,-0.34700,266.38000,-0.26000
011225_15.07.01.115,1.20700,-0.14200,-0.53600,-104.37000,80.02800,22.05000,-0.43000,0.78700,-0.33900,266.77000,0.39000
011225_15.07.01.126,1.19500,-0.05800,-0.57400,-108.02800,52.48300,34.26500,-0.43300,0.78600,-0.32200,266.58000,-0.19000
011225_15.07.01.138,1.29800,0.09500,-0.38700,-104.75500,47.47800,90.54500,-0.42400,0.79800,-0.31100,266.24000,-0.34000
011225_15.07.01.149,0.88300,0.03600,-0.46700,-100.62500,34.03700,123.25300,-0.42400,0.79800,-0.31100,266.39000,0.15000
011225_15.07.01.161,0.63800,-0.00500,-0.78700,-96.75700,30.36200,134.45200,-0.40500,0.80200,-0.30400,266.69000,0.30000
011225_15.07.01.172,0.80200,0.20100,-0.72300,-74.69000,47.54800,121.60700,-0.37600,0.79900,-0.29100,266.96000,0.27000
011225_15.07.01.184,0.83100,0.08100,-0.58200,-55.35300,68.98500,117.35500,-0.36200,0.80500,-0.28500,266.28000,-0.68000
011225_15.07.01.195,0.79900,-0.12100,-0.56700,-43.55700,88.60300,109.81300,-0.34800,0.80600,-0.28300,266.46000,0.18000
011225_15.07.01.207,0.94100,-0.12100,-0.50500,-39.95200,116.44500,98.59500,-0.34800,0.80600,-0.28300,266.67000,0.21000
011225_15.07.01.218,0.91300,-0.20100,-0.40400,-43.06800,147.98000,92.78500,-0.33300,0.80200,-0.28100,266.87000,0.20000
011225_15.07.01.230,0.93300,-0.25400,-0.42000,-44.36200,176.27700,86.66000,-0.32100,0.79800,-0.29100,266.60000,-0.27000
011225_15.07.01.241,0.90100,-0.40700,-0.24600,-35.29800,195.82500,78.03300,-0.32000,0.80200,-0.28700,266.76000,0.16000
011225_15.07.01.253,0.86400,-0.37600,0.05100,-27.93000,203.85700,65.15300,-0.31900,0.80800,-0.28600,266.30000,-0.46000
011225_15.07.01.264,0.79000,-0.58900,0.54800,-23.80000,187.18000,28.12200,-0.31900,0.80800,-0.28600,266.51000,0.21000
011225_15.07.01.276,0.74200,-0.61600,0.75700,-41.28300,80.55200,22.05000,-0.32300,0.81300,-0.28000,266.25000,-0.26000
011225_15.07.01.287,1.03400,0.06500,-0.16200,-33.72200,58.13500,45.50000,-0.32700,0.80600,-0.28300,265.92000,-0.33000
011225_15.07.01.299,0.92200,0.04400,-0.08200,-6.03700,45.90300,75.02200,-0.31500,0.81000,-0.27700,266.76000,0.84000
011225_15.07.01.310,0.73200,-0.29700,0.12400,2.85200,46.39300,87.88500,-0.31500,0.81000,-0.27700,266.59000,-0.17000
011225_15.07.01.322,0.79500,-0.42300,0.12700,-6.89500,53.79500,86.36300,-0.30400,0.81600,-0.28200,265.63000,-0.96000
011225_15.07.01.333,0.91400,-0.29100,0.04300,-13.38700,57.66200,87.69200,-0.29300,0.81800,-0.28100,266.86000,1.23000
011225_15.07.01.345,0.82300,-0.27900,0.16300,-10.27300,59.93800,94.36000,-0.28000,0.82000,-0.28400,266.77000,-0.09000
011225_15.07.01.356,0.86100,-0.36200,0.22000,-12.91500,63.52500,101.41200,-0.26700,0.82000,-0.28500,266.27000,-0.50000
011225_15.07.01.368,0.89800,-0.43000,0.24000,-10.67500,49.66500,109.48000,-0.26700,0.82000,-0.28500,266.14000,-0.13000
011225_15.07.01.379,0.98400,-0.43700,0.20200,-6.72000,23.99300,116.67300,-0.24500,0.82200,-0.27500,266.78000,0.64000
011225_15.07.01.391,0.99600,-0.46000,0.15400,-4.62000,-1.19000,122.99000,-0.22400,0.81600,-0.27100,266.36000,-0.42000
011225_15.07.01.402,0.98700,-0.42600,0.11100,-3.37800,-10.22000,129.22000,-0.19800,0.81400,-0.28000,267.08000,0.72000
011225_15.07.01.413,1.06800,-0.44600,0.15800,-2.99300,-3.48300,148.96000,-0.17100,0.80600,-0.27800,267.07000,-0.01000
011225_15.07.01.425,0.84700,-0.49100,0.23900,-4.62000,1.75000,154.92800,-0.17100,0.80600,-0.27800,266.97000,-0.10000
011225_15.07.01.436,0.60600,-0.75500,0.15400,-7.49000,-0.77000,153.33500,-0.14400,0.80300,-0.27700,266.48000,-0.49000
011225_15.07.01.448,0.47800,-0.76100,0.06700,-3.71000,-11.72500,147.75300,-0.11900,0.79100,-0.27800,266.29000,-0.19000
011225_15.07.01.459,0.46000,-0.74000,0.17200,5.09300,-18.67300,140.42000,-0.09200,0.78000,-0.27100,266.73000,0.44000
011225_15.07.01.471,0.40500,-0.77600,0.26900,8.08500,-19.63500,134.41700,-0.07000,0.77100,-0.27200,266.62000,-0.11000
011225_15.07.01.482,0.41400,-0.81700,0.35500,5.25000,-18.63800,129.48200,-0.07000,0.77100,-0.27200,266.19000,-0.43000
011225_15.07.01.494,0.47600,-0.87500,0.42000,-0.57700,-17.72800,125.93000,-0.04600,0.76000,-0.27400,266.76000,0.57000
011225_15.07.01.505,0.49900,-0.87700,0.44300,-8.99500,-18.16500,124.72300,-0.02600,0.74500,-0.28100,266.44000,-0.32000
011225_15.07.01.517,0.46300,-0.81400,0.38100,-15.76700,-13.89500,125.05500,-0.00500,0.72800,-0.27000,266.15000,-0.29000
011225_15.07.01.528,0.36900,-0.82700,0.34700,-19.93300,-4.09500,127.03300,-0.00500,0.72800,-0.27000,265.95000,-0.20000
011225_15.07.01.539,0.33600,-0.85500,0.37600,-26.14500,3.36000,128.99300,0.01200,0.71100,-0.26300,266.73000,0.78000
011225_15.07.01.551,0.12400,-0.84900,0.29700,-33.54800,9.53800,129.85000,0.02600,0.69700,-0.25200,265.88000,-0.85000
011225_15.07.01.562,-0.01100,-0.84000,0.21000,-41.73700,33.88000,116.04300,0.04200,0.67600,-0.25000,265.37000,-0.51000
011225_15.07.01.574,0.10800,-0.82600,0.20200,-46.56800,42.91000,108.11500,0.05300,0.66200,-0.23900,266.60000,1.23000
011225_15.07.01.585,0.21900,-0.85400,0.23900,-54.11000,45.53500,103.68800,0.05300,0.66200,-0.23900,265.99000,-0.61000
011225_15.07.01.597,0.25300,-0.86100,0.22500,-62.49300,42.71700,104.91200,0.06100,0.64400,-0.22600,266.64000,0.65000
011225_15.07.01.608,0.25300,-0.84300,0.19800,-70.19200,38.11500,109.81300,0.07000,0.62000,-0.21700,266.63000,-0.01000
011225_15.07.01.620,0.19100,-0.79000,0.17100,-76.91200,31.74500,115.39500,0.08000,0.60200,-0.20600,266.32000,-0.31000
011225_15.07.01.631,0.15300,-0.76300,0.12400,-76.44000,20.37000,119.98000,0.08600,0.57300,-0.19700,266.92000,0.60000
011225_15.07.01.643,0.14600,-0.78900,0.08600,-74.20000,7.85800,123.02500,0.08600,0.57300,-0.19700,265.96000,-0.96000
011225_15.07.01.654,0.10500,-0.77000,0.06900,-73.67500,-1.43500,126.05200,0.09400,0.54900,-0.18800,265.96000,0.00000
011225_15.07.01.666,0.03200,-0.73100,0.03800,-73.58800,-7.85800,133.73500,0.10100,0.52300,-0.18500,266.24000,0.28000
011225_15.07.01.677,-0.06300,-0.74000,0.01100,-74.69000,-13.30000,145.25000,0.11400,0.48900,-0.18400,266.04000,-0.20000
011225_15.07.01.689,-0.10100,-0.77200,0.00900,-78.89000,-16.69500,156.10000,0.11900,0.45500,-0.18700,266.12000,0.08000
011225_15.07.01.700,-0.08100,-0.73900,0.03200,-84.66500,-17.93700,173.70500,0.11900,0.45500,-0.18700,266.41000,0.29000
011225_15.07.01.712,-0.09800,-0.69700,0.00200,-100.81700,-19.89800,183.73200,0.12900,0.41500,-0.18600,266.96000,0.55000
011225_15.07.01.723,-0.18000,-0.63900,-0.13000,-108.16800,-26.88000,193.27000,0.13300,0.37200,-0.18500,266.54000,-0.42000
011225_15.07.01.735,-0.30200,-0.49300,-0.20800,-107.01200,-37.20500,201.79200,0.12600,0.33100,-0.20100,266.24000,-0.30000
011225_15.07.01.746,-0.42500,-0.52800,-0.23800,-92.24300,-43.62700,205.66000,0.12600,0.28700,-0.21200,265.84000,-0.40000
011225_15.07.01.758,-0.57000,-0.49200,-0.28600,-85.73200,-45.55300,205.11800,0.12300,0.28700,-0.21200,266.61000,0.77000
011225_15.07.01.769,-0.68700,-0.47800,-0.34600,-85.40000,-42.71700,203.70000,0.12400,0.24300,-0.22300,267.00000,0.39000
011225_15.07.01.781,-0.71300,-0.37100,-0.36200,-85.69800,-40.81000,201.04000,0.11700,0.19900,-0.23400,266.90000,-0.10000
011225_15.07.01.792,-0.73000,-0.34600,-0.32700,-77.64700,-39.04200,198.60700,0.10000,0.15900,-0.24000,267.44000,0.54000
011225_15.07.01.804,-0.78500,-0.24300,-0.32800,-71.75000,-37.83500,194.72300,0.10000,0.15900,-0.24000,267.17000,-0.27000
011225_15.07.01.816,-0.83000,-0.20000,-0.24200,-69.77200,-35.84000,191.69500,0.08600,0.12500,-0.25400,266.95000,-0.22000
011225_15.07.01.827,-0.81400,-0.19900,-0.21000,-69.61500,-33.79200,188.10700,0.06500,0.09400,-0.26900,266.96000,0.01000
011225_15.07.01.839,-0.81900,-0.19200,-0.15200,-69.05500,-32.97000,182.96200,0.04200,0.06900,-0.28300,266.91000,-0.05000
011225_15.07.01.850,-0.90600,-0.22600,-0.07000,-74.39300,-35.14000,161.29800,0.02200,0.04700,-0.29700,266.79000,-0.12000
011225_15.07.01.862,-1.04300,-0.24900,-0.15200,-78.05000,-30.88800,143.88500,0.02200,0.04700,-0.29700,266.95000,0.16000
011225_15.07.01.873,-1.28200,-0.50800,-0.27800,-88.95200,-20.14200,122.95500,0.00500,0.03100,-0.31000,266.28000,-0.67000
011225_15.07.01.885,-1.30100,-0.33200,-0.32700,-97.31700,-7.66500,93.64300,-0.01800,0.01600,-0.32200,266.77000,0.49000
011225_15.07.01.896,-1.17500,-0.07400,-0.34300,-102.81300,0.03500,64.36500,-0.02700,0.00700,-0.33700,267.23000,0.46000
011225_15.07.01.908,-1.09600,0.00200,-0.33000,-103.46000,2.59000,40.28500,-0.03000,-0.00500,-0.35000,266.54000,-0.69000
011225_15.07.01.919,-1.03500,0.10800,-0.27400,-99.34800,1.01500,24.37800,-0.03000,-0.00500,-0.35000,266.80000,0.26000
011225_15.07.01.931,-1.02500,0.14300,-0.25200,-90.52800,-0.94500,21.64800,-0.03100,-0.00600,-0.36900,266.85000,0.05000
011225_15.07.01.942,-0.96200,0.11100,-0.24400,-84.49000,-6.65000,23.18700,-0.03700,-0.01300,-0.38100,266.24000,-0.61000
011225_15.07.01.954,-1.00500,0.05600,-0.23300,-80.50000,-13.63200,24.43000,-0.03800,-0.01000,-0.39200,267.24000,1.00000
011225_15.07.01.965,-0.99800,0.11500,-0.23200,-75.77500,-19.91500,20.68500,-0.04600,-0.01200,-0.41200,266.28000,-0.96000
011225_15.07.01.977,-0.98000,0.06600,-0.17700,-68.67000,-26.05800,21.08700,-0.04600,-0.01200,-0.41200,266.49000,0.21000
011225_15.07.01.989,-0.95000,0.00900,-0.08900,-65.90500,-30.34500,20.91300,-0.04600,-0.01300,-0.42500,267.29000,0.80000
011225_15.07.02.000,-1.11200,0.02700,-0.06400,-74.21700,-28.38500,18.14800,-0.05300,-0.01000,-0.43300,266.06000,-1.23000
011225_15.07.02.012,-1.21900,-0.10300,-0.03300,-83.49300,-24.48300,16.27500,-0.06100,-0.00600,-0.44400,266.50000,0.44000
011225_15.07.02.023,-1.25300,-0.12300,-0.02700,-93.74700,-22.64500,13.28300,-0.06100,-0.00600,-0.44400,266.38000,-0.12000
011225_15.07.02.035,-1.25900,-0.15300,-0.03200,-102.79500,-20.54500,6.66800,-0.06200,-0.00400,-0.46900,265.75000,-0.63000
011225_15.07.02.046,-1.25500,-0.19200,0.00000,-112.07000,-19.07500,-4.13000,-0.06600,-0.00200,-0.48000,267.01000,1.26000
011225_15.07.02.058,-1.16400,-0.19000,-0.04100,-123.25300,-16.71200,-18.37500,-0.06100,0.00100,-0.50300,266.59000,-0.42000
011225_15.07.02.069,-1.11500,-0.13000,0.18200,-132.80700,-0.82200,-37.34500,-0.05700,0.01400,-0.52300,266.22000,-0.37000
011225_15.07.02.081,-1.22700,-0.06900,0.04500,-143.74500,-0.82200,-55.79000,-0.05700,0.01400,-0.52300,266.60000,0.38000
011225_15.07.02.092,-1.29400,-0.05300,-0.15700,-151.72500,-2.50300,-64.97800,-0.05000,0.02700,-0.54200,266.18000,-0.42000
011225_15.07.02.104,-1.34300,0.02600,-0.26100,-160.19500,-0.31500,-64.69800,-0.04300,0.04800,-0.56200,266.34000,0.16000
011225_15.07.02.115,-1.28300,0.13300,-0.31000,-169.75000,6.26500,-56.92800,-0.03200,0.06600,-0.58500,266.85000,0.51000
011225_15.07.02.127,-1.09500,0.10000,-0.16400,-179.93500,14.94500,-44.46700,-0.01800,0.08800,-0.60100,266.59000,-0.26000
011225_15.07.02.139,-1.08300,0.02600,-0.07500,-185.34200,10.93800,-51.53700,-0.01800,0.08800,-0.60100,266.65000,0.06000
011225_15.07.02.150,-1.10400,-0.02100,-0.10300,-165.27000,-8.82000,-69.51000,-0.01600,0.10900,-0.62100,265.76000,-0.89000
011225_15.07.02.162,-1.06300,-0.10300,-0.16300,-164.78000,-10.65800,-85.27800,-0.00600,0.13700,-0.64300,266.14000,0.38000
011225_15.07.02.173,-1.07300,-0.07100,-0.22200,-172.69000,-5.39000,-96.96700,0.00900,0.16800,-0.66100,266.08000,-0.06000
011225_15.07.02.185,-1.07400,-0.10100,-0.25800,-179.28800,5.95000,-110.53000,0.02000,0.20700,-0.67100,266.39000,0.31000
011225_15.07.02.196,-1.08700,-0.20500,-0.22000,-178.22000,16.88800,-131.86300,0.02000,0.20700,-0.67100,267.13000,0.74000
011225_15.07.02.208,-1.16400,-0.31200,-0.22400,-171.44700,27.58000,-157.60500,0.02700,0.24100,-0.67800,266.85000,-0.28000
011225_15.07.02.219,-1.21000,-0.33100,-0.17700,-171.53500,43.10300,-185.72700,0.04200,0.28900,-0.68100,267.20000,0.35000
011225_15.07.02.231,-1.23000,-0.38200,-0.17400,-177.85200,61.00500,-216.80700,0.06100,0.34400,-0.68800,266.13000,-1.07000
011225_15.07.02.243,-1.36300,-0.41100,-0.15500,-171.09800,76.26500,-249.58500,0.06100,0.34400,-0.68800,266.38000,0.25000
011225_15.07.02.254,-1.36500,-0.42100,-0.06400,-144.62000,80.53500,-265.54500,0.07900,0.39400,-0.68300,266.78000,0.40000
011225_15.07.02.266,-1.03600,-0.35600,-0.15400,-101.65800,65.95700,-257.89700,0.08900,0.44300,-0.67800,266.50000,-0.28000
011225_15.07.02.277,-0.84200,-0.46000,-0.22100,-51.60800,47.47800,-221.23500,0.09400,0.47000,-0.66900,265.88000,-0.62000
011225_15.07.02.289,-0.80400,-0.62500,-0.25900,0.33300,20.30000,-131.33700,0.09200,0.48400,-0.66800,266.47000,0.59000
011225_15.07.02.300,-0.82400,-0.61700,-0.32900,5.39000,14.17500,-106.73200,0.09200,0.48400,-0.66800,266.46000,-0.01000
011225_15.07.02.312,-0.85700,-0.46500,-0.40600,30.22200,14.92700,-98.57700,0.09100,0.49600,-0.66900,266.27000,-0.19000
011225_15.07.02.323,-0.89100,-0.58300,-0.40900,55.79000,20.38800,-108.67500,0.09100,0.50300,-0.66900,266.12000,-0.15000
011225_15.07.02.335,-0.88600,-0.60500,-0.38800,59.39500,23.01300,-125.59800,0.09200,0.50800,-0.67200,266.40000,0.28000
011225_15.07.02.346,-0.87300,-0.51600,-0.34500,53.46300,24.90300,-129.53500,0.08800,0.51800,-0.67000,266.70000,0.30000
011225_15.07.02.358,-0.86500,-0.48600,-0.35800,40.60000,27.19500,-112.84000,0.08800,0.51800,-0.67000,266.44000,-0.26000
011225_15.07.02.369,-0.83000,-0.54300,-0.38500,21.49000,29.22500,-92.47000,0.09400,0.52600,-0.66500,266.01000,-0.43000
011225_15.07.02.381,-0.80100,-0.63200,-0.43600,0.75200,29.20800,-73.55200,0.09900,0.53900,-0.66700,266.76000,0.75000
011225_15.07.02.392,-0.78600,-0.65300,-0.45900,-25.97000,28.21000,-70.31500,0.10000,0.55400,-0.66200,266.26000,-0.50000
011225_15.07.02.404,-0.74300,-0.61200,-0.51000,-38.25500,29.96000,-71.29500,0.10200,0.57000,-0.65000,266.88000,0.62000
011225_15.07.02.415,-0.72300,-0.65300,-0.49900,-37.43200,32.56800,-68.25000,0.10200,0.57000,-0.65000,266.84000,-0.04000
011225_15.07.02.427,-0.70300,-0.66500,-0.47000,-40.25000,37.88800,-66.06300,0.10400,0.58400,-0.64700,266.77000,-0.07000
011225_15.07.02.438,-0.70600,-0.62400,-0.49000,-42.54200,45.99000,-63.47200,0.10700,0.60000,-0.63700,267.07000,0.30000
011225_15.07.02.450,-0.68400,-0.57000,-0.45300,-39.69000,49.40300,-59.01000,0.10800,0.61000,-0.62700,266.77000,-0.30000
011225_15.07.02.462,-0.50700,-0.88200,-0.59500,-37.66000,49.14000,-54.16200,0.10800,0.61000,-0.61100,266.91000,0.14000
011225_15.07.02.473,-0.26500,-1.09200,-0.40800,-29.73300,46.00700,-61.81000,0.10900,0.62500,-0.61100,266.88000,-0.03000
011225_15.07.02.485,-0.68300,-0.97700,-0.61600,-9.85200,43.96000,-102.46300,0.11000,0.64400,-0.60300,266.54000,-0.34000
011225_15.07.02.496,-0.56400,-0.96200,-0.59800,-8.26000,57.54000,-122.04500,0.09900,0.66300,-0.59500,266.08000,-0.46000
011225_15.07.02.508,-0.50300,-0.95400,-0.54500,-11.00700,64.99500,-126.38500,0.08700,0.68400,-0.58900,266.31000,0.23000
011225_15.07.02.519,-0.55600,-0.87600,-0.47100,-17.29000,69.80800,-133.38500,0.08700,0.68400,-0.58900,266.93000,0.62000
011225_15.07.02.531,-0.52100,-0.78100,-0.46400,-24.62200,69.31700,-136.74500,0.07800,0.70700,-0.57400,266.39000,-0.54000
011225_15.07.02.541,-0.47800,-0.75300,-0.49700,-31.97200,70.05200,-135.76500,0.06300,0.72800,-0.55500,266.81000,0.42000
011225_15.07.02.553,-0.40100,-0.68900,-0.52100,-36.48700,77.26200,-133.56000,0.04400,0.75100,-0.54600,266.84000,0.03000
011225_15.07.02.564,-0.38100,-0.64400,-0.52900,-38.08000,91.29800,-132.09000,0.03000,0.76900,-0.52600,267.10000,0.26000
011225_15.07.02.576,-0.40000,-0.58000,-0.54200,-37.20500,104.94800,-140.77000,0.03000,0.76900,-0.52600,266.65000,-0.45000
011225_15.07.02.588,-0.29500,-0.53500,-0.61400,-20.87800,132.59800,-143.11500,0.00700,0.79000,-0.50800,266.11000,-0.54000
011225_15.07.02.599,-0.06400,-0.55000,-0.71100,-8.12000,145.00500,-140.03500,-0.01600,0.81000,-0.49600,266.46000,0.35000
011225_15.07.02.611,0.01800,-0.60500,-0.67600,7.08800,158.95200,-133.17500,-0.03600,0.82400,-0.47600,267.00000,0.54000
011225_15.07.02.622,0.13700,-0.66300,-0.56100,19.42500,176.36500,-124.33800,-0.05800,0.83200,-0.46700,266.74000,-0.26000
011225_15.07.02.634,0.26200,-0.71900,-0.46100,26.40700,194.14500,-114.67700,-0.05800,0.83200,-0.46700,266.13000,-0.61000
011225_15.07.02.645,0.37200,-0.71300,-0.31600,32.51500,202.56200,-102.63700,-0.08200,0.84000,-0.46700,266.05000,-0.08000
011225_15.07.02.657,0.65600,-0.90900,-0.03300,41.12500,186.02500,-93.29300,-0.09200,0.84400,-0.46100,266.41000,0.36000
011225_15.07.02.668,0.77100,-1.10800,0.01000,37.92300,135.32700,-92.26000,-0.11100,0.84600,-0.46500,266.65000,0.24000
011225_15.07.02.680,0.27000,-0.69200,-0.21300,24.74500,91.45500,-88.30500,-0.11100,0.84800,-0.46400,266.72000,0.07000
011225_15.07.02.691,0.41900,-0.74900,-0.12100,23.97500,77.12200,-96.67000,-0.13100,0.84800,-0.46400,265.86000,-0.86000
011225_15.07.02.703,0.50000,-0.83100,-0.15800,19.89800,71.08500,-116.44500,-0.15100,0.85300,-0.46300,266.44000,0.58000
011225_15.07.02.715,0.39900,-0.67900,-0.24000,12.16300,74.35700,-140.38500,-0.17700,0.85900,-0.46700,266.35000,-0.09000
011225_15.07.02.726,0.38400,-0.51100,-0.37900,5.53000,104.45700,-152.47700,-0.20900,0.86000,-0.46600,266.57000,0.22000
011225_15.07.02.738,0.50700,-0.41300,-0.55200,14.66500,117.23200,-136.25500,-0.20900,0.86000,-0.46600,266.58000,0.01000
011225_15.07.02.749,0.60500,-0.41800,-0.47200,25.07700,127.92500,-119.45500,-0.23500,0.85600,-0.47600,266.12000,-0.46000
011225_15.07.02.761,0.59700,-0.41200,-0.42800,31.88500,138.26800,-106.80200,-0.24900,0.85200,-0.48300,267.43000,1.31000
011225_15.07.02.772,0.50200,-0.40400,-0.24100,41.12500,148.47000,-100.18800,-0.26400,0.84700,-0.48900,266.96000,-0.47000
011225_15.07.02.784,0.37000,-0.43100,-0.08500,50.69700,156.71200,-102.06000,-0.27300,0.83500,-0.50600,266.47000,-0.49000
011225_15.07.02.796,0.42800,-0.39900,0.02400,54.98500,159.26800,-113.20800,-0.27300,0.83500,-0.50600,266.51000,0.04000
011225_15.07.02.807,0.43500,-0.30500,0.27300,54.89700,157.72700,-126.40300,-0.28400,0.82700,-0.52400,267.17000,0.66000
011225_15.07.02.819,0.44200,-0.23400,0.31600,49.07000,156.38000,-138.07500,-0.29700,0.82200,-0.53700,266.96000,-0.21000
011225_15.07.02.830,0.46400,-0.10000,0.27900,45.29000,158.37500,-148.71500,-0.30700,0.81000,-0.55300,266.62000,-0.34000
011225_15.07.02.842,0.46700,-0.01300,0.20000,48.45800,166.32000,-154.64800,-0.32100,0.79500,-0.55700,267.17000,0.55000
011225_15.07.02.853,0.59000,0.01100,0.19400,55.77200,177.08300,-154.10500,-0.32100,0.79500,-0.55700,266.42000,-0.75000
011225_15.07.02.865,0.71600,0.07300,0.30300,63.17500,184.48500,-148.45200,-0.32800,0.78500,-0.57700,266.23000,-0.19000
011225_15.07.02.876,0.73300,0.03100,0.34000,80.15000,195.33500,-128.62500,-0.32700,0.76900,-0.59500,267.07000,0.84000
011225_15.07.02.888,0.47400,0.07300,0.36800,88.98800,203.98000,-125.96500,-0.31900,0.74900,-0.61600,266.76000,-0.31000
011225_15.07.02.899,0.57300,0.11700,0.66700,94.79800,211.82000,-123.06000,-0.31200,0.73100,-0.63700,266.92000,0.16000
011225_15.07.02.911,0.52700,0.20400,0.67200,94.90300,210.00000,-118.38700,-0.31200,0.73100,-0.63700,266.82000,-0.10000
011225_15.07.02.923,0.55000,0.31200,0.72300,95.48000,208.79200,-110.44200,-0.29900,0.70900,-0.65100,266.30000,-0.52000
011225_15.07.02.934,0.57300,0.38200,0.79100,96.53000,205.22300,-97.63200,-0.28000,0.69000,-0.66600,266.28000,-0.02000
011225_15.07.02.945,0.52500,0.39600,0.81200,100.74700,193.88300,-84.31500,-0.25800,0.66900,-0.68100,266.24000,-0.04000
011225_15.07.02.957,0.44400,0.45900,0.80600,103.75700,177.74700,-71.48800,-0.25800,0.66900,-0.68100,266.22000,-0.02000
011225_15.07.02.968,0.36100,0.50300,0.75900,104.65000,161.64800,-59.79800,-0.24000,0.65500,-0.68900,266.74000,0.52000
011225_15.07.02.980,0.25100,0.45100,0.73700,103.67000,150.22000,-52.20200,-0.21300,0.63500,-0.70100,266.49000,-0.25000
011225_15.07.02.991,0.26800,0.48300,0.69300,101.37800,140.52500,-51.80000,-0.19400,0.61800,-0.71200,266.54000,0.05000
011225_15.07.03.003,0.26200,0.46600,0.71300,102.79500,130.04200,-57.38200,-0.18100,0.60000,-0.71300,266.56000,0.02000
011225_15.07.03.014,0.17300,0.50600,0.64100,101.36000,121.81700,-67.20000,-0.18100,0.60000,-0.71300,266.67000,0.11000
011225_15.07.03.026,0.08800,0.58800,0.55300,121.10000,129.58700,-64.96000,-0.16400,0.58400,-0.72100,266.51000,-0.16000
011225_15.07.03.037,-0.13100,0.42700,0.48600,138.81000,149.92300,-67.41000,-0.15100,0.56600,-0.71700,266.51000,0.00000
011225_15.07.03.049,-0.13400,0.60800,0.78900,147.45500,165.16500,-77.54300,-0.12800,0.54400,-0.71900,266.86000,0.35000
011225_15.07.03.061,0.43200,0.83000,1.34000,164.22000,144.84800,-82.35500,-0.10200,0.51800,-0.72100,266.20000,-0.66000
011225_15.07.03.072,-0.00400,0.86400,0.57000,179.67300,95.83000,-84.14000,-0.10200,0.51800,-0.72100,266.62000,0.42000
011225_15.07.03.084,-0.08600,0.67800,0.67700,173.44300,101.23800,-75.93300,-0.09400,0.48800,-0.72200,266.43000,-0.19000
011225_15.07.03.095,-0.28900,0.63900,0.83700,163.29200,96.75700,-76.44000,-0.07600,0.46400,-0.71800,266.88000,0.45000
011225_15.07.03.107,-0.32300,0.80400,0.86300,137.63700,84.29800,-82.42500,-0.06000,0.44800,-0.71700,266.41000,-0.47000
011225_15.07.03.118,-0.31600,0.93000,0.72000,110.53000,69.66800,-85.33000,-0.04700,0.43800,-0.70800,266.48000,0.07000
011225_15.07.03.130,-0.29000,0.89200,0.61000,89.56500,54.39000,-86.27500,-0.04700,0.43800,-0.70800,266.27000,-0.21000
011225_15.07.03.141,-0.33900,0.88800,0.53200,73.90300,40.58300,-88.67300,-0.03800,0.43300,-0.70800,266.79000,0.52000
011225_15.07.03.153,-0.38900,0.89200,0.58000,62.33500,30.36200,-91.54300,-0.03700,0.43200,-0.70600,266.32000,-0.47000
011225_15.07.03.164,-0.44700,0.88300,0.63200,30.92300,10.60500,-92.40000,-0.03000,0.43200,-0.70600,266.37000,0.05000
011225_15.07.03.176,-0.59900,0.95300,0.45300,10.51700,12.37300,-97.05500,-0.03000,0.43200,-0.70400,265.66000,-0.71000
011225_15.07.03.187,-0.72200,1.01200,0.38400,-3.27300,30.43300,-95.41000,-0.03300,0.43500,-0.70400,265.94000,0.28000
011225_15.07.03.199,-0.59000,1.02200,0.37300,-12.18000,46.28700,-89.12800,-0.03000,0.44700,-0.69700,266.86000,0.92000
011225_15.07.03.210,-0.69900,1.11300,0.21200,-13.21200,51.39700,-84.10500,-0.02200,0.45900,-0.70500,266.22000,-0.64000
011225_15.07.03.222,-0.65700,1.24500,0.18200,-6.24700,60.98700,-67.81300,-0.01400,0.46900,-0.68900,267.06000,0.84000
011225_15.07.03.233,-0.72400,1.11600,0.16200,1.08500,74.56700,-46.07700,-0.01400,0.46900,-0.68900,266.19000,-0.87000
011225_15.07.03.244,-0.66200,0.98700,0.14900,3.57000,88.51500,-30.10000,0.00100,0.46900,-0.68800,266.76000,0.57000
011225_15.07.03.256,-0.52600,0.93200,0.17000,9.85200,97.77200,-21.61200,0.01500,0.46900,-0.67200,266.34000,-0.42000
011225_15.07.03.267,-0.39400,0.91400,0.24000,14.77000,96.28500,-14.35000,0.02400,0.46800,-0.66700,266.62000,0.28000
011225_15.07.03.279,-0.46100,0.78500,0.23000,24.32500,79.17000,-9.17000,0.03700,0.46600,-0.66000,266.89000,0.27000
011225_15.07.03.290,-0.47700,0.70800,0.26900,33.81000,69.63200,-12.05700,0.03700,0.46600,-0.66000,266.17000,-0.72000
011225_15.07.03.302,-0.52200,0.68500,0.30100,38.79800,64.90800,-19.79200,0.04600,0.46100,-0.65800,266.39000,0.22000
011225_15.07.03.313,-0.64800,0.66500,0.31600,38.85000,62.02000,-30.97500,0.05300,0.45700,-0.64800,266.95000,0.56000
011225_15.07.03.325,-0.75300,0.73600,0.26000,35.31500,67.53300,-35.75200,0.05800,0.45800,-0.63900,266.75000,-0.20000
011225_15.07.03.336,-0.63700,0.70000,0.29100,32.65500,68.12800,-39.04200,0.06700,0.45900,-0.63100,266.37000,-0.38000
011225_15.07.03.347,-0.50700,0.73900,0.56300,33.25000,55.12500,-42.73500,0.06700,0.45900,-0.63100,266.86000,0.49000
011225_15.07.03.359,-0.65700,0.63900,0.46100,50.96000,18.37500,-52.93800,0.07100,0.46200,-0.63200,266.77000,-0.09000
011225_15.07.03.370,-0.71800,0.55700,0.18500,49.10500,8.08500,-74.09500,0.06500,0.46300,-0.63200,265.84000,-0.93000
011225_15.07.03.382,-0.62400,0.79300,0.23100,23.99300,12.00500,-78.92500,0.06700,0.47400,-0.62800,266.53000,0.69000
011225_15.07.03.393,-0.82800,0.73700,0.15800,15.66300,2.53700,-66.37800,0.06700,0.48100,-0.63200,266.30000,-0.23000
011225_15.07.03.405,-0.91500,0.74900,0.19400,11.51500,2.25700,-57.90800,0.06600,0.48100,-0.63200,266.63000,0.33000
011225_15.07.03.416,-0.92700,0.78200,0.17000,9.60800,2.81800,-50.66200,0.06000,0.49100,-0.62800,266.62000,-0.01000
011225_15.07.03.428,-0.93100,0.80700,0.11800,9.62500,4.20000,-41.56300,0.06100,0.48200,-0.62800,266.72000,0.10000
011225_15.07.03.439,-0.94200,0.78100,0.09100,9.48500,9.32800,-30.22200,0.06300,0.48800,-0.62800,266.86000,0.14000
011225_15.07.03.450,-0.95200,0.71600,-0.00900,9.11800,18.93500,-14.14000,0.06300,0.48800,-0.62800,265.95000,-0.91000
011225_15.07.03.462,-0.89000,0.68800,-0.02300,7.47200,34.56300,-10.43000,0.06400,0.49200,-0.62800,266.94000,0.99000
011225_15.07.03.473,-0.77100,0.57500,-0.06100,3.34200,31.67500,-8.62700,0.06600,0.48800,-0.62300,266.34000,-0.60000
011225_15.07.03.485,-0.67300,0.56600,-0.09600,-3.81500,19.98500,-8.24300,0.07300,0.48700,-0.61700,266.28000,-0.06000
011225_15.07.03.496,-0.61200,0.58800,-0.07300,-10.02800,8.75000,-5.68700,0.07200,0.49000,-0.61600,266.15000,-0.13000
011225_15.07.03.508,-0.63400,0.60500,-0.00100,-15.05000,4.44500,0.78800,0.07200,0.49000,-0.61600,266.58000,0.43000
011225_15.07.03.519,-0.63400,0.62500,-0.01900,-20.49300,4.16500,9.43200,0.07100,0.49300,-0.61800,266.44000,-0.14000
011225_15.07.03.531,-0.72800,0.54000,-0.05200,-21.00000,8.64500,14.77000,0.07100,0.49300,-0.61300,266.37000,-0.07000
011225_15.07.03.542,-0.77200,0.56400,0.02400,-14.01700,16.50300,10.11500,0.07500,0.49500,-0.60800,266.57000,0.20000
011225_15.07.03.553,-0.72700,0.66700,0.10500,-4.42800,22.54000,4.04300,0.07800,0.49000,-0.61300,266.21000,-0.36000
011225_15.07.03.565,-0.72100,0.69800,0.12400,3.74500,26.98500,0.33300,0.07800,0.49000,-0.61300,266.53000,0.32000
011225_15.07.03.576,-0.70600,0.72200,0.08000,11.76000,23.34500,-7.35000,0.08100,0.49200,-0.60400,267.22000,0.69000
011225_15.07.03.588,-0.74100,0.69400,0.05000,13.80700,16.13500,-15.27800,0.08400,0.49600,-0.60500,266.79000,-0.43000
011225_15.07.03.599,-0.81600,0.67000,-0.03500,6.33500,-0.28000,-35.94500,0.08300,0.50100,-0.60000,266.50000,-0.29000
011225_15.07.03.611,-0.84900,0.65800,-0.09200,1.22500,2.38000,-48.00200,0.07700,0.50500,-0.61000,266.71000,0.21000
011225_15.07.03.622,-0.98100,0.65500,-0.08100,-0.56000,2.03000,-62.49300,0.07700,0.50500,-0.61000,266.51000,-0.20000
011225_15.07.03.634,-0.32800,0.57000,0.14800,-3.86800,2.53700,-73.13200,0.07600,0.51100,-0.61000,265.92000,-0.59000
011225_15.07.03.645,-0.44400,0.87600,0.08800,24.27300,14.59500,-114.94000,0.07600,0.53100,-0.60600,266.82000,0.90000
011225_15.07.03.657,-0.62500,0.62700,-0.08600,36.80300,40.23300,-114.01200,0.06700,0.53700,-0.60300,266.10000,-0.72000
011225_15.07.03.668,-0.62500,0.52100,0.07100,29.15500,33.58300,-91.89300,0.06700,0.53700,-0.60300,266.51000,0.41000
011225_15.07.03.680,-0.69400,0.52400,0.13500,30.04800,24.72800,-76.68500,0.06500,0.54500,-0.60400,266.46000,-0.05000
011225_15.07.03.691,-0.80300,0.48200,0.18400,34.91200,15.22500,-70.63000,0.05900,0.55000,-0.60500,266.48000,0.02000
011225_15.07.03.703,-0.88200,0.42400,0.12600,30.85300,10.65800,-65.57300,0.05800,0.55800,-0.60300,265.95000,-0.53000
011225_15.07.03.714,-0.88300,0.38300,0.02700,19.79200,11.84700,-55.66700,0.06200,0.55500,-0.61000,266.43000,0.48000
011225_15.07.03.725,-0.87600,0.40400,-0.02400,7.40300,17.16700,-38.95500,0.06200,0.55500,-0.61000,266.34000,-0.09000
011225_15.07.03.737,-0.92700,0.48700,0.04800,0.84000,18.28800,-18.41000,0.06900,0.55100,-0.60600,266.28000,-0.06000
011225_15.07.03.748,-0.88000,0.56900,0.02000,-3.09800,14.10500,-1.99500,0.06900,0.55500,-0.60200,267.41000,1.13000
011225_15.07.03.760,-0.90600,0.65400,-0.09700,-5.26700,14.85800,1.13800,0.06900,0.55100,-0.59800,266.85000,-0.56000
011225_15.07.03.771,-0.90700,0.56000,-0.11700,-16.64200,17.25500,4.88300,0.07300,0.55600,-0.58900,266.89000,0.04000
011225_15.07.03.783,-0.88500,0.56900,-0.11000,-16.27500,13.77300,6.68500,0.07300,0.55600,-0.58900,265.75000,-1.14000
011225_15.07.03.794,-0.88400,0.61800,-0.11500,-13.94800,8.29500,6.82500,0.07500,0.55900,-0.59300,266.35000,0.60000
011225_15.07.03.806,-0.85700,0.58200,-0.13300,-11.67200,1.96000,5.00500,0.07300,0.55800,-0.58600,266.43000,0.08000
011225_15.07.03.817,-0.81000,0.53400,-0.11700,-9.99300,-4.42800,2.90500,0.07400,0.56300,-0.58800,266.04000,-0.39000
011225_15.07.03.829,-0.81100,0.55100,-0.06500,-9.11800,-11.84700,2.94000,0.07200,0.56400,-0.58400,266.55000,0.51000
011225_15.07.03.840,-0.82400,0.53200,-0.04600,-10.15000,-18.69000,6.56200,0.07200,0.56400,-0.58400,266.74000,0.19000
011225_15.07.03.852,-0.86000,0.50500,-0.07700,-14.82300,-22.61000,12.54700,0.07000,0.56200,-0.58900,266.22000,-0.52000
011225_15.07.03.863,-0.89100,0.49200,-0.07500,-21.99700,-23.22200,18.30500,0.07000,0.56100,-0.58800,266.61000,0.39000
011225_15.07.03.875,-0.90600,0.49800,-0.04600,-27.23000,-23.74700,23.38000,0.07000,0.55900,-0.59300,266.71000,0.10000
011225_15.07.03.886,-0.92700,0.48300,-0.00700,-32.21700,-24.64000,31.02800,0.07000,0.55900,-0.58900,266.62000,-0.09000
011225_15.07.03.898,-0.92900,0.53000,-0.00100,-46.67300,-24.11500,33.65300,0.07000,0.55800,-0.58900,266.61000,-0.01000
011225_15.07.03.909,-0.78900,0.52200,-0.02100,-59.62300,-18.13000,38.69300,0.07000,0.55900,-0.59000,266.27000,-0.34000
011225_15.07.03.920,-0.70700,0.51400,0.03900,-75.40800,-9.64200,44.39700,0.07100,0.56300,-0.58300,266.59000,0.32000
011225_15.07.03.932,-0.65100,0.57600,0.11300,-92.24300,-1.59200,49.80500,0.07800,0.56000,-0.57600,266.72000,0.13000
011225_15.07.03.943,-0.62700,0.58000,0.16900,-105.59500,1.10200,54.11000,0.07800,0.56000,-0.57600,267.17000,0.45000
011225_15.07.03.955,-0.66400,0.57800,0.17300,-115.43000,-0.71800,52.50000,0.08000,0.56900,-0.56900,266.42000,-0.75000
011225_15.07.03.966,-0.63200,0.59500,0.26900,-119.56000,-3.32500,44.43200,0.08300,0.57400,-0.55600,266.29000,-0.13000
011225_15.07.03.978,-0.62700,0.54200,0.37900,-122.16800,-6.24700,35.43800,0.08600,0.57900,-0.54100,266.87000,0.58000
011225_15.07.03.989,-0.69600,0.50700,0.35900,-132.05500,-6.09000,26.58300,0.08800,0.58400,-0.53200,266.41000,-0.46000
011225_15.07.04.001,-0.76100,0.52700,0.35900,-142.32700,-3.72700,15.76700,0.08800,0.58400,-0.53200,266.10000,-0.31000
011225_15.07.04.012,-0.84400,0.63400,0.23100,-153.31800,3.09800,2.18800,0.09200,0.59800,-0.51900,266.20000,0.10000
011225_15.07.04.023,-0.93100,0.61400,0.27500,-139.98200,-8.94300,-14.17500,0.08700,0.61100,-0.51300,266.49000,0.29000
011225_15.07.04.035,-1.01300,0.55600,0.32300,-138.25000,6.96500,-32.18200,0.08200,0.62400,-0.48800,267.13000,0.64000
011225_15.07.04.046,-1.06800,0.58800,0.53500,-160.54500,13.30000,-40.35500,0.07800,0.63400,-0.47300,266.66000,-0.47000
011225_15.07.04.058,-0.83600,0.75400,0.44400,-150.83300,-1.90800,-46.97000,0.07800,0.63400,-0.47300,266.54000,-0.12000
011225_15.07.04.070,-0.81600,0.78900,0.40300,-118.72000,-25.83000,-45.53500,0.07000,0.64700,-0.46500,266.89000,0.35000
011225_15.07.04.081,-0.87200,0.72600,0.39600,-95.39300,-35.15800,-37.76500,0.06400,0.65700,-0.45600,266.60000,-0.29000
011225_15.07.04.093,-0.80500,0.70800,0.53000,-84.45500,-33.70500,-30.10000,0.05800,0.66000,-0.45600,266.10000,-0.50000
011225_15.07.04.104,-0.73900,0.57600,0.59600,-78.55800,-34.42300,-23.25700,0.05800,0.66000,-0.44700,266.35000,0.25000
011225_15.07.04.116,-0.79100,0.50800,0.58900,-79.20500,-33.63500,-20.51000,0.05500,0.67000,-0.44700,267.12000,0.77000
011225_15.07.04.127,-0.94400,0.40200,0.56600,-80.04500,-30.31000,-22.27800,0.04700,0.67300,-0.43800,266.79000,-0.33000
011225_15.07.04.139,-1.04200,0.43900,0.47900,-76.51000,-27.86000,-32.42800,0.04500,0.67900,-0.43200,266.25000,-0.54000
011225_15.07.04.150,-1.10000,0.51500,0.35000,-64.41800,-22.71500,-45.23700,0.03300,0.68800,-0.42900,266.68000,0.43000
011225_15.07.04.162,-0.99500,0.59800,0.32000,-46.70800,-11.37500,-58.04800,0.03300,0.68800,-0.42900,266.44000,-0.24000
011225_15.07.04.173,-1.04300,0.73300,0.00700,-26.49500,-7.89200,-70.54300,0.02700,0.69900,-0.42400,266.68000,0.24000
011225_15.07.04.185,-1.04500,0.59800,-0.52600,-5.58200,70.59500,-57.89000,0.01500,0.70800,-0.42100,266.57000,-0.11000
011225_15.07.04.196,-0.72500,0.07800,0.73000,13.80700,62.10800,-53.21700,0.00800,0.70800,-0.41700,266.49000,-0.08000
011225_15.07.04.208,-0.74100,-0.17500,1.40600,7.92800,38.95500,-67.93500,-0.00800,0.71800,-0.41300,267.35000,0.86000
011225_15.07.04.219,-0.83100,-0.02100,0.44200,-18.83000,-1.57500,-91.91000,-0.00800,0.71800,-0.41300,265.46000,-1.89000
011225_15.07.04.231,-0.80200,-0.10200,0.42800,-18.18300,-8.52300,-97.16000,-0.01500,0.72700,-0.40900,266.16000,0.70000
011225_15.07.04.242,-0.64400,-0.22100,0.82400,-22.27800,-18.37500,-97.24700,-0.03100,0.74300,-0.41200,266.32000,0.16000
011225_15.07.04.254,-0.84900,0.03100,0.66500,-45.76300,-45.90300,-108.76200,-0.05300,0.75300,-0.40500,266.45000,0.13000
011225_15.07.04.265,-1.08700,0.17200,0.38800,-52.46500,-61.35500,-85.52200,-0.06300,0.75400,-0.39800,265.87000,-0.58000
011225_15.07.04.277,-1.07000,0.07400,0.37600,-47.56500,-51.83500,-56.42000,-0.06300,0.75400,-0.39800,266.11000,0.24000
011225_15.07.04.288,-0.91100,0.01200,0.39400,-39.91700,-41.52800,-47.75700,-0.07200,0.76300,-0.39300,266.89000,0.78000
011225_15.07.04.300,-0.87400,0.04000,0.40900,-31.20200,-33.61800,-45.86800,-0.07800,0.76700,-0.39500,266.32000,-0.57000
011225_15.07.04.311,-0.83400,0.06800,0.43800,-22.40000,-27.94800,-44.10000,-0.08600,0.77300,-0.39600,265.86000,-0.46000
011225_15.07.04.323,-0.79500,0.05900,0.50100,-14.26200,-22.66300,-37.74800,-0.08600,0.77500,-0.39400,266.80000,0.94000
011225_15.07.04.334,-0.81600,0.00800,0.58300,-9.73000,-20.84300,-37.97500,-0.09400,0.77500,-0.39400,266.44000,-0.36000
011225_15.07.04.346,-0.91700,-0.12300,0.79900,-11.88200,-23.29200,-40.47800,-0.10200,0.77500,-0.39000,266.25000,-0.19000
011225_15.07.04.357,-0.97400,-0.15800,0.82300,-12.93200,-27.93000,-46.67300,-0.10900,0.77700,-0.38600,266.87000,0.62000
011225_15.07.04.369,-0.98400,-0.07900,0.89200,-15.69800,-33.56500,-56.61200,-0.11600,0.77800,-0.39500,266.21000,-0.66000
011225_15.07.04.381,-1.02500,-0.03500,0.74500,-11.60200,-40.39000,-67.53300,-0.11600,0.77800,-0.39500,266.78000,0.57000
011225_15.07.04.392,-0.85300,-0.02400,0.78500,-7.42000,-38.95500,-88.25300,-0.13300,0.78200,-0.38900,266.60000,-0.18000
011225_15.07.04.404,-1.02500,-0.13000,0.64900,-9.97500,-46.62000,-112.61300,-0.14700,0.78400,-0.38800,265.92000,-0.68000
011225_15.07.04.415,-0.85900,-0.26900,0.56700,-25.27000,-46.06000,-125.31700,-0.17100,0.78900,-0.38700,266.11000,0.19000
011225_15.07.04.427,-0.77600,-0.38800,0.54800,-46.11200,-41.77200,-124.79300,-0.19200,0.79400,-0.37600,267.11000,1.00000
011225_15.07.04.438,-0.64500,-0.43200,0.65000,-60.28700,-39.48000,-120.40000,-0.19200,0.79400,-0.37600,266.55000,-0.56000
011225_15.07.04.450,-0.57500,-0.42800,0.72500,-57.36500,-43.87300,-117.26800,-0.21200,0.79300,-0.37700,265.87000,-0.68000
011225_15.07.04.461,-0.66400,-0.44500,0.78800,-40.51300,-54.21500,-117.49500,-0.23500,0.79900,-0.37300,266.41000,0.54000
011225_15.07.04.473,-0.73600,-0.51100,0.81500,-19.28500,-67.77800,-107.88700,-0.25300,0.79700,-0.36100,266.69000,0.28000
011225_15.07.04.484,-0.72500,-0.58400,0.72600,-10.99000,-67.98800,-101.20200,-0.27000,0.79300,-0.36100,266.92000,0.23000
011225_15.07.04.496,-0.75200,-0.69200,0.71800,-20.75500,-64.64500,-98.26200,-0.27000,0.79300,-0.36100,266.37000,-0.55000
011225_15.07.04.507,-0.65600,-0.66800,0.63900,-29.05000,-59.32500,-98.87500,-0.28800,0.79400,-0.35400,266.71000,0.34000
011225_15.07.04.519,-0.53600,-0.67100,0.64600,-32.07700,-57.97800,-102.14700,-0.30700,0.78900,-0.35400,267.41000,0.70000
011225_15.07.04.530,-0.44200,-0.69900,0.75700,-35.66500,-60.93500,-106.87200,-0.32100,0.78700,-0.34200,266.83000,-0.58000
011225_15.07.04.542,-0.57900,-0.48100,0.98200,-37.48500,-68.51200,-108.29000,-0.33800,0.78000,-0.34000,266.13000,-0.70000
011225_15.07.04.554,-0.64500,-0.85000,0.87500,-30.38000,-73.23800,-104.23000,-0.33800,0.78000,-0.34000,266.46000,0.33000
011225_15.07.04.565,-0.50800,-0.77600,0.86000,-45.64000,-73.29000,-113.43500,-0.35600,0.77400,-0.33200,266.12000,-0.34000
011225_15.07.04.577,-0.42800,-0.76400,0.86400,-57.69800,-76.33500,-123.04300,-0.37800,0.76500,-0.31600,265.76000,-0.36000
011225_15.07.04.588,-0.39800,-0.74100,0.76500,-55.52800,-81.65500,-131.09200,-0.39600,0.75300,-0.30200,266.98000,1.22000
011225_15.07.04.600,-0.35600,-0.75000,0.74200,-49.56000,-82.61800,-131.91500,-0.39600,0.75300,-0.30200,267.05000,0.07000
011225_15.07.04.611,-0.29100,-0.75600,0.74900,-45.81500,-81.16500,-129.60500,-0.41600,0.74600,-0.29300,266.15000,-0.90000
011225_15.07.04.623,-0.20600,-0.75600,0.73900,-47.39000,-87.13200,-130.90000,-0.43000,0.73200,-0.28200,266.43000,0.28000
011225_15.07.04.635,-0.09200,-0.69100,0.77500,-56.66500,-94.36000,-139.75500,-0.44700,0.71500,-0.26100,266.76000,0.33000
011225_15.07.04.646,-0.06300,-0.67200,0.73700,-64.45200,-104.37000,-148.47000,-0.46300,0.69600,-0.24600,267.03000,0.27000
011225_15.07.04.658,-0.07200,-0.68200,0.69900,-67.13000,-111.79000,-152.42500,-0.46300,0.69600,-0.24600,266.41000,-0.62000
011225_15.07.04.669,-0.03500,-0.68200,0.66200,-64.27800,-113.43500,-148.71500,-0.47600,0.67500,-0.22600,266.03000,-0.38000
011225_15.07.04.681,0.00600,-0.65100,0.62400,-56.36800,-113.90800,-139.54500,-0.48400,0.65700,-0.20900,266.54000,0.51000
011225_15.07.04.692,0.02500,-0.59500,0.62800,-45.25500,-115.06300,-128.55500,-0.49300,0.64000,-0.19300,266.55000,0.01000
011225_15.07.04.704,0.02300,-0.58200,0.66200,-33.30300,-115.83300,-119.14000,-0.49000,0.62400,-0.18500,265.99000,-0.56000
011225_15.07.04.716,0.04600,-0.60200,0.65400,-23.81700,-117.58300,-112.56000,-0.49000,0.62400,-0.18500,266.52000,0.53000
011225_15.07.04.727,0.08900,-0.61400,0.57600,-19.40700,-120.90800,-107.27500,-0.49200,0.60900,-0.16400,266.57000,0.05000
011225_15.07.04.739,0.18200,-0.62500,0.47000,-19.05800,-124.23200,-102.58500,-0.49100,0.59500,-0.15300,266.60000,0.03000
011225_15.07.04.750,0.23500,-0.59300,0.38400,-21.03500,-129.11500,-101.25500,-0.48900,0.58000,-0.13200,266.91000,0.31000
011225_15.07.04.762,0.29400,-0.58000,0.36300,-23.34500,-137.06000,-108.95500,-0.48000,0.56400,-0.11900,266.31000,-0.60000
011225_15.07.04.774,0.32600,-0.56600,0.32900,-27.56200,-156.50300,-111.82500,-0.48000,0.56400,-0.11900,266.16000,-0.15000
011225_15.07.04.785,0.34500,-0.66900,0.34700,-29.62800,-162.82000,-113.01500,-0.47200,0.55100,-0.10000,267.25000,1.09000
011225_15.07.04.797,0.36800,-0.57500,0.28000,-32.65500,-167.30000,-113.13700,-0.45800,0.53500,-0.08000,267.23000,-0.02000
011225_15.07.04.808,0.31300,-0.53600,0.22200,-33.49500,-171.79800,-112.85700,-0.44500,0.51500,-0.07600,266.36000,-0.87000
011225_15.07.04.820,0.24200,-0.49100,0.17900,-35.15800,-174.72000,-113.61000,-0.44500,0.51500,-0.05100,267.45000,1.09000
011225_15.07.04.831,0.25500,-0.42800,0.15400,-37.41500,-175.31500,-113.27800,-0.42400,0.49700,-0.05100,265.99000,-1.46000
011225_15.07.04.843,0.33100,-0.34400,0.09500,-39.77800,-177.38000,-111.00300,-0.40400,0.48400,-0.04200,266.57000,0.58000
011225_15.07.04.854,0.41600,-0.32000,0.02500,-43.01500,-182.45500,-107.92300,-0.37900,0.47000,-0.02400,267.06000,0.49000
011225_15.07.04.866,0.59100,-0.21300,-0.04100,-43.90800,-189.52500,-105.63000,-0.35100,0.45400,-0.01100,266.76000,-0.30000
011225_15.07.04.878,0.66500,-0.19300,-0.18600,-28.66500,-198.31000,-101.04500,-0.35100,0.45400,-0.01100,266.78000,0.02000
011225_15.07.04.889,0.64700,-0.26100,-0.28300,-8.45300,-199.79800,-93.60700,-0.32000,0.44700,-0.00300,267.26000,0.48000
011225_15.07.04.901,0.68900,-0.33800,-0.34200,3.83200,-193.81200,-85.38200,-0.29100,0.44400,0.00000,266.77000,-0.49000
011225_15.07.04.912,0.68000,-0.39700,-0.39000,3.95500,-179.18200,-68.77500,-0.25100,0.44000,0.00100,267.13000,0.36000
011225_15.07.04.924,0.65600,-0.41300,-0.32800,-12.68800,-170.29200,-61.82700,-0.22600,0.43800,0.00400,266.48000,-0.65000
011225_15.07.04.935,0.57300,-0.33200,-0.34900,-14.99800,-165.35700,-60.18200,-0.22600,0.43800,0.00400,266.80000,0.32000
011225_15.07.04.947,0.55200,-0.30000,-0.38400,-12.72200,-160.59800,-59.25500,-0.19900,0.43100,0.00900,266.57000,-0.23000
011225_15.07.04.958,0.55300,-0.30600,-0.40700,-11.67200,-155.29500,-55.49300,-0.17000,0.43000,-0.00100,266.63000,0.06000
011225_15.07.04.970,0.53000,-0.27900,-0.45300,-14.80500,-149.81800,-50.34700,-0.14400,0.42700,-0.00400,266.17000,-0.46000
011225_15.07.04.982,0.52700,-0.20100,-0.51000,-18.02500,-141.61000,-44.25700,-0.12000,0.42700,-0.00500,266.58000,0.41000
011225_15.07.04.993,0.52000,-0.15400,-0.58000,-18.58500,-134.43500,-38.58800,-0.12000,0.42700,-0.00500,267.04000,0.46000
011225_15.07.05.005,0.52200,-0.11900,-0.61900,-20.59700,-131.82700,-36.17300,-0.09800,0.42000,-0.01200,266.13000,-0.91000
011225_15.07.05.016,0.50800,-0.13900,-0.66100,-22.66300,-134.20800,-36.99500,-0.07800,0.41400,-0.02100,266.83000,0.70000
011225_15.07.05.028,0.50100,-0.21300,-0.70400,-22.99500,-137.69000,-39.84700,-0.05200,0.41700,-0.03800,266.75000,-0.08000
011225_15.07.05.039,0.46000,-0.29900,-0.72800,-20.58000,-139.02000,-43.33000,-0.05200,0.41400,-0.04500,266.66000,-0.09000
011225_15.07.05.051,0.39300,-0.34600,-0.74000,-18.23500,-133.89300,-44.85300,-0.03400,0.41400,-0.04500,266.75000,0.09000
011225_15.07.05.062,0.33600,-0.35000,-0.74900,-9.87000,-108.60500,-40.00500,-0.01400,0.41700,-0.05800,267.49000,0.74000
011225_15.07.05.074,0.34200,-0.17700,-0.82900,-3.93800,-96.14500,-36.76800,0.00600,0.41900,-0.06600,266.61000,-0.88000
011225_15.07.05.085,0.31200,-0.12300,-0.83400,-0.50700,-89.46000,-33.74000,0.02000,0.42000,-0.06900,265.95000,-0.66000
011225_15.07.05.097,0.24900,-0.10300,-0.85200,2.25700,-85.96000,-31.18500,0.02000,0.42000,-0.06900,266.06000,0.11000
011225_15.07.05.108,0.18900,-0.11000,-0.87400,4.91800,-82.89700,-28.19300,0.03100,0.42200,-0.08000,266.10000,0.04000
011225_15.07.05.120,0.14700,-0.11600,-0.90000,6.98300,-79.31000,-24.50000,0.04500,0.42300,-0.08800,266.97000,0.87000
011225_15.07.05.131,0.13800,-0.11700,-0.91000,10.71000,-73.02800,-19.49500,0.05600,0.42600,-0.09000,266.92000,-0.05000
011225_15.07.05.143,0.13300,-0.12100,-0.93500,15.78500,-64.22500,-13.40500,0.06100,0.42600,-0.09500,267.22000,0.30000
011225_15.07.05.154,0.30900,-0.05000,-1.18800,18.76000,-57.96000,-7.87500,0.06100,0.42600,-0.09500,266.69000,-0.53000
011225_15.07.05.166,0.15000,0.41200,-1.45900,-8.99500,-120.26000,-31.48300,0.07600,0.43800,-0.11700,267.07000,0.38000
011225_15.07.05.177,0.13700,0.03400,-1.21200,-40.28500,-143.57000,-63.12300,0.09500,0.43200,-0.13600,265.68000,-1.39000
011225_15.07.05.189,0.02200,0.09100,-1.44900,-21.96200,-122.16800,-55.82500,0.10800,0.44000,-0.15100,267.12000,1.44000
011225_15.07.05.200,0.19300,-0.00300,-1.30600,-45.79800,-113.50500,-25.97000,0.12100,0.43400,-0.17800,266.38000,-0.74000
011225_15.07.05.212,0.05700,-0.04400,-1.30200,-60.98700,-108.27200,-27.80800,0.12100,0.43400,-0.17800,266.62000,0.24000
011225_15.07.05.223,0.07600,0.01300,-1.15900,-53.14700,-99.54000,-22.20800,0.12900,0.42800,-0.18000,266.17000,-0.45000
011225_15.07.05.235,0.00200,-0.04700,-1.11400,-50.45200,-98.98000,-15.22500,0.13600,0.42700,-0.19300,266.88000,0.71000
011225_15.07.05.246,-0.06800,0.05300,-1.10900,-44.45000,-110.49500,-15.01500,0.14400,0.42800,-0.21700,266.60000,-0.28000
011225_15.07.05.258,-0.09600,0.07700,-1.10500,-31.37800,-128.90500,-19.91500,0.15800,0.42500,-0.24200,266.93000,0.33000
011225_15.07.05.269,-0.04100,-0.00600,-1.15200,-15.80200,-140.52500,-21.33300,0.15800,0.42500,-0.24200,265.96000,-0.97000
011225_15.07.05.281,-0.05000,-0.03900,-1.16700,-1.27800,-145.82700,-15.27800,0.16900,0.42800,-0.25500,266.91000,0.95000
011225_15.07.05.293,-0.12000,-0.08200,-1.06700,8.82000,-146.93000,-6.51000,0.17800,0.43300,-0.28400,266.33000,-0.58000
011225_15.07.05.304,-0.28100,-0.15000,-0.97100,14.29700,-143.99000,1.13800,0.18100,0.42700,-0.31000,266.41000,0.08000
011225_15.07.05.316,-0.35200,-0.16800,-0.88400,20.47500,-129.69300,5.89800,0.18100,0.42700,-0.31000,266.56000,0.15000
011225_15.07.05.327,-0.47800,-0.09500,-0.91900,26.18000,-113.99500,7.73500,0.18400,0.42900,-0.32500,266.10000,-0.46000
011225_15.07.05.339,-0.70700,0.04900,-0.96000,35.98000,-97.77200,2.41500,0.19300,0.43300,-0.33800,266.56000,0.46000
011225_15.07.05.350,-0.61600,-0.01300,-0.55700,33.74000,-40.42500,-19.86200,0.19200,0.43200,-0.35100,266.42000,-0.14000
011225_15.07.05.362,-0.49300,0.14800,-0.77000,-27.21200,-9.06500,-23.25700,0.18800,0.43500,-0.34800,267.08000,0.66000
011225_15.07.05.373,-0.44400,0.03000,-0.81400,-23.11800,2.73000,-23.94000,0.18800,0.43500,-0.34800,266.76000,-0.32000
011225_15.07.05.385,-0.28700,0.05800,-0.75200,-14.08700,0.94500,-23.48500,0.18700,0.44100,-0.34900,266.21000,-0.55000
011225_15.07.05.396,-0.34800,0.01300,-0.78500,-11.84700,-4.20000,-17.67500,0.18900,0.44200,-0.34900,266.62000,0.41000
011225_15.07.05.408,-0.33200,0.02100,-0.79400,-14.38500,-7.31500,-16.53800,0.19200,0.44700,-0.35600,266.74000,0.12000
011225_15.07.05.419,-0.37000,0.01600,-0.76600,-21.08700,-10.69300,-15.55700,0.19100,0.44900,-0.35700,266.58000,-0.16000
011225_15.07.05.431,-0.44100,-0.02300,-0.71100,-26.98500,-16.76500,-16.67700,0.19100,0.44900,-0.35700,266.85000,0.27000
011225_15.07.05.442,-0.45500,-0.08400,-0.65600,-26.86200,-26.39000,-20.59700,0.18800,0.45100,-0.35600,266.86000,0.01000
011225_15.07.05.454,-0.45800,-0.13700,-0.58000,-25.95200,-39.25200,-25.46200,0.18600,0.45400,-0.36600,266.67000,-0.19000
011225_15.07.05.465,-0.38700,-0.25700,-0.48900,-31.81500,-53.90000,-30.59000,0.18700,0.45800,-0.37600,266.59000,-0.08000
011225_15.07.05.477,-0.32400,-0.35400,-0.46200,-45.65800,-71.47000,-37.15300,0.18500,0.46500,-0.38800,267.01000,0.42000
011225_15.07.05.489,-0.28300,-0.41000,-0.54000,-65.04800,-88.93500,-44.13500,0.18500,0.46500,-0.38800,266.77000,-0.24000
011225_15.07.05.500,-0.46600,-0.20900,-0.78900,-81.90000,-97.14300,-51.87000,0.18100,0.47900,-0.40600,266.21000,-0.56000
011225_15.07.05.511,-0.84500,0.39600,-1.20100,-50.85500,-85.22500,-45.53500,0.17800,0.49200,-0.41900,266.83000,0.62000
011225_15.07.05.523,-0.78600,0.13100,-1.06900,-13.87800,-82.37200,-37.48500,0.17400,0.50200,-0.43300,266.77000,-0.06000
011225_15.07.05.534,-0.63500,0.11300,-0.94500,-0.78800,-86.83500,-30.57300,0.17400,0.50200,-0.45300,266.89000,0.12000
011225_15.07.05.546,-0.69200,0.11800,-0.95900,-2.25700,-93.88700,-20.68500,0.16700,0.50500,-0.45300,267.00000,0.11000
011225_15.07.05.557,-0.76300,0.22700,-0.89100,-4.98800,-91.68300,-17.29000,0.16600,0.50800,-0.45900,266.60000,-0.40000
011225_15.07.05.569,-0.63900,0.43500,-0.83000,-3.86800,-82.63500,-12.30200,0.15800,0.51000,-0.47800,266.77000,0.17000
011225_15.07.05.580,-0.70100,0.28000,-0.71800,5.25000,-80.95500,1.19000,0.15400,0.51100,-0.48800,267.24000,0.47000
011225_15.07.05.592,-0.63600,0.02400,-0.66800,8.94300,-81.27000,6.84300,0.15400,0.51100,-0.48800,266.03000,-1.21000
011225_15.07.05.603,-0.57800,-0.08200,-0.69900,4.86500,-80.78000,9.11800,0.15100,0.51100,-0.51000,266.45000,0.42000
011225_15.07.05.615,-0.58300,-0.08200,-0.75200,-3.20300,-79.73000,13.26500,0.14400,0.50900,-0.53000,266.27000,-0.18000
011225_15.07.05.626,-0.50200,-0.06800,-0.76500,-13.80700,-79.48500,19.82700,0.13800,0.50700,-0.53800,265.50000,-0.77000
011225_15.07.05.638,-0.60500,0.01000,-0.77200,-24.08000,-87.15000,37.74800,0.13400,0.50300,-0.55400,266.07000,0.57000
011225_15.07.05.649,-1.07800,0.13400,-0.87600,-34.09000,-68.67000,36.17300,0.13400,0.50300,-0.55400,266.53000,0.46000
011225_15.07.05.660,-1.12900,0.40200,-0.85800,-34.05500,-44.11800,28.29800,0.13100,0.50300,-0.56200,266.55000,0.02000
011225_15.07.05.672,-1.24700,0.39700,-0.85300,-29.15500,-31.93700,23.55500,0.12500,0.49900,-0.56500,266.70000,0.15000
011225_15.07.05.683,-1.17300,0.46800,-0.71700,-20.70200,-19.63500,21.05200,0.12700,0.49900,-0.56200,266.13000,-0.57000
011225_15.07.05.695,-1.16400,0.50400,-0.83000,-9.78300,-20.31700,19.82700,0.12900,0.49600,-0.56800,266.57000,0.44000
011225_15.07.05.706,-1.04300,0.36900,-0.79100,-1.38300,-24.60500,23.34500,0.12900,0.49600,-0.56800,266.85000,0.28000
011225_15.07.05.718,-1.03500,0.27800,-0.77900,2.83500,-32.13000,28.52500,0.12200,0.49000,-0.57100,266.22000,-0.63000
011225_15.07.05.729,-1.15300,0.22300,-0.66600,5.61700,-31.57000,37.24000,0.12100,0.48500,-0.56600,266.32000,0.10000
011225_15.07.05.741,-1.28400,0.15700,-0.48000,-0.26200,-19.63500,37.53700,0.12100,0.48000,-0.57700,266.41000,0.09000
011225_15.07.05.752,-1.10100,0.37800,-0.69500,-18.27000,2.06500,29.59300,0.12100,0.48000,-0.57400,266.01000,-0.40000
011225_15.07.05.764,-1.13300,0.39300,-0.78800,-21.87500,23.38000,24.62200,0.12400,0.47100,-0.57400,266.08000,0.07000
011225_15.07.05.775,-1.05700,0.25600,-0.78700,-19.07500,38.72800,21.42000,0.13600,0.47100,-0.56700,266.62000,0.54000
011225_15.07.05.787,-0.96300,0.16300,-0.75300,-21.26300,52.69300,27.21200,0.13900,0.47000,-0.56100,266.64000,0.02000
011225_15.07.05.798,-0.97400,0.17600,-0.63100,-21.59500,59.16700,22.48700,0.14700,0.46600,-0.55100,266.24000,-0.40000
011225_15.07.05.810,-0.96900,0.32700,-0.59500,-14.22700,61.56500,15.92500,0.14700,0.46600,-0.55100,266.33000,0.09000
011225_15.07.05.821,-0.92700,0.32300,-0.62000,-6.51000,66.41200,11.46200,0.15500,0.46100,-0.53900,266.92000,0.59000
011225_15.07.05.833,-0.91900,0.35400,-0.70100,0.05300,73.72800,11.53300,0.16500,0.45900,-0.53000,266.74000,-0.18000
011225_15.07.05.844,-0.65600,0.30600,-0.78600,5.53000,77.14000,13.03800,0.17100,0.45200,-0.52500,266.56000,-0.18000
011225_15.07.05.856,-0.76400,0.21600,-1.11700,15.45300,73.95500,13.89500,0.17600,0.44000,-0.51000,266.72000,0.16000
011225_15.07.05.867,-0.18600,-0.01300,-0.49200,24.36000,73.60500,9.41500,0.17600,0.44000,-0.51000,266.46000,-0.26000
011225_15.07.05.879,0.84500,-0.12000,0.51400,-13.65000,11.83000,10.06300,0.18400,0.43400,-0.50300,266.34000,-0.12000
011225_15.07.05.890,0.15200,0.09400,-0.17900,-56.12300,-103.79300,24.79800,0.17600,0.43900,-0.52200,266.48000,0.14000
011225_15.07.05.902,-0.20300,0.10400,-0.21700,-60.53300,-195.19500,26.16300,0.16000,0.43800,-0.55900,266.35000,-0.13000
011225_15.07.05.913,-0.86800,0.54100,-0.69500,-59.88500,-232.33000,26.67000,0.14000,0.44200,-0.58800,266.08000,-0.27000
011225_15.07.05.925,-1.20500,0.84600,-0.25700,-55.00200,-201.56500,32.49800,0.14000,0.44200,-0.58800,266.61000,0.53000
011225_15.07.05.936,-1.06900,0.76800,-0.01900,-50.50500,-146.89500,-14.80500,0.12500,0.44300,-0.60600,266.34000,-0.27000
011225_15.07.05.948,-1.18700,0.46500,-0.10000,-52.92000,-110.61800,-38.43000,0.10900,0.45200,-0.62300,266.60000,0.26000
011225_15.07.05.959,-1.26400,0.36200,-0.28200,-46.27000,-64.15500,-51.03000,0.09300,0.46800,-0.62700,266.25000,-0.35000
011225_15.07.05.971,-1.15700,0.24100,-0.36700,-35.29800,-13.93000,-49.75200,0.09300,0.47900,-0.61900,266.50000,0.25000
011225_15.07.05.982,-0.95800,0.18700,-0.38800,-25.81200,29.22500,-34.16000,0.09400,0.47900,-0.61900,266.81000,0.31000
011225_15.07.05.994,-0.86000,0.12500,-0.31900,-16.59000,60.72500,-10.11500,0.09900,0.48100,-0.61300,266.59000,-0.22000
011225_15.07.06.005,-0.79800,0.20400,-0.36200,-10.37700,72.43300,6.89500,0.11000,0.47600,-0.59700,266.51000,-0.08000
011225_15.07.06.016,-0.77000,0.24700,-0.43000,-3.39500,68.40800,17.60500,0.11700,0.46900,-0.59200,266.41000,-0.10000
011225_15.07.06.028,-0.74100,0.24700,-0.41100,2.57200,55.30000,24.74500,0.11700,0.46900,-0.59200,266.74000,0.33000
011225_15.07.06.039,-0.72600,0.24400,-0.37600,5.39000,39.44500,30.46800,0.12000,0.46500,-0.58500,265.92000,-0.82000
011225_15.07.06.051,-0.73800,0.27300,-0.34800,6.96500,24.79800,34.33500,0.12500,0.45600,-0.58300,266.44000,0.52000
011225_15.07.06.062,-0.78100,0.31200,-0.32200,7.24500,13.26500,35.68200,0.13000,0.44800,-0.58400,266.57000,0.13000
011225_15.07.06.073,-0.82900,0.33100,-0.30600,6.79000,5.79300,29.73300,0.12800,0.44000,-0.58400,266.10000,-0.47000
011225_15.07.06.085,-0.84100,0.34000,-0.28600,7.68200,1.89000,28.07000,0.12800,0.44000,-0.58400,266.12000,0.02000
011225_15.07.06.096,-0.83600,0.32000,-0.25200,9.83500,3.90200,25.44500,0.12800,0.43600,-0.58700,267.23000,1.11000
011225_15.07.06.107,-0.76900,0.31900,-0.28500,13.05500,5.81000,23.99300,0.12900,0.42800,-0.57800,266.39000,-0.84000
011225_15.07.06.119,-0.82200,0.31800,-0.25200,13.59700,7.94500,24.97200,0.13000,0.42300,-0.57800,266.44000,0.05000
011225_15.07.06.130,-0.82200,0.32900,-0.26700,13.35200,11.97000,27.86000,0.12900,0.41500,-0.57800,266.82000,0.38000
011225_15.07.06.142,-0.76500,0.36700,-0.31400,15.64500,16.01300,30.73000,0.12900,0.41500,-0.57800,266.43000,-0.39000
011225_15.07.06.153,-0.71700,0.37600,-0.37300,17.95500,18.42700,29.24300,0.13300,0.40900,-0.57500,266.73000,0.30000
011225_15.07.06.165,-0.66000,0.30100,-0.43700,25.53200,19.98500,26.47800,0.13400,0.39900,-0.57500,266.42000,-0.31000
011225_15.07.06.176,-0.68100,0.34300,-0.47900,36.03300,17.55200,26.77500,0.13600,0.38400,-0.57400,266.41000,-0.01000
011225_15.07.06.188,-0.69200,0.37600,-0.49900,38.99000,12.19800,26.88000,0.13700,0.38300,-0.57300,266.56000,0.15000
011225_15.07.06.199,-0.65900,0.37800,-0.49800,38.51800,4.70700,24.32500,0.13700,0.38300,-0.57300,266.57000,0.01000
011225_15.07.06.211,-0.65300,0.36900,-0.47500,39.84700,-5.98500,18.09500,0.13400,0.37500,-0.57200,266.97000,0.40000
011225_15.07.06.222,-0.66400,0.32000,-0.47000,42.96300,-22.06700,6.58000,0.13200,0.36800,-0.58300,265.95000,-1.02000
011225_15.07.06.234,-0.62500,0.28700,-0.44900,52.32500,-28.15700,3.06300,0.13300,0.35900,-0.58500,266.46000,0.51000
011225_15.07.06.245,-0.38500,0.34600,-0.43900,52.20200,-37.81800,-4.32300,0.13300,0.35900,-0.58500,266.10000,-0.36000
011225_15.07.06.257,-0.32200,0.41300,-0.38500,48.47500,-41.05500,-29.24300,0.13100,0.35400,-0.59200,266.87000,0.77000
011225_15.07.06.268,-0.37100,0.22600,-0.39000,38.60500,-28.78800,-40.86200,0.12800,0.35800,-0.59400,267.12000,0.25000
011225_15.07.06.280,-0.77700,0.17600,-0.62400,28.00000,-5.86300,-32.07700,0.12400,0.36300,-0.59600,266.48000,-0.64000
011225_15.07.06.291,-1.05900,0.22300,-0.71100,32.67300,0.15700,-35.87500,0.12200,0.36700,-0.59600,266.80000,0.32000
011225_15.07.06.303,-0.95600,0.26200,-0.52400,42.38500,-5.23300,-39.02500,0.12200,0.36700,-0.59600,266.04000,-0.76000
011225_15.07.06.314,-0.88500,0.38600,-0.55400,40.74000,-9.43200,-34.66700,0.12300,0.36700,-0.59200,266.67000,0.63000
011225_15.07.06.326,-0.91300,0.32200,-0.37500,25.72500,-8.22500,-27.03800,0.12400,0.36600,-0.59800,266.70000,0.03000
011225_15.07.06.337,-0.75000,0.32500,-0.60800,9.55500,-6.73800,-21.42000,0.11900,0.36800,-0.59100,266.62000,-0.08000
011225_15.07.06.348,-0.81600,0.23200,-0.38700,10.67500,-9.73000,-15.64500,0.11500,0.36500,-0.60300,266.43000,-0.19000
011225_15.07.06.360,-0.81800,0.28300,-0.33000,4.93500,-16.64200,-10.99000,0.11500,0.36500,-0.60300,267.25000,0.82000
011225_15.07.06.371,-0.80800,0.25900,-0.34000,4.65500,-48.35300,-2.80000,0.11200,0.36500,-0.60400,266.65000,-0.60000
011225_15.07.06.383,-0.83000,0.18600,-0.38200,7.56000,-53.30500,1.13800,0.10400,0.36800,-0.61000,266.67000,0.02000
011225_15.07.06.394,-0.76900,0.19600,-0.29700,5.63500,-52.86800,3.30800,0.10100,0.36700,-0.61600,266.67000,0.00000
011225_15.07.06.406,-0.77300,0.23900,-0.21000,4.77800,-58.74800,7.43700,0.09700,0.36700,-0.63100,266.93000,0.26000
011225_15.07.06.417,-0.86300,0.24900,-0.18600,6.38700,-73.09800,9.31000,0.09700,0.36700,-0.63100,266.30000,-0.63000
011225_15.07.06.429,-0.83900,0.25200,-0.14700,7.28000,-90.21300,7.22700,0.08600,0.36300,-0.63900,266.63000,0.33000
011225_15.07.06.440,-0.85400,0.25500,-0.07500,5.89800,-108.22000,6.24700,0.07200,0.36100,-0.64500,267.23000,0.60000
011225_15.07.06.451,-0.93700,0.22400,-0.05000,4.91800,-121.46700,5.54800,0.04700,0.36600,-0.66500,267.01000,-0.22000
011225_15.07.06.463,-0.87100,0.29200,-0.02400,4.02500,-126.96300,2.71300,0.04700,0.36600,-0.67600,266.60000,-0.41000
011225_15.07.06.474,-0.84300,0.32700,-0.01300,3.01000,-137.00800,4.70700,0.02700,0.37700,-0.67600,266.41000,-0.19000
011225_15.07.06.486,-0.93500,0.31500,0.01100,8.24300,-147.78800,11.09500,0.00300,0.37100,-0.69900,266.33000,-0.08000
011225_15.07.06.497,-1.03500,0.30000,0.07300,20.35300,-154.42000,11.55000,-0.02500,0.36700,-0.70800,266.92000,0.59000
011225_15.07.06.509,-1.05100,0.28400,0.11700,31.90300,-159.21500,10.65800,-0.04900,0.36600,-0.72500,267.09000,0.17000
011225_15.07.06.520,-1.09900,0.35400,0.12400,29.43500,-175.33300,8.06800,-0.04900,0.36600,-0.72500,266.27000,-0.82000
011225_15.07.06.532,-1.20300,0.38400,0.19500,22.87200,-186.23500,0.50700,-0.08200,0.35900,-0.73900,266.41000,0.14000
011225_15.07.06.543,-1.04900,0.53500,0.21800,16.08300,-195.45800,-6.26500,-0.10900,0.35500,-0.74500,266.59000,0.18000
011225_15.07.06.555,-1.09400,0.44700,0.19600,-2.11800,-195.77300,-0.45500,-0.14900,0.36100,-0.76000,267.08000,0.49000
011225_15.07.06.566,-1.01900,0.31700,0.08000,-20.23000,-188.26500,-1.24200,-0.18600,0.36700,-0.76700,267.11000,0.03000
011225_15.07.06.578,-0.96600,0.26100,0.20200,-28.50700,-183.31200,-5.91500,-0.18600,0.36700,-0.76700,266.49000,-0.62000
011225_15.07.06.589,-1.04300,0.29100,0.36000,-32.14700,-179.74300,-10.62300,-0.22000,0.37300,-0.76600,265.70000,-0.79000
011225_15.07.06.601,-0.87900,0.22800,0.38700,-31.18500,-174.79000,-16.50300,-0.25200,0.38200,-0.76400,266.26000,0.56000
011225_15.07.06.612,-0.89100,0.22000,0.41200,-32.44500,-165.91700,-20.07300,-0.28700,0.39100,-0.75900,266.07000,-0.19000
011225_15.07.06.624,-0.89100,0.29900,0.40900,-33.28500,-149.08300,-23.18700,-0.31100,0.38900,-0.76100,266.55000,0.48000
011225_15.07.06.635,-0.87700,0.26900,0.52000,-30.88800,-138.82700,-25.70800,-0.31100,0.38900,-0.76100,266.75000,0.20000
011225_15.07.06.647,-0.82500,0.28100,0.62400,-29.54000,-133.42000,-30.11800,-0.33800,0.39800,-0.76100,266.23000,-0.52000
011225_15.07.06.658,-0.76000,0.25900,0.59500,-32.21700,-123.27000,-32.79500,-0.36300,0.40500,-0.75000,266.67000,0.44000
011225_15.07.06.670,-0.75900,0.23400,0.56900,-38.78000,-114.04800,-30.22200,-0.38200,0.41300,-0.75200,266.97000,0.30000
011225_15.07.06.681,-0.72700,0.30800,0.50700,-38.29000,-100.87000,-23.67700,-0.38200,0.42000,-0.74400,266.49000,-0.48000
011225_15.07.06.693,-0.68300,0.24200,0.54300,-31.44800,-86.20500,-16.39800,-0.40200,0.42000,-0.74400,267.04000,0.55000
011225_15.07.06.704,-0.60800,0.20600,0.60400,-28.15700,-74.83000,-10.13200,-0.42200,0.42300,-0.73900,266.44000,-0.60000
011225_15.07.06.716,-0.58600,0.14600,0.66300,-26.89800,-67.27000,-5.39000,-0.43400,0.43000,-0.72700,266.11000,-0.33000
011225_15.07.06.727,-0.56700,0.13100,0.74800,-26.84500,-63.78700,-4.13000,-0.44400,0.43700,-0.72200,266.42000,0.31000
011225_15.07.06.739,-0.56500,0.12700,0.75600,-33.09200,-62.17800,-4.74200,-0.44400,0.43700,-0.72200,266.62000,0.20000
011225_15.07.06.750,-0.57200,0.16200,0.81000,-37.08300,-63.82300,-7.28000,-0.45300,0.44200,-0.71600,266.96000,0.34000
011225_15.07.06.762,-0.50500,0.08800,0.85600,-36.52200,-64.64500,-10.74500,-0.46600,0.44400,-0.70600,266.32000,-0.64000
011225_15.07.06.773,-0.53800,0.04600,0.89800,-34.44000,-67.28700,-17.23700,-0.47500,0.44700,-0.70200,266.38000,0.06000
011225_15.07.06.785,-0.47100,0.13700,0.92700,-30.88800,-71.99500,-23.20500,-0.48900,0.44400,-0.69100,266.41000,0.03000
011225_15.07.06.797,-0.42200,-0.02200,0.96200,-29.89000,-76.61500,-26.98500,-0.48900,0.44400,-0.69100,266.13000,-0.28000
011225_15.07.06.808,-0.39800,0.00700,0.99800,-18.72500,-93.76500,-37.24000,-0.50400,0.45100,-0.68200,266.81000,0.68000
011225_15.07.06.820,-0.30700,-0.04800,0.97800,-20.19500,-100.10000,-37.90500,-0.51800,0.45400,-0.67300,265.96000,-0.85000
011225_15.07.06.831,-0.27400,-0.06900,0.96100,-15.73300,-106.40000,-37.85300,-0.53800,0.45100,-0.66100,266.63000,0.67000
011225_15.07.06.843,-0.28500,-0.10500,0.96400,-15.73300,-113.83800,-32.27000,-0.55800,0.44900,-0.64700,266.12000,-0.51000
011225_15.07.06.854,-0.27800,-0.04000,1.01200,-14.14000,-117.28500,-28.10500,-0.55800,0.44900,-0.64700,266.58000,0.46000
011225_15.07.06.866,-0.27300,-0.00500,0.97000,-17.25500,-115.50000,-26.82700,-0.56600,0.44700,-0.63100,266.91000,0.33000
011225_15.07.06.878,-0.22100,-0.00300,0.99400,-20.58000,-114.22300,-26.75700,-0.58400,0.44500,-0.62400,266.39000,-0.52000
011225_15.07.06.889,-0.22400,-0.04900,1.00700,-22.82000,-113.85500,-26.26700,-0.59900,0.44600,-0.60200,267.22000,0.83000
011225_15.07.06.901,-0.21900,-0.04600,1.00800,-22.17300,-112.71700,-27.72000,-0.60900,0.43700,-0.58000,266.84000,-0.38000
011225_15.07.06.912,-0.16500,-0.07500,1.02700,-23.08300,-112.87500,-30.27500,-0.60900,0.43700,-0.58000,266.87000,0.03000
011225_15.07.06.924,-0.00100,-0.07700,0.99600,-23.76500,-112.64700,-33.30300,-0.62300,0.43700,-0.57000,267.09000,0.22000
011225_15.07.06.935,0.06800,-0.17800,1.15300,-26.79200,-105.19200,-28.98000,-0.63600,0.43200,-0.55500,266.85000,-0.24000
011225_15.07.06.947,-0.07100,-0.10700,1.09800,-31.97200,-110.32000,-35.15800,-0.64700,0.43100,-0.52900,266.91000,0.06000
011225_15.07.06.958,-0.15200,0.00700,0.98100,-39.02500,-113.96000,-41.91200,-0.64700,0.43100,-0.52900,266.29000,-0.62000
011225_15.07.06.970,-0.05000,0.00400,0.89300,-42.84000,-104.63200,-38.88500,-0.65500,0.42400,-0.51900,266.28000,-0.01000
011225_15.07.06.981,-0.06000,-0.02800,0.83800,-44.04800,-98.14000,-31.86800,-0.66200,0.42400,-0.49700,266.27000,-0.01000
011225_15.07.06.993,0.00900,-0.07300,0.85300,-41.35300,-87.02800,-28.98000,-0.67000,0.41800,-0.48300,266.23000,-0.04000
011225_15.07.07.005,0.07800,-0.10600,0.86400,-37.06500,-71.97800,-27.96500,-0.67400,0.41600,-0.47000,267.31000,1.08000
011225_15.07.07.016,0.08800,-0.06900,0.83300,-32.20000,-55.82500,-25.53200,-0.67400,0.41600,-0.47000,266.05000,-1.26000
011225_15.07.07.027,0.08900,-0.06700,0.85300,-26.96800,-38.64000,-21.19200,-0.67700,0.41300,-0.45900,266.43000,0.38000
011225_15.07.07.039,0.08400,-0.11100,0.90400,-20.51000,-22.99500,-18.27000,-0.67700,0.41100,-0.45500,266.34000,-0.09000
011225_15.07.07.050,0.09300,-0.16400,0.95700,-14.45500,-10.16800,-15.96000,-0.67600,0.41100,-0.45800,266.50000,0.16000
011225_15.07.07.062,0.07600,-0.17300,0.98200,-9.15300,0.96200,-13.65000,-0.67300,0.40200,-0.46400,267.27000,0.77000
011225_15.07.07.073,0.02600,-0.17100,0.98500,-3.92000,12.61800,-11.13000,-0.67300,0.40200,-0.46400,267.03000,-0.24000
011225_15.07.07.085,-0.06500,-0.16900,0.98400,6.17800,26.35500,-9.04700,-0.67300,0.40100,-0.46900,266.44000,-0.59000
011225_15.07.07.096,0.03300,-0.27400,0.97400,20.73700,72.76500,4.60200,-0.66700,0.39700,-0.47600,266.68000,0.24000
011225_15.07.07.108,-0.02600,-0.16400,0.91500,52.79800,97.28300,12.11000,-0.66300,0.39800,-0.49800,266.48000,-0.20000
011225_15.07.07.119,-0.19200,-0.12400,0.84100,64.85500,129.23800,6.47500,-0.64800,0.39600,-0.51500,267.03000,0.55000
011225_15.07.07.131,-0.25600,-0.19900,0.70800,68.18000,174.96500,-0.91000,-0.64800,0.39600,-0.51500,266.55000,-0.48000
011225_15.07.07.142,-0.24800,-0.02800,0.91000,72.22300,232.34800,-8.20800,-0.63600,0.39400,-0.55100,267.30000,0.75000
011225_15.07.07.154,-0.30100,0.02300,1.24500,64.27800,249.25300,-10.32500,-0.61600,0.38300,-0.58700,266.06000,-1.24000
011225_15.07.07.165,-0.31200,-0.05800,1.51200,60.95200,237.61500,-16.64200,-0.58900,0.37400,-0.62000,266.58000,0.52000
011225_15.07.07.177,-0.56100,-0.06800,1.39800,66.22000,215.75800,-28.98000,-0.58900,0.37400,-0.62000,266.65000,0.07000
011225_15.07.07.188,-0.79800,0.30400,1.15800,87.53500,209.63300,-48.30000,-0.56400,0.35800,-0.64500,266.99000,0.34000
011225_15.07.07.200,-0.59100,0.31600,1.20200,128.01200,222.11000,-45.58800,-0.53000,0.32800,-0.66400,266.56000,-0.43000
011225_15.07.07.211,-0.65000,-0.17800,0.99100,120.03300,218.34800,-19.35500,-0.49700,0.31400,-0.68800,266.54000,-0.02000
011225_15.07.07.223,-0.46600,-0.16700,1.02900,63.12300,187.63500,-20.79000,-0.47500,0.30400,-0.70100,266.43000,-0.11000
011225_15.07.07.234,-0.31500,0.73000,1.15900,32.65500,147.07000,-30.92300,-0.47500,0.30400,-0.70100,266.40000,-0.03000
011225_15.07.07.246,-0.84500,0.39500,0.71400,32.07700,135.46700,9.25700,-0.45300,0.29800,-0.70600,265.92000,-0.48000
011225_15.07.07.257,-1.06600,0.24200,0.55000,24.15000,147.56000,3.29000,-0.43200,0.29300,-0.71300,266.78000,0.86000
011225_15.07.07.269,-1.06800,0.19200,0.50600,18.58500,166.96700,-6.21300,-0.40300,0.28900,-0.72500,265.99000,-0.79000
011225_15.07.07.280,-1.05900,0.18600,0.44000,15.50500,189.38500,-7.36700,-0.36400,0.28600,-0.74200,266.82000,0.83000
011225_15.07.07.291,-1.01000,0.16300,0.60500,13.68500,211.75000,-4.86500,-0.36400,0.28600,-0.74200,266.43000,-0.39000
011225_15.07.07.303,-1.06200,0.14900,0.66100,2.69500,223.21200,-4.02500,-0.32100,0.27600,-0.74600,266.62000,0.19000
011225_15.07.07.314,-1.08200,0.04800,0.73500,-7.84000,228.32200,-8.29500,-0.27700,0.27900,-0.75200,266.70000,0.08000
011225_15.07.07.326,-1.07200,-0.03400,0.64300,-19.77500,228.86500,-16.08300,-0.23200,0.28200,-0.75000,266.06000,-0.64000
011225_15.07.07.337,-1.03700,0.22200,0.41500,-26.91500,225.57500,-24.30800,-0.18700,0.28200,-0.75000,266.67000,0.61000
011225_15.07.07.349,-1.19600,0.14500,0.14700,-15.55700,225.87200,-32.34000,-0.18700,0.28200,-0.75000,266.71000,0.04000
011225_15.07.07.360,-1.27600,0.12700,0.22400,17.43000,237.49300,-46.65500,-0.13900,0.27500,-0.73600,266.45000,-0.26000
011225_15.07.07.372,-1.23100,-0.05000,0.36500,35.64700,242.60300,-67.44500,-0.09200,0.26900,-0.71600,265.89000,-0.56000
011225_15.07.07.383,-1.21600,-0.04200,0.18400,32.18200,240.53800,-70.05200,-0.04500,0.26400,-0.69600,266.41000,0.52000
011225_15.07.07.395,-1.24700,0.21300,-0.09600,64.40000,258.16000,-60.95200,-0.04500,0.26400,-0.66000,266.70000,0.29000
011225_15.07.07.406,-1.16300,0.16100,0.05800,90.63200,261.94000,-62.16000,0.00100,0.25800,-0.66000,266.26000,-0.44000
011225_15.07.07.418,-1.13200,0.00300,-0.02300,103.75700,250.47800,-72.31000,0.03900,0.24800,-0.63100,266.74000,0.48000
011225_15.07.07.430,-1.12600,-0.12000,-0.13800,117.77500,235.18200,-81.93500,0.07500,0.24500,-0.58900,265.79000,-0.95000
011225_15.07.07.441,-1.18800,-0.10800,-0.13800,131.65200,221.49700,-94.64000,0.10000,0.23600,-0.55300,267.15000,1.36000
011225_15.07.07.453,-1.10600,-0.10600,-0.13500,130.86500,196.29800,-120.20800,0.10000,0.23600,-0.55300,266.54000,-0.61000
011225_15.07.07.464,-0.91800,-0.20500,-0.24100,116.53300,159.23200,-144.46200,0.12600,0.24700,-0.52300,266.70000,0.16000
011225_15.07.07.476,-0.77300,-0.30400,-0.32700,103.74000,124.98500,-159.16300,0.14200,0.26700,-0.49500,266.49000,-0.21000
011225_15.07.07.487,-0.73900,-0.39000,-0.45400,96.44200,100.43300,-165.60200,0.15400,0.29000,-0.47700,266.56000,0.07000
011225_15.07.07.499,-0.68100,-0.40300,-0.52500,95.90000,88.20000,-172.39300,0.16700,0.31800,-0.45900,266.53000,-0.03000
011225_15.07.07.510,-0.70000,-0.44600,-0.58700,101.16800,81.93500,-180.68700,0.16700,0.31800,-0.45900,266.64000,0.11000
011225_15.07.07.522,-0.69900,-0.44400,-0.70900,103.07500,76.59800,-186.81200,0.17700,0.34700,-0.44500,266.37000,-0.27000
011225_15.07.07.534,-0.63900,-0.38900,-0.77300,99.64500,73.15000,-158.91700,0.18100,0.37500,-0.43300,266.60000,0.23000
011225_15.07.07.545,-0.79400,-0.38200,-0.67100,82.46000,68.35500,-141.19000,0.18300,0.40300,-0.41800,266.00000,-0.60000
011225_15.07.07.557,-1.11500,-0.47900,-0.58000,58.71300,53.60300,-133.35000,0.18600,0.42700,-0.41800,266.44000,0.44000
011225_15.07.07.568,-1.01700,-0.60500,-0.60900,17.60500,42.21000,-129.83300,0.18600,0.42700,-0.41800,266.55000,0.11000
011225_15.07.07.580,-0.80100,-0.61500,-0.77200,-20.84300,50.87300,-123.41000,0.18700,0.44600,-0.40500,266.65000,0.10000
011225_15.07.07.591,-0.70300,-0.73700,-0.87500,-41.89500,68.25000,-116.20000,0.19200,0.46500,-0.39200,266.79000,0.14000
011225_15.07.07.603,-0.75300,-0.74200,-0.83800,-48.58000,84.59500,-113.89000,0.18400,0.49000,-0.38400,266.65000,-0.14000
011225_15.07.07.614,-0.61000,-0.66400,-0.72900,-60.25200,100.31000,-116.62000,0.18400,0.51600,-0.36300,266.54000,-0.11000
011225_15.07.07.626,-0.50600,-0.53800,-0.68400,-68.21500,114.13500,-119.36800,0.17700,0.51600,-0.36300,266.32000,-0.22000
011225_15.07.07.637,-0.42300,-0.45100,-0.64400,-62.54500,124.81000,-115.29000,0.16300,0.54900,-0.34700,266.37000,0.05000
011225_15.07.07.649,-0.29900,-0.49300,-0.62900,-37.20500,138.04000,-109.32300,0.15300,0.57300,-0.32200,266.36000,-0.01000
011225_15.07.07.660,-0.33900,-0.50700,-0.50500,17.76300,166.82700,-111.24700,0.12700,0.60200,-0.30000,266.71000,0.35000
011225_15.07.07.672,-0.30300,-0.46900,-0.39100,43.71500,174.51000,-103.14500,0.12700,0.60200,-0.30000,266.42000,-0.29000
011225_15.07.07.684,-0.25300,-0.52000,-0.24000,79.52000,164.04500,-101.97300,0.10200,0.63000,-0.28400,266.37000,-0.05000
011225_15.07.07.695,-0.24300,-0.61000,-0.21900,88.27000,148.57500,-106.96000,0.08400,0.64900,-0.27400,266.99000,0.62000
011225_15.07.07.707,0.00200,-0.63000,-0.27500,93.60700,134.96000,-109.02500,0.06400,0.67900,-0.27000,266.54000,-0.45000
011225_15.07.07.718,0.02000,-0.60300,-0.37700,97.87800,123.88200,-108.85000,0.04400,0.69900,-0.27400,266.98000,0.44000
011225_15.07.07.730,-0.02700,-0.54700,-0.54900,103.32000,116.58500,-109.42700,0.04400,0.69900,-0.27400,266.55000,-0.43000
011225_15.07.07.741,-0.02600,-0.57300,-0.55300,109.86500,117.23200,-109.63700,0.02300,0.72500,-0.27400,266.81000,0.26000
011225_15.07.07.753,0.00700,-0.59900,-0.46000,114.17000,119.28000,-111.37000,-0.00500,0.73900,-0.28700,266.26000,-0.55000
011225_15.07.07.765,0.03400,-0.57300,-0.47600,111.58000,117.26800,-111.94800,-0.02700,0.75700,-0.29700,266.49000,0.23000
011225_15.07.07.776,0.01100,-0.52100,-0.49600,104.44000,115.41200,-109.84800,-0.04700,0.77100,-0.30300,266.15000,-0.34000
011225_15.07.07.788,0.03000,-0.44500,-0.44600,93.90500,119.03500,-107.87000,-0.04700,0.77100,-0.30300,266.92000,0.77000
011225_15.07.07.799,0.06600,-0.35500,-0.32800,83.21300,125.93000,-105.47300,-0.06800,0.78400,-0.30600,266.63000,-0.29000
011225_15.07.07.811,0.09900,-0.30700,-0.18900,74.69000,132.23000,-100.74700,-0.09000,0.79400,-0.31200,266.57000,-0.06000
011225_15.07.07.822,0.07600,-0.27700,-0.04300,67.42700,138.00500,-86.76500,-0.10700,0.80300,-0.31600,266.76000,0.19000
011225_15.07.07.834,0.15800,-0.28400,0.12300,55.65000,148.97700,-82.91500,-0.12900,0.80700,-0.32200,266.80000,0.04000
011225_15.07.07.845,0.33300,-0.39700,0.18300,56.43800,144.04200,-79.22300,-0.12900,0.80700,-0.32200,266.50000,-0.30000
011225_15.07.07.857,0.36000,-0.43700,0.11700,63.29800,139.58000,-79.95700,-0.14700,0.81300,-0.32700,266.31000,-0.19000
011225_15.07.07.868,0.37100,-0.51500,0.08300,72.15300,140.22700,-86.46700,-0.16700,0.81400,-0.33500,266.41000,0.10000
011225_15.07.07.880,0.33900,-0.49500,0.05500,81.32300,142.88700,-93.76500,-0.18500,0.81700,-0.34700,267.07000,0.66000
011225_15.07.07.891,0.31100,-0.35100,0.09800,89.26800,149.57200,-98.22800,-0.18500,0.81700,-0.34700,266.75000,-0.32000
011225_15.07.07.903,0.34400,-0.20400,0.20100,92.34800,160.47500,-99.22500,-0.19900,0.82400,-0.35800,266.39000,-0.36000
011225_15.07.07.914,0.39500,-0.11900,0.34000,93.66000,168.36800,-96.81000,-0.21600,0.82300,-0.38200,267.34000,0.95000
011225_15.07.07.926,0.40400,-0.13600,0.50400,93.66000,170.92300,-91.82300,-0.23200,0.82400,-0.39600,266.60000,-0.74000
011225_15.07.07.937,0.47700,-0.14000,0.70700,90.49300,169.17300,-87.83200,-0.24000,0.82300,-0.41400,265.92000,-0.68000
011225_15.07.07.949,0.59100,-0.10300,0.85000,84.40300,162.83700,-83.03700,-0.24000,0.82300,-0.41400,266.64000,0.72000
011225_15.07.07.960,0.62900,-0.08900,0.95700,80.23800,149.62500,-76.23000,-0.25200,0.82300,-0.42600,267.33000,0.69000
011225_15.07.07.972,0.65500,-0.05400,0.98800,79.29300,110.60000,-63.87500,-0.26100,0.81600,-0.44200,266.93000,-0.40000
011225_15.07.07.983,0.56700,0.11500,0.77800,92.33000,96.70500,-53.21700,-0.26400,0.81300,-0.46200,266.49000,-0.44000
011225_15.07.07.995,0.35200,0.14800,0.76300,115.97300,90.65000,-44.53700,-0.26700,0.80600,-0.48100,267.18000,0.69000
011225_15.07.08.006,0.32800,0.02900,0.69200,132.52700,90.37000,-42.77000,-0.26700,0.80600,-0.48100,266.56000,-0.62000
011225_15.07.08.018,0.32500,-0.05700,0.80800,143.23800,93.17000,-41.72000,-0.26700,0.79900,-0.50900,266.92000,0.36000
011225_15.07.08.029,0.19700,0.02100,0.84700,141.76800,99.54000,-45.30700,-0.26400,0.78900,-0.52900,266.96000,0.04000
011225_15.07.08.041,0.10100,0.10100,0.76500,140.03500,107.18800,-53.76000,-0.26200,0.77800,-0.55000,266.80000,-0.16000
011225_15.07.08.052,0.09400,0.18000,0.73800,143.79800,118.45800,-63.00000,-0.26300,0.76300,-0.56900,266.86000,0.06000
011225_15.07.08.064,0.08800,0.24900,0.83000,149.13500,137.51500,-70.17500,-0.26300,0.76300,-0.56900,266.33000,-0.53000
011225_15.07.08.075,0.11200,0.36500,0.98500,154.12200,156.83500,-77.82300,-0.25700,0.75000,-0.60400,267.03000,0.70000
011225_15.07.08.087,0.06600,0.51100,1.07400,156.99300,166.40800,-85.17300,-0.25200,0.73200,-0.62100,266.89000,-0.14000
011225_15.07.08.098,-0.02200,0.56200,1.13500,155.62800,165.86500,-89.44200,-0.23800,0.71100,-0.63700,266.60000,-0.29000
011225_15.07.08.110,-0.03300,0.57700,1.18900,144.58500,160.00300,-91.17500,-0.23800,0.71100,-0.65500,266.57000,-0.03000
011225_15.07.08.121,0.03300,0.55400,1.16900,106.76800,140.05300,-82.30200,-0.23300,0.69300,-0.65500,266.45000,-0.12000
011225_15.07.08.133,0.09900,0.58100,1.12600,92.47000,123.83000,-74.37500,-0.21800,0.68500,-0.66400,266.53000,0.08000
011225_15.07.08.144,0.06700,0.66300,1.06600,82.00500,104.51000,-61.58300,-0.21300,0.66800,-0.67200,266.37000,-0.16000
011225_15.07.08.156,-0.04100,0.73600,0.94900,73.55200,86.53700,-46.04200,-0.20700,0.65900,-0.67300,266.49000,0.12000
011225_15.07.08.167,-0.12000,0.73500,0.85500,68.21500,73.46500,-33.04000,-0.20700,0.65900,-0.67300,266.71000,0.22000
011225_15.07.08.179,-0.16700,0.67500,0.87400,65.52000,65.69500,-27.10800,-0.19400,0.64800,-0.68100,266.70000,-0.01000
011225_15.07.08.190,-0.23300,0.59000,0.90700,62.31800,62.59700,-28.73500,-0.19100,0.63700,-0.68600,267.19000,0.49000
011225_15.07.08.202,-0.16800,0.55100,0.88400,56.42000,65.38000,-31.04500,-0.17800,0.62300,-0.68900,265.69000,-1.50000
011225_15.07.08.213,-0.22800,0.51100,0.79500,55.14300,67.11300,-33.12700,-0.16400,0.61700,-0.69500,266.52000,0.83000
011225_15.07.08.225,-0.22900,0.58100,0.77900,64.52200,69.72000,-40.25000,-0.16400,0.61700,-0.69500,266.50000,-0.02000
011225_15.07.08.236,-0.25600,0.62700,0.67800,70.12200,78.33000,-44.27500,-0.16400,0.60900,-0.69400,266.47000,-0.03000
011225_15.07.08.248,-0.19600,0.72700,0.70000,75.56500,87.64000,-46.56800,-0.15600,0.59900,-0.70600,266.95000,0.48000
011225_15.07.08.259,0.23900,0.53300,1.65900,90.07300,66.95500,-60.21700,-0.14700,0.57700,-0.70400,266.93000,-0.02000
011225_15.07.08.271,-0.22200,0.65500,0.35000,106.36500,35.84000,-59.04500,-0.15300,0.56600,-0.71600,266.98000,0.05000
011225_15.07.08.282,-0.30400,0.82600,0.76000,101.20200,66.92000,-48.86000,-0.15300,0.56600,-0.71600,266.15000,-0.83000
011225_15.07.08.294,-0.54200,0.36300,0.66200,106.29500,65.69500,-55.21300,-0.14200,0.55100,-0.71800,266.24000,0.09000
011225_15.07.08.305,-0.35600,0.95800,0.56500,104.03700,71.19000,-78.94200,-0.13600,0.53600,-0.72500,266.07000,-0.17000
011225_15.07.08.316,-0.05500,0.95800,0.99400,100.88700,75.93300,-73.93800,-0.12800,0.52500,-0.72100,267.17000,1.10000
011225_15.07.08.328,-0.09000,1.01000,1.11100,109.93500,53.51500,-76.96500,-0.12800,0.50300,-0.72700,266.33000,-0.84000
011225_15.07.08.339,-0.23400,1.18000,0.89500,74.55000,40.86200,-60.04200,-0.12200,0.50300,-0.72700,267.11000,0.78000
011225_15.07.08.351,-0.29000,0.64700,0.82700,32.86500,35.49000,-38.13200,-0.11700,0.49900,-0.72900,266.41000,-0.70000
011225_15.07.08.362,-0.39300,0.73000,0.51700,14.80500,32.20000,-34.89500,-0.10700,0.49700,-0.72700,266.99000,0.58000
011225_15.07.08.374,-0.38500,0.69100,0.45800,-2.36200,53.81300,-22.40000,-0.10300,0.49900,-0.72200,266.62000,-0.37000
011225_15.07.08.385,-0.43200,0.72500,0.43200,-12.04000,69.33500,-14.57800,-0.10300,0.49900,-0.72200,266.13000,-0.49000
011225_15.07.08.397,-0.42200,0.79400,0.48800,-17.72800,75.16200,-9.92200,-0.09300,0.50500,-0.71600,267.02000,0.89000
011225_15.07.08.408,-0.52100,0.89700,0.48200,-24.83300,76.51000,9.10000,-0.08600,0.50700,-0.70900,266.32000,-0.70000
011225_15.07.08.420,-0.54000,0.79300,0.36000,-21.87500,76.68500,11.67200,-0.07200,0.51400,-0.70300,266.47000,0.15000
011225_15.07.08.431,-0.62400,0.77800,0.29200,-14.07000,79.24000,15.40000,-0.05800,0.51400,-0.69900,266.61000,0.14000
011225_15.07.08.442,-0.65500,0.81500,0.32600,-11.06000,88.51500,18.70800,-0.05800,0.51400,-0.69900,266.20000,-0.41000
011225_15.07.08.454,-0.77400,0.79700,0.33500,-11.07800,100.04800,21.43700,-0.04700,0.51700,-0.69700,266.36000,0.16000
011225_15.07.08.465,-1.11300,0.81600,0.33900,-14.26200,112.80500,19.32000,-0.02800,0.51800,-0.68400,266.21000,-0.15000
011225_15.07.08.477,-0.62900,1.02800,0.39000,-13.56300,125.72000,8.12000,-0.01000,0.52000,-0.67100,266.57000,0.36000
011225_15.07.08.488,-0.58900,0.94400,0.28800,-5.56500,125.33500,-0.92800,0.00800,0.51800,-0.66000,266.66000,0.09000
011225_15.07.08.500,-0.53900,0.87900,0.20400,-5.09300,118.49300,-9.29300,0.00800,0.51800,-0.66000,265.79000,-0.87000
011225_15.07.08.511,-0.55600,0.97100,0.32900,-16.06500,114.57300,-20.65000,0.02100,0.52500,-0.64200,267.25000,1.46000
011225_15.07.08.523,-0.68000,0.96600,0.24300,-29.05000,107.83500,-30.94000,0.02800,0.52600,-0.63500,266.06000,-1.19000
011225_15.07.08.534,-0.85200,0.94700,0.28800,-30.74700,108.48200,-39.07700,0.03600,0.53700,-0.62100,266.48000,0.42000
011225_15.07.08.546,-0.95000,0.96900,0.30900,-26.72200,111.54500,-46.51500,0.04400,0.55000,-0.60400,266.92000,0.44000
011225_15.07.08.557,-1.01100,0.92400,0.22200,-1.20700,116.35700,-47.26800,0.04400,0.55000,-0.60400,266.65000,-0.27000
011225_15.07.08.569,-1.12900,0.77000,0.14300,5.95000,123.90000,-44.13500,0.05700,0.55300,-0.59100,266.79000,0.14000
011225_15.07.08.580,-1.14900,1.04100,0.12500,10.92000,131.32000,-41.89500,0.06600,0.55600,-0.58200,266.47000,-0.32000
011225_15.07.08.592,-1.01400,1.04700,0.10500,17.86800,132.44000,-33.65300,0.07600,0.55700,-0.56700,266.45000,-0.02000
011225_15.07.08.603,-0.78500,1.02200,0.20100,29.73300,127.82000,-29.40000,0.07600,0.55700,-0.56700,265.90000,-0.55000
011225_15.07.08.614,-0.74700,0.94700,0.16400,46.18200,110.88000,-26.86200,0.08300,0.55600,-0.55600,266.78000,0.88000
011225_15.07.08.626,-0.74900,0.64000,0.27200,56.08800,99.92500,-27.80800,0.09500,0.55200,-0.54200,266.44000,-0.34000
011225_15.07.08.637,-0.74500,0.54500,0.26000,47.89700,97.68500,-29.27800,0.09700,0.55400,-0.54400,266.59000,0.15000
011225_15.07.08.649,-0.77700,0.54100,0.13600,42.82200,93.85300,-25.35800,0.09900,0.55200,-0.53100,266.62000,0.03000
011225_15.07.08.660,-0.74500,0.43600,0.02400,41.79000,91.28000,-16.73000,0.09900,0.55200,-0.53100,265.77000,-0.85000
011225_15.07.08.672,-0.70600,0.34800,0.05700,40.44300,92.99500,-5.14500,0.11000,0.54900,-0.52700,266.74000,0.97000
011225_15.07.08.683,-0.77600,0.49400,-0.02300,38.09700,90.21300,6.49200,0.11500,0.54100,-0.52000,266.93000,0.19000
011225_15.07.08.694,-0.91800,0.75800,-0.17000,40.88000,87.65800,21.91000,0.12500,0.53600,-0.50400,266.81000,-0.12000
011225_15.07.08.706,-1.05200,0.75500,-0.26100,30.43300,98.26200,15.61000,0.12900,0.52900,-0.49400,266.89000,0.08000
011225_15.07.08.718,-1.05400,0.75700,-0.31500,15.12000,116.72500,4.51500,0.12900,0.52900,-0.49400,266.49000,-0.40000
011225_15.07.08.729,-0.93500,0.71700,-0.23300,10.97200,134.61000,-2.01300,0.13000,0.52500,-0.47600,267.43000,0.94000
011225_15.07.08.740,-0.81700,0.74600,-0.20900,13.26500,144.83000,-1.59200,0.14700,0.52100,-0.45500,266.76000,-0.67000
011225_15.07.08.752,-0.75800,0.76100,-0.33100,21.77000,150.79800,3.36000,0.14900,0.52400,-0.42900,266.10000,-0.66000
011225_15.07.08.763,-0.72700,0.84700,-0.48300,29.12000,159.53000,8.94300,0.15000,0.51600,-0.40900,266.72000,0.62000
011225_15.07.08.775,-0.64600,0.86400,-0.43500,39.70800,164.06200,16.46800,0.15000,0.51600,-0.40900,266.58000,-0.14000
011225_15.07.08.786,-0.34800,0.85900,-0.59800,46.81300,155.82000,20.49300,0.15600,0.51200,-0.38900,265.96000,-0.62000
011225_15.07.08.798,-0.60200,0.81600,-0.72600,54.16200,139.80700,18.49700,0.16000,0.50900,-0.36700,266.22000,0.26000
011225_15.07.08.809,-0.67900,0.86900,-0.68600,58.20500,139.10700,16.95800,0.15400,0.50300,-0.35000,267.13000,0.91000
011225_15.07.08.821,-0.74500,0.81500,-0.76600,58.66000,140.40200,23.03000,0.15400,0.50300,-0.33700,266.64000,-0.49000
011225_15.07.08.832,-0.75800,0.76000,-0.83400,58.25700,150.67500,29.01500,0.15500,0.50200,-0.33700,266.21000,-0.43000
011225_15.07.08.844,-0.75700,0.73900,-0.86900,63.54200,175.15800,42.77000,0.15700,0.49000,-0.30700,266.24000,0.03000
011225_15.07.08.855,-0.69200,0.65700,-0.74400,79.57300,184.04800,48.96500,0.15000,0.48200,-0.28300,266.27000,0.03000
011225_15.07.08.867,-0.46600,0.42100,-0.60800,83.47500,186.09500,51.22200,0.14800,0.47900,-0.25200,266.58000,0.31000
011225_15.07.08.878,-0.40200,0.39200,-0.50600,83.26500,181.47500,47.42500,0.14800,0.47900,-0.25200,266.24000,-0.34000
011225_15.07.08.890,-0.18900,0.51000,-0.62600,80.44800,173.42500,42.71700,0.13700,0.47700,-0.23100,266.06000,-0.18000
011225_15.07.08.901,0.21300,0.59700,-0.56200,73.62200,174.77300,57.83800,0.12700,0.47200,-0.20900,266.61000,0.55000
011225_15.07.08.913,-0.13800,0.37600,-0.84800,72.66000,183.27700,87.37800,0.11700,0.46300,-0.18700,266.23000,-0.38000
011225_15.07.08.924,-0.59900,0.51100,-1.02000,98.22800,199.72700,93.27500,0.10000,0.46000,-0.15400,266.39000,0.16000
011225_15.07.08.936,-0.51100,-0.29600,-0.16500,104.00300,188.87800,77.92700,0.10000,0.46000,-0.15400,266.70000,0.31000
011225_15.07.08.947,-0.23100,0.14300,-0.72200,67.83000,118.89500,29.10300,0.08300,0.45900,-0.13500,266.72000,0.02000
011225_15.07.08.959,-0.08500,0.56100,-0.92100,29.33000,73.85000,6.82500,0.07200,0.46300,-0.12600,266.27000,-0.45000
011225_15.07.08.970,0.05800,0.43100,-0.96600,-1.97700,58.80000,11.70800,0.07300,0.45600,-0.12300,266.48000,0.21000
011225_15.07.08.982,0.22700,0.15800,-1.08700,-4.77800,56.42000,15.15500,0.07100,0.44900,-0.11400,266.50000,0.02000
011225_15.07.08.993,0.11400,0.13600,-1.02700,9.15300,75.96700,23.74700,0.07100,0.44900,-0.11400,266.07000,-0.43000
011225_15.07.09.004,0.11800,0.30400,-1.03400,2.88800,82.95000,27.00300,0.05700,0.44500,-0.10500,266.43000,0.36000
011225_15.07.09.016,0.23400,0.33500,-0.94000,-7.71800,91.56000,31.83300,0.05000,0.43800,-0.09700,266.62000,0.19000
011225_15.07.09.027,0.21800,0.29600,-0.89000,-18.02500,98.21000,36.62700,0.04300,0.42900,-0.07700,266.78000,0.16000
011225_15.07.09.039,0.21700,0.23900,-0.91400,-26.35500,107.39700,37.39700,0.04300,0.42400,-0.06800,266.20000,-0.58000
011225_15.07.09.050,0.31200,0.20800,-0.93700,-37.92300,117.84500,34.45800,0.02600,0.42400,-0.06800,266.68000,0.48000
011225_15.07.09.062,0.39400,0.21900,-0.98100,-50.13800,132.05500,20.94800,0.00700,0.41000,-0.05500,266.72000,0.04000
011225_15.07.09.073,0.37700,0.50300,-0.85000,-63.31500,142.60700,5.26700,-0.01600,0.39800,-0.03600,266.32000,-0.40000
011225_15.07.09.085,0.21300,0.55600,-0.90800,-70.14000,127.29500,14.43800,-0.03900,0.38700,-0.02900,266.40000,0.08000
011225_15.07.09.096,0.29200,0.49900,-0.89000,-74.88200,110.86300,28.96200,-0.03900,0.38700,-0.02900,266.04000,-0.36000
011225_15.07.09.108,0.33300,0.42700,-0.81500,-79.08200,105.91000,33.84500,-0.05900,0.37100,-0.02000,266.57000,0.53000
011225_15.07.09.119,0.31500,0.42300,-0.74400,-84.47300,110.18000,37.45000,-0.07600,0.34600,-0.01200,265.64000,-0.93000
011225_15.07.09.131,0.37100,0.34800,-0.69100,-92.59200,117.14500,50.87300,-0.09400,0.33000,0.00000,265.96000,0.32000
011225_15.07.09.142,0.52200,0.24700,-0.54700,-110.96700,123.58500,56.52500,-0.11600,0.30400,0.00300,266.59000,0.63000
011225_15.07.09.154,0.63500,0.28000,-0.43700,-117.25000,123.72500,60.65500,-0.11600,0.30400,0.00300,266.82000,0.23000
011225_15.07.09.165,0.58000,0.39100,-0.42300,-125.73800,130.16500,65.55500,-0.14600,0.27500,0.00300,266.25000,-0.57000
011225_15.07.09.176,0.56200,0.52400,-0.33000,-138.84500,152.39000,70.52500,-0.16900,0.24600,0.00700,267.01000,0.76000
011225_15.07.09.188,0.81900,0.60500,-0.38400,-142.27500,156.73000,69.03700,-0.20100,0.21900,-0.00400,266.66000,-0.35000
011225_15.07.09.199,0.90200,0.50700,-0.42400,-135.73000,140.17500,72.17000,-0.23400,0.19400,-0.01400,266.65000,-0.01000
011225_15.07.09.211,0.85400,0.44300,-0.37100,-135.59000,134.76800,78.71500,-0.23400,0.19400,-0.01400,265.74000,-0.91000
011225_15.07.09.222,0.72300,0.35200,-0.45200,-132.82500,131.54800,75.25000,-0.26200,0.17000,-0.02700,266.57000,0.83000
011225_15.07.09.234,0.60900,0.44300,-0.40200,-113.50500,134.52300,55.44000,-0.28900,0.15700,-0.03400,267.29000,0.72000
011225_15.07.09.245,0.59300,0.52100,-0.21600,-92.50500,153.70200,35.94500,-0.31600,0.13600,-0.04900,266.40000,-0.89000
011225_15.07.09.257,0.76000,0.50100,0.14900,-85.92500,171.71000,22.68000,-0.34500,0.12600,-0.06200,266.58000,0.18000
011225_15.07.09.268,1.00000,0.48100,0.32500,-89.40800,167.79000,15.73300,-0.34500,0.12600,-0.06200,266.29000,-0.29000
011225_15.07.09.280,1.11100,0.44800,0.24400,-83.61500,134.36500,25.51500,-0.36800,0.11500,-0.07500,266.92000,0.63000
011225_15.07.09.291,0.99200,0.40200,0.15200,-55.03700,119.40300,39.13000,-0.39200,0.10800,-0.08800,266.45000,-0.47000
011225_15.07.09.303,0.90500,0.46800,0.21700,-48.28300,120.89000,53.97000,-0.41700,0.10300,-0.10300,267.14000,0.69000
011225_15.07.09.314,0.89600,0.45600,0.29600,-54.04000,127.90800,62.75500,-0.41700,0.10300,-0.10300,266.72000,-0.42000
011225_15.07.09.326,0.84400,0.45600,0.31100,-61.25000,133.57700,66.23800,-0.43800,0.09800,-0.12000,266.52000,-0.20000
011225_15.07.09.337,0.75700,0.31000,0.41100,-77.35000,146.24700,64.83800,-0.46800,0.09600,-0.13600,266.93000,0.41000
011225_15.07.09.349,0.59700,0.38100,0.36600,-113.47000,171.16700,54.56500,-0.49000,0.09400,-0.16300,266.97000,0.04000
011225_15.07.09.360,0.73600,0.55700,0.35900,-115.06300,174.35200,44.03000,-0.51200,0.09400,-0.18900,266.27000,-0.70000
011225_15.07.09.372,1.08600,0.20600,0.40600,-109.84800,166.56500,44.64300,-0.51200,0.09400,-0.18900,266.80000,0.53000
011225_15.07.09.383,1.02000,0.04200,0.38400,-120.03300,157.32500,43.17300,-0.53100,0.08000,-0.22200,266.62000,-0.18000
011225_15.07.09.395,0.72700,0.14300,0.46800,-132.58000,160.91300,43.76800,-0.55000,0.08100,-0.25800,266.57000,-0.05000
011225_15.07.09.406,0.72400,0.13900,0.52900,-139.42300,168.35000,44.95800,-0.56200,0.07900,-0.29700,266.54000,-0.03000
011225_15.07.09.418,0.71700,0.04500,0.57500,-136.93700,166.96700,43.52200,-0.57100,0.08100,-0.33900,267.03000,0.49000
011225_15.07.09.429,0.67500,0.00800,0.60800,-136.64000,163.83500,46.81300,-0.57100,0.08100,-0.33900,266.72000,-0.31000
011225_15.07.09.440,0.62100,0.20400,0.65200,-132.80700,151.90000,47.68800,-0.57800,0.09100,-0.37600,266.47000,-0.25000
011225_15.07.09.452,0.58800,0.16500,0.74400,-117.82700,124.95000,47.26800,-0.58800,0.09200,-0.41200,266.46000,-0.01000
011225_15.07.09.463,0.49700,0.14700,0.70900,-109.49700,107.50300,48.40500,-0.58900,0.10700,-0.43800,266.91000,0.45000
011225_15.07.09.475,0.39100,0.07400,0.72700,-99.13700,92.08500,44.41500,-0.59100,0.11600,-0.46100,266.23000,-0.68000
011225_15.07.09.486,0.30000,-0.01700,0.74300,-93.25700,83.38700,37.20500,-0.59100,0.11600,-0.46100,266.50000,0.27000
011225_15.07.09.498,0.20900,-0.07000,0.76400,-95.58500,82.18000,27.16000,-0.59200,0.12400,-0.48000,265.79000,-0.71000
011225_15.07.09.509,0.24300,-0.10800,0.79500,-101.48200,83.73800,15.34700,-0.58600,0.13100,-0.51100,266.33000,0.54000
011225_15.07.09.521,0.24600,-0.14500,0.79300,-105.00000,81.86500,5.88000,-0.58300,0.13700,-0.53700,267.22000,0.89000
011225_15.07.09.532,0.26900,-0.16300,0.82000,-102.27000,75.67000,-1.24200,-0.58300,0.13700,-0.53700,266.47000,-0.75000
011225_15.07.09.544,0.20400,-0.24400,0.78700,-92.55800,67.39300,-5.00500,-0.57600,0.14700,-0.54600,267.31000,0.84000
011225_15.07.09.555,0.20200,-0.31200,0.79200,-81.02500,58.17000,-6.91200,-0.57100,0.14700,-0.55200,266.81000,-0.50000
011225_15.07.09.567,0.11000,-0.39300,0.74800,-70.71700,50.22500,-6.33500,-0.56300,0.15500,-0.56900,266.77000,-0.04000
011225_15.07.09.578,0.14000,-0.41200,0.82700,-60.76000,40.05700,-5.79300,-0.56100,0.16400,-0.57900,266.16000,-0.61000
011225_15.07.09.590,0.17100,-0.34300,0.80000,-54.60000,31.06200,-3.85000,-0.56100,0.16400,-0.57900,266.17000,0.01000
011225_15.07.09.601,0.15400,-0.38000,0.82300,-47.00500,23.13500,-4.00800,-0.55700,0.17100,-0.58700,266.56000,0.39000
011225_15.07.09.613,0.18800,-0.42500,0.83700,-39.07700,16.38000,-8.10200,-0.55500,0.17400,-0.58800,266.74000,0.18000
011225_15.07.09.624,0.22900,-0.45400,0.85200,-29.13800,10.23800,-13.72000,-0.55000,0.17200,-0.60000,266.10000,-0.64000
011225_15.07.09.636,0.25600,-0.47100,0.87800,-17.37800,3.88500,-18.86500,-0.55000,0.17200,-0.59300,265.92000,-0.18000
011225_15.07.09.647,0.27700,-0.47600,0.91100,-4.39200,-3.48300,-23.53800,-0.55000,0.17200,-0.59300,266.22000,0.30000
011225_15.07.09.659,0.29500,-0.44800,0.96300,10.30700,-10.90300,-28.17500,-0.54800,0.17000,-0.59000,266.51000,0.29000
011225_15.07.09.670,0.33600,-0.38900,1.00400,26.98500,-18.67300,-32.95200,-0.54600,0.15400,-0.57900,266.39000,-0.12000
011225_15.07.09.682,0.37300,-0.38200,0.99800,47.02200,-28.33300,-35.87500,-0.54800,0.14200,-0.57400,266.79000,0.40000
011225_15.07.09.693,0.40900,-0.38800,1.00700,69.47500,-39.48000,-37.18800,-0.55000,0.13000,-0.55900,266.54000,-0.25000
011225_15.07.09.705,0.43800,-0.35200,1.02500,90.47500,-49.89300,-37.66000,-0.55000,0.13000,-0.55900,266.15000,-0.39000
011225_15.07.09.716,0.46500,-0.27800,1.03700,109.28700,-73.76200,-32.46300,-0.55100,0.11800,-0.53600,266.52000,0.37000
011225_15.07.09.728,0.52400,-0.23000,1.11500,140.98000,-88.81300,-28.54200,-0.55200,0.09800,-0.50700,266.29000,-0.23000
011225_15.07.09.739,0.64600,-0.20700,1.09900,149.67800,-109.56700,-24.02800,-0.56000,0.09000,-0.47700,266.50000,0.21000
011225_15.07.09.751,0.66600,-0.14500,1.14000,152.12800,-131.19700,-20.33500,-0.56000,0.09000,-0.43400,267.12000,0.62000
011225_15.07.09.762,0.61900,-0.10800,1.04400,149.06500,-152.63500,-14.92700,-0.56300,0.08400,-0.43400,266.21000,-0.91000
011225_15.07.09.774,0.67200,0.01600,1.05900,147.61300,-171.09800,-10.29000,-0.56800,0.08000,-0.39700,266.15000,-0.06000
011225_15.07.09.785,0.73300,0.07100,1.16700,151.65500,-191.59000,-4.25300,-0.57000,0.08400,-0.35300,266.51000,0.36000
011225_15.07.09.797,0.74700,0.01600,1.14800,158.39300,-208.67000,1.24200,-0.56800,0.08600,-0.30100,266.74000,0.23000
011225_15.07.09.808,0.92000,-0.04200,0.96300,166.60000,-214.35700,2.11800,-0.56800,0.08600,-0.30100,266.88000,0.14000
011225_15.07.09.820,1.04000,-0.06200,0.82000,172.46200,-211.82000,-0.43700,-0.56600,0.09500,-0.25800,266.74000,-0.14000
011225_15.07.09.831,1.02100,-0.08000,0.68100,170.27500,-204.13700,-4.97000,-0.55100,0.11000,-0.20900,266.82000,0.08000
011225_15.07.09.843,0.94200,-0.13100,0.40600,153.82500,-186.39300,-16.73000,-0.53300,0.11700,-0.17400,266.36000,-0.46000
011225_15.07.09.854,0.89900,-0.01100,0.43600,123.27000,-156.31000,-38.83300,-0.51900,0.12200,-0.15300,266.42000,0.06000
011225_15.07.09.866,0.90500,0.07200,0.52900,84.59500,-159.54800,-71.08500,-0.51900,0.12200,-0.15300,266.23000,-0.19000
011225_15.07.09.877,0.83200,0.24400,0.40200,72.01200,-176.78500,-81.00700,-0.49600,0.12000,-0.12900,266.83000,0.60000
011225_15.07.09.889,0.86300,0.22700,0.52500,67.20000,-188.52700,-85.41800,-0.46200,0.12200,-0.09900,266.43000,-0.40000
011225_15.07.09.900,0.91300,0.16300,0.56500,70.40300,-188.16000,-84.21000,-0.43000,0.12500,-0.08100,266.39000,-0.04000
011225_15.07.09.912,0.79800,0.10700,0.46400,74.35700,-170.53800,-77.59500,-0.39600,0.12600,-0.06300,266.37000,-0.02000
011225_15.07.09.923,0.39600,-0.02700,0.27600,67.53300,-136.85000,-67.86500,-0.39600,0.12600,-0.06300,266.48000,0.11000
011225_15.07.09.935,0.65600,0.00300,0.09200,49.01800,-95.48000,-53.76000,-0.37400,0.13400,-0.05000,266.03000,-0.45000
011225_15.07.09.946,1.02200,0.23300,0.00700,35.75200,-69.91200,-31.44800,-0.36200,0.13600,-0.05000,266.91000,0.88000
011225_15.07.09.958,1.10500,0.54000,-0.00300,30.27500,-68.68800,-13.44000,-0.34900,0.14500,-0.03600,267.02000,0.11000
011225_15.07.09.969,0.87200,0.69200,-0.08700,30.62500,-83.17700,-12.82800,-0.34900,0.14400,-0.02800,266.57000,-0.45000
011225_15.07.09.981,0.64300,0.66700,-0.15700,33.67000,-96.81000,-32.09500,-0.33600,0.14400,-0.02800,265.87000,-0.70000
011225_15.07.09.992,0.57300,0.45900,-0.31300,36.40000,-100.38000,-64.90800,-0.31400,0.15000,-0.02100,266.71000,0.84000
011225_15.07.10.004,0.79600,0.43600,-0.12600,37.06500,-95.09500,-90.40500,-0.28500,0.15200,-0.02300,266.70000,-0.01000
011225_15.07.10.015,0.70200,0.53500,-0.02200,18.95200,-114.06500,-97.28300,-0.26100,0.15400,-0.02000,266.53000,-0.17000
011225_15.07.10.027,0.66900,0.42300,-0.23500,19.72200,-117.89700,-97.87800,-0.26100,0.15400,-0.02000,266.84000,0.31000
011225_15.07.10.038,0.64100,0.45200,-0.33600,25.55000,-120.66200,-93.03000,-0.23400,0.15700,-0.02100,266.48000,-0.36000
011225_15.07.10.049,0.57900,0.49200,-0.41700,35.43800,-126.94500,-86.38000,-0.20200,0.16200,-0.02300,266.81000,0.33000
011225_15.07.10.061,0.13700,0.46100,-0.64200,44.53700,-126.12200,-73.25500,-0.17400,0.17400,-0.03000,266.92000,0.11000
011225_15.07.10.073,0.81900,0.33700,-0.56200,51.25700,-114.90500,-46.16500,-0.15300,0.18400,-0.02000,266.37000,-0.55000
011225_15.07.10.084,0.90600,0.47900,-0.50100,54.56500,-141.73200,-24.57000,-0.15300,0.18400,-0.02000,266.25000,-0.12000
011225_15.07.10.096,0.63800,0.68900,-0.47900,55.96500,-171.18500,-28.50700,-0.11800,0.19300,-0.03600,266.35000,0.10000
011225_15.07.10.107,0.46500,0.58600,-0.49400,54.89700,-177.04800,-48.65000,-0.08700,0.20500,-0.03600,266.27000,-0.08000
011225_15.07.10.119,0.56800,0.57400,-0.67500,45.04500,-168.64800,-59.34200,-0.05600,0.21600,-0.04600,266.48000,0.21000
011225_15.07.10.130,0.47300,0.57200,-0.75000,41.21300,-170.38000,-61.54800,-0.02700,0.22700,-0.06100,266.63000,0.15000
011225_15.07.10.142,0.44100,0.43100,-0.89100,54.42500,-189.52500,-59.71000,-0.02700,0.22700,-0.06100,266.77000,0.14000
011225_15.07.10.153,0.36400,0.40900,-0.70900,81.93500,-206.37800,-12.75700,0.00800,0.25000,-0.07900,267.12000,0.35000
011225_15.07.10.165,0.57800,0.30500,-0.50000,86.55500,-211.43500,8.27800,0.03700,0.26100,-0.09700,266.82000,-0.30000
011225_15.07.10.176,0.47000,0.46000,-0.87200,100.03000,-220.30700,3.48300,0.06900,0.27300,-0.11700,266.49000,-0.33000
011225_15.07.10.188,0.24600,0.52200,-0.92800,107.41500,-207.04200,-10.20300,0.08900,0.29100,-0.13000,266.28000,-0.21000
011225_15.07.10.199,0.10700,0.66800,-0.85900,69.17700,-167.86000,-15.96000,0.08900,0.29100,-0.13000,266.40000,0.12000
011225_15.07.10.211,0.12400,0.59300,-0.76900,10.57000,-128.50300,-23.24000,0.10400,0.29400,-0.15600,266.92000,0.52000
011225_15.07.10.222,0.24600,0.45900,-0.79900,-11.90000,-118.14300,-43.34700,0.11600,0.30500,-0.17400,266.53000,-0.39000
011225_15.07.10.234,0.09100,0.39300,-0.75500,-6.07300,-120.71500,-67.21700,0.13200,0.32100,-0.19900,266.71000,0.18000
011225_15.07.10.245,-0.05500,0.35300,-0.66900,-0.94500,-117.07500,-79.25700,0.13200,0.32100,-0.19900,266.57000,-0.14000
