timestamp,ax,ay,az,gx,gy,gz,mx,my,mz,altitude,relative_altitude
041225_04.33.19.101,-0.02100,-0.00300,1.00200,0.08700,-0.14000,-0.01800,0.54400,0.45800,-1.31000,79.72000,0.00000
041225_04.33.19.113,-0.02200,-0.00300,1.00300,0.10500,-0.17500,0.01800,0.55200,0.45800,-1.31000,79.33000,-0.39000
041225_04.33.19.125,-0.02200,-0.00200,1.00400,0.12300,-0.15700,0.00000,0.55100,0.45900,-1.30900,79.75000,0.42000
041225_04.33.19.136,-0.02000,-0.00300,1.00000,0.10500,-0.12300,-0.03500,0.54900,0.45900,-1.31800,79.55000,-0.20000
041225_04.33.19.148,-0.02200,-0.00200,1.00300,0.10500,-0.12300,-0.01800,0.55100,0.45800,-1.31100,80.17000,0.62000
041225_04.33.19.160,-0.02100,-0.00200,1.00200,0.10500,-0.12300,-0.01800,0.55100,0.45800,-1.31100,79.63000,-0.54000
041225_04.33.19.171,-0.02000,-0.00100,1.00100,0.08700,-0.12300,-0.01800,0.55300,0.45700,-1.30900,78.92000,-0.71000
041225_04.33.19.183,-0.02100,-0.00200,1.00400,0.10500,-0.10500,-0.03500,0.55600,0.45800,-1.31000,79.18000,0.26000
041225_04.33.19.194,-0.02100,-0.00300,1.00000,0.08700,-0.10500,-0.03500,0.56100,0.45800,-1.31400,79.64000,0.46000
041225_04.33.19.206,-0.02200,-0.00300,1.00200,0.08700,-0.08700,-0.03500,0.56100,0.45700,-1.31800,79.07000,-0.57000
041225_04.33.19.218,-0.02300,-0.00200,1.00100,0.10500,-0.10500,-0.03500,0.56100,0.45700,-1.31800,80.07000,1.00000
041225_04.33.19.230,-0.02100,-0.00200,0.99900,0.07000,-0.10500,-0.03500,0.56500,0.45600,-1.31500,80.03000,-0.04000
041225_04.33.19.242,-0.02100,-0.00100,1.00200,0.08700,-0.08700,-0.01800,0.56600,0.45700,-1.31700,80.19000,0.16000
041225_04.33.19.254,-0.02100,-0.00400,0.99900,0.08700,-0.10500,-0.05300,0.56500,0.45900,-1.32400,80.00000,-0.19000
041225_04.33.19.265,-0.02200,-0.00300,1.00000,0.10500,-0.14000,-0.03500,0.56500,0.45900,-1.32400,79.69000,-0.31000
041225_04.33.19.277,-0.02200,-0.00400,0.99900,0.10500,-0.14000,-0.03500,0.55800,0.45700,-1.32100,78.93000,-0.76000
041225_04.33.19.289,-0.02300,-0.00400,1.00100,0.08700,-0.15700,-0.03500,0.56100,0.45300,-1.31200,79.76000,0.83000
041225_04.33.19.300,-0.02200,-0.00300,1.00100,0.10500,-0.14000,-0.03500,0.55600,0.45400,-1.31800,79.28000,-0.48000
041225_04.33.19.312,-0.02200,-0.00400,1.00100,0.08700,-0.15700,-0.03500,0.56000,0.45900,-1.31300,80.01000,0.73000
041225_04.33.19.324,-0.02100,-0.00300,1.00300,0.10500,-0.14000,-0.05300,0.56000,0.45900,-1.31300,79.35000,-0.66000
041225_04.33.19.335,-0.02100,-0.00300,1.00100,0.08700,-0.14000,-0.03500,0.55300,0.45600,-1.31800,79.10000,-0.25000
041225_04.33.19.347,-0.02100,-0.00400,1.00300,0.08700,-0.14000,-0.01800,0.54500,0.45900,-1.31800,79.35000,0.25000
041225_04.33.19.358,-0.02200,-0.00300,1.00500,0.08700,-0.15700,-0.03500,0.54800,0.45700,-1.31300,79.66000,0.31000
041225_04.33.19.370,-0.02100,-0.00200,0.99900,0.10500,-0.14000,-0.01800,0.54800,0.45700,-1.31300,79.31000,-0.35000
041225_04.33.19.381,-0.02200,-0.00300,1.00400,0.10500,-0.10500,-0.01800,0.54800,0.45400,-1.31800,79.45000,0.14000
041225_04.33.19.393,-0.02000,-0.00300,1.00000,0.10500,-0.14000,-0.01800,0.54400,0.46000,-1.31600,79.24000,-0.21000
041225_04.33.19.405,-0.02200,-0.00300,1.00300,0.05300,-0.12300,-0.01800,0.54400,0.45600,-1.31000,79.68000,0.44000
041225_04.33.19.416,-0.02100,-0.00300,1.00200,0.08700,-0.12300,-0.01800,0.55100,0.45500,-1.31000,79.69000,0.01000
041225_04.33.19.428,-0.02000,-0.00100,1.00000,0.10500,-0.12300,-0.01800,0.55100,0.45500,-1.31000,79.91000,0.22000
041225_04.33.19.439,-0.02200,-0.00300,1.00400,0.10500,-0.12300,-0.03500,0.55100,0.45700,-1.31100,80.12000,0.21000
041225_04.33.19.451,-0.02100,-0.00200,1.00300,0.08700,-0.14000,-0.01800,0.55900,0.45600,-1.31400,79.68000,-0.44000
041225_04.33.19.463,-0.02200,-0.00100,1.00300,0.07000,-0.12300,0.00000,0.55600,0.45100,-1.31800,80.21000,0.53000
041225_04.33.19.474,-0.02200,-0.00200,1.00200,0.08700,-0.12300,0.00000,0.55900,0.45500,-1.32100,80.13000,-0.08000
041225_04.33.19.486,-0.02200,-0.00200,1.00400,0.08700,-0.10500,0.00000,0.55900,0.45500,-1.32100,79.64000,-0.49000
041225_04.33.19.497,-0.02100,-0.00200,1.00300,0.08700,-0.12300,-0.01800,0.56600,0.45400,-1.32100,79.62000,-0.02000
041225_04.33.19.509,-0.02200,-0.00200,1.00000,0.10500,-0.10500,-0.01800,0.57000,0.45100,-1.32400,79.38000,-0.24000
041225_04.33.19.520,-0.02300,-0.00300,1.00500,0.08700,-0.10500,-0.03500,0.55900,0.45300,-1.31600,79.41000,0.03000
041225_04.33.19.531,-0.02200,-0.00200,1.00400,0.08700,-0.12300,-0.05300,0.55900,0.45300,-1.31600,79.38000,-0.03000
041225_04.33.19.543,-0.02100,-0.00200,1.00300,0.08700,-0.12300,-0.03500,0.56200,0.45200,-1.31900,79.07000,-0.31000
041225_04.33.19.554,-0.02300,-0.00200,1.00400,0.07000,-0.12300,-0.01800,0.55700,0.45600,-1.30900,79.32000,0.25000
041225_04.33.19.566,-0.02200,-0.00100,1.00100,0.07000,-0.08700,-0.03500,0.56100,0.45500,-1.31800,79.62000,0.30000
041225_04.33.19.577,-0.02200,-0.00200,1.00600,0.08700,-0.12300,-0.03500,0.55700,0.45600,-1.31900,79.53000,-0.09000
041225_04.33.19.589,-0.02100,-0.00200,1.00300,0.08700,-0.12300,-0.03500,0.55700,0.45600,-1.31900,79.33000,-0.20000
041225_04.33.19.601,-0.02200,-0.00100,1.00200,0.08700,-0.12300,-0.01800,0.55800,0.45600,-1.30900,79.80000,0.47000
041225_04.33.19.612,-0.02200,-0.00300,1.00400,0.07000,-0.12300,-0.03500,0.55500,0.45400,-1.30500,79.77000,-0.03000
041225_04.33.19.624,-0.02100,-0.00100,1.00500,0.08700,-0.12300,-0.01800,0.55000,0.45400,-1.30700,79.62000,-0.15000
041225_04.33.19.635,-0.02100,-0.00200,1.00200,0.08700,-0.12300,-0.01800,0.55000,0.45400,-1.30700,79.68000,0.06000
041225_04.33.19.647,-0.02200,-0.00200,1.00100,0.08700,-0.14000,-0.03500,0.54600,0.45400,-1.31500,79.29000,-0.39000
041225_04.33.19.658,-0.02100,-0.00300,1.00300,0.07000,-0.08700,-0.01800,0.54500,0.45200,-1.31400,80.22000,0.93000
041225_04.33.19.669,-0.02000,-0.00300,1.00200,0.10500,-0.14000,-0.03500,0.54600,0.45400,-1.31100,80.24000,0.02000
041225_04.33.19.681,-0.02200,-0.00300,1.00300,0.10500,-0.12300,-0.03500,0.54800,0.45900,-1.31100,80.14000,-0.10000
041225_04.33.19.692,-0.02100,-0.00300,1.00300,0.08700,-0.14000,-0.03500,0.54800,0.45900,-1.31100,79.37000,-0.77000
041225_04.33.19.704,-0.02000,-0.00200,0.99900,0.07000,-0.12300,-0.03500,0.54900,0.45500,-1.31200,80.25000,0.88000
041225_04.33.19.715,-0.02000,-0.00300,1.00200,0.08700,-0.10500,-0.01800,0.55200,0.45700,-1.31300,79.55000,-0.70000
041225_04.33.19.727,-0.02000,-0.00400,1.00100,0.10500,-0.12300,-0.01800,0.55700,0.45700,-1.31300,80.00000,0.45000
041225_04.33.19.738,-0.02000,-0.00200,1.00100,0.10500,-0.12300,-0.01800,0.55700,0.45700,-1.30800,79.74000,-0.26000
041225_04.33.19.750,-0.02100,-0.00300,1.00200,0.08700,-0.14000,-0.01800,0.55400,0.45300,-1.30800,79.37000,-0.37000
041225_04.33.19.761,-0.01900,-0.00200,0.99900,0.10500,-0.12300,-0.01800,0.56300,0.45600,-1.31700,80.43000,1.06000
041225_04.33.19.773,-0.02000,-0.00300,1.00400,0.08700,-0.10500,-0.01800,0.55900,0.45500,-1.31500,79.87000,-0.56000
041225_04.33.19.785,-0.02000,-0.00300,1.00100,0.08700,-0.10500,-0.03500,0.56400,0.45700,-1.31500,80.24000,0.37000
041225_04.33.19.796,-0.02000,-0.00400,1.00200,0.08700,-0.08700,-0.01800,0.56400,0.45700,-1.31500,79.79000,-0.45000
041225_04.33.19.808,-0.01900,-0.00200,1.00000,0.10500,-0.10500,-0.01800,0.56600,0.46100,-1.31100,79.58000,-0.21000
041225_04.33.19.820,-0.02100,-0.00200,1.00300,0.07000,-0.10500,-0.01800,0.57000,0.45800,-1.31400,79.80000,0.22000
041225_04.33.19.831,-0.02200,-0.00200,1.00200,0.08700,-0.10500,-0.01800,0.56500,0.46000,-1.31900,79.36000,-0.44000
041225_04.33.19.843,-0.02100,-0.00200,1.00100,0.08700,-0.08700,-0.03500,0.55900,0.45800,-1.31500,79.80000,0.44000
041225_04.33.19.854,-0.02200,-0.00300,1.00300,0.10500,-0.10500,-0.01800,0.55900,0.45800,-1.31500,79.71000,-0.09000
041225_04.33.19.866,-0.02100,-0.00100,1.00200,0.10500,-0.10500,-0.01800,0.55600,0.46400,-1.31200,80.17000,0.46000
041225_04.33.19.877,-0.02200,-0.00100,1.00300,0.12300,-0.10500,-0.01800,0.55800,0.45900,-1.30800,80.19000,0.02000
041225_04.33.19.888,-0.02200,-0.00200,1.00400,0.10500,-0.12300,-0.01800,0.55400,0.46000,-1.30900,79.88000,-0.31000
041225_04.33.19.900,-0.02100,-0.00200,1.00100,0.14000,-0.12300,-0.01800,0.55400,0.46000,-1.30900,79.68000,-0.20000
041225_04.33.19.911,-0.02200,-0.00300,1.00400,0.12300,-0.12300,-0.01800,0.54700,0.46300,-1.31400,79.38000,-0.30000
041225_04.33.19.923,-0.02300,-0.00300,1.00400,0.12300,-0.10500,-0.01800,0.55100,0.46000,-1.31200,79.55000,0.17000
041225_04.33.19.934,-0.02300,-0.00200,1.00200,0.10500,-0.10500,-0.03500,0.55700,0.45700,-1.30800,79.72000,0.17000
041225_04.33.19.946,-0.02200,-0.00300,1.00500,0.12300,-0.12300,-0.03500,0.54700,0.46100,-1.31300,79.30000,-0.42000
041225_04.33.19.957,-0.02200,-0.00200,1.00200,0.10500,-0.12300,-0.01800,0.54700,0.46100,-1.31300,80.25000,0.95000
041225_04.33.19.969,-0.02200,-0.00200,1.00400,0.10500,-0.10500,-0.03500,0.54800,0.45500,-1.31700,79.96000,-0.29000
041225_04.33.19.980,-0.02100,-0.00300,1.00000,0.08700,-0.14000,-0.03500,0.54800,0.45700,-1.31400,79.72000,-0.24000
041225_04.33.19.992,-0.02300,-0.00100,1.00400,0.08700,-0.14000,-0.01800,0.55200,0.45700,-1.31500,79.81000,0.09000
041225_04.33.20.004,-0.02000,-0.00200,1.00200,0.08700,-0.14000,-0.01800,0.55200,0.45700,-1.31500,79.77000,-0.04000
041225_04.33.20.015,-0.02300,-0.00300,1.00200,0.08700,-0.12300,-0.03500,0.55500,0.45500,-1.31800,79.95000,0.18000
041225_04.33.20.027,-0.02300,-0.00200,1.00200,0.10500,-0.08700,-0.03500,0.55800,0.45600,-1.32400,79.38000,-0.57000
041225_04.33.20.038,-0.02000,-0.00200,1.00100,0.07000,-0.14000,-0.01800,0.56200,0.45600,-1.32200,79.34000,-0.04000
041225_04.33.20.050,-0.02200,-0.00200,1.00400,0.08700,-0.14000,-0.03500,0.56300,0.45400,-1.32100,79.93000,0.59000
041225_04.33.20.062,-0.02100,-0.00200,1.00100,0.07000,-0.14000,-0.05300,0.56300,0.45400,-1.32100,79.92000,-0.01000
041225_04.33.20.073,-0.02100,-0.00100,1.00100,0.07000,-0.14000,-0.03500,0.56800,0.45400,-1.32200,80.03000,0.11000
041225_04.33.20.085,-0.02300,-0.00300,1.00400,0.07000,-0.12300,-0.03500,0.56400,0.45700,-1.32100,79.53000,-0.50000
041225_04.33.20.096,-0.02100,-0.00000,1.00100,0.08700,-0.15700,-0.03500,0.55900,0.45000,-1.31900,79.36000,-0.17000
041225_04.33.20.107,-0.02100,-0.00200,1.00200,0.10500,-0.14000,-0.01800,0.56900,0.45100,-1.31300,79.95000,0.59000
041225_04.33.20.119,-0.02100,-0.00100,1.00100,0.08700,-0.15700,-0.05300,0.56900,0.45100,-1.31300,80.46000,0.51000
041225_04.33.20.130,-0.02300,-0.00100,1.00000,0.10500,-0.12300,-0.01800,0.56100,0.45500,-1.31600,79.64000,-0.82000
041225_04.33.20.142,-0.02300,-0.00200,1.00200,0.08700,-0.15700,-0.03500,0.56200,0.45900,-1.32500,79.61000,-0.03000
041225_04.33.20.153,-0.02200,-0.00100,1.00100,0.10500,-0.14000,-0.03500,0.55700,0.45900,-1.32200,79.76000,0.15000
041225_04.33.20.165,-0.02100,-0.00300,1.00400,0.10500,-0.12300,-0.01800,0.55700,0.45900,-1.32200,80.44000,0.68000
041225_04.33.20.176,-0.02100,-0.00100,1.00000,0.10500,-0.12300,-0.01800,0.55400,0.45500,-1.31600,79.90000,-0.54000
041225_04.33.20.188,-0.02200,-0.00200,1.00400,0.12300,-0.14000,0.00000,0.55100,0.45800,-1.31600,79.31000,-0.59000
041225_04.33.20.200,-0.02200,-0.00300,1.00200,0.10500,-0.14000,-0.01800,0.55200,0.45800,-1.31600,79.24000,-0.07000
041225_04.33.20.211,-0.02200,-0.00300,1.00300,0.12300,-0.12300,0.00000,0.54300,0.46200,-1.31700,79.67000,0.43000
041225_04.33.20.223,-0.02300,-0.00300,1.00400,0.10500,-0.14000,-0.03500,0.54300,0.46200,-1.31700,79.31000,-0.36000
041225_04.33.20.234,-0.02000,-0.00200,1.00200,0.08700,-0.14000,-0.01800,0.54300,0.45800,-1.30600,80.03000,0.72000
041225_04.33.20.246,-0.02200,-0.00300,1.00400,0.10500,-0.14000,-0.01800,0.54300,0.45500,-1.31000,80.30000,0.27000
041225_04.33.20.257,-0.02100,-0.00200,1.00300,0.10500,-0.12300,-0.03500,0.54700,0.45400,-1.31600,79.77000,-0.53000
041225_04.33.20.269,-0.02100,-0.00200,1.00000,0.08700,-0.12300,-0.03500,0.54700,0.45400,-1.31600,79.65000,-0.12000
041225_04.33.20.280,-0.02400,-0.00300,1.00300,0.08700,-0.12300,-0.05300,0.54300,0.45500,-1.31400,79.67000,0.02000
041225_04.33.20.292,-0.02100,-0.00200,1.00000,0.08700,-0.14000,-0.01800,0.55200,0.45300,-1.31800,79.14000,-0.53000
041225_04.33.20.303,-0.02000,-0.00200,1.00100,0.10500,-0.15700,-0.01800,0.56200,0.45600,-1.31700,79.40000,0.26000
041225_04.33.20.315,-0.02200,-0.00100,1.00000,0.08700,-0.15700,-0.03500,0.56000,0.45700,-1.31000,79.39000,-0.01000
041225_04.33.20.326,-0.02000,-0.00300,1.00300,0.08700,-0.14000,-0.03500,0.56000,0.45700,-1.31000,79.54000,0.15000
041225_04.33.20.338,-0.02100,-0.00300,1.00100,0.10500,-0.15700,-0.05300,0.56200,0.45600,-1.31300,79.47000,-0.07000
041225_04.33.20.349,-0.02100,-0.00200,1.00200,0.10500,-0.14000,-0.05300,0.56300,0.45500,-1.31100,79.46000,-0.01000
041225_04.33.20.361,-0.01900,-0.00300,1.00400,0.10500,-0.15700,-0.01800,0.56100,0.45300,-1.31300,79.13000,-0.33000
041225_04.33.20.373,-0.01800,-0.00100,1.00000,0.10500,-0.15700,-0.01800,0.56100,0.45700,-1.31700,79.39000,0.26000
041225_04.33.20.384,-0.01800,-0.00300,1.00100,0.08700,-0.14000,-0.03500,0.56400,0.45700,-1.31700,79.51000,0.12000
041225_04.33.20.396,-0.02000,-0.00300,1.00200,0.08700,-0.14000,-0.05300,0.55600,0.45800,-1.31600,79.61000,0.10000
041225_04.33.20.407,-0.01800,-0.00300,1.00000,0.10500,-0.12300,-0.03500,0.55600,0.45900,-1.31600,79.78000,0.17000
041225_04.33.20.419,-0.02000,-0.00200,1.00500,0.08700,-0.12300,-0.03500,0.55500,0.45900,-1.31300,79.27000,-0.51000
041225_04.33.20.430,-0.01800,-0.00200,1.00000,0.10500,-0.12300,-0.03500,0.55500,0.45900,-1.31300,80.00000,0.73000
041225_04.33.20.442,-0.01800,-0.00300,1.00300,0.10500,-0.10500,-0.01800,0.55600,0.45800,-1.31000,79.82000,-0.18000
041225_04.33.20.454,-0.01800,-0.00300,1.00500,0.08700,-0.08700,-0.03500,0.55100,0.46100,-1.31100,79.97000,0.15000
041225_04.33.20.465,-0.01800,0.00000,0.99800,0.08700,-0.08700,-0.01800,0.54600,0.46300,-1.31400,79.23000,-0.74000
041225_04.33.20.477,-0.01900,-0.00100,1.00800,0.07000,-0.07000,-0.03500,0.54600,0.45800,-1.31600,80.21000,0.98000
041225_04.33.20.488,-0.02100,0.00200,1.00100,0.08700,-0.10500,-0.03500,0.54600,0.45800,-1.31600,79.59000,-0.62000
041225_04.33.20.500,-0.02100,-0.00300,1.00200,0.10500,-0.10500,-0.01800,0.54600,0.46000,-1.31100,79.51000,-0.08000
041225_04.33.20.512,-0.02000,-0.00100,1.00200,0.10500,-0.10500,-0.03500,0.54400,0.45800,-1.31200,79.70000,0.19000
041225_04.33.20.523,-0.02100,-0.00200,1.00300,0.07000,-0.10500,0.00000,0.54600,0.45900,-1.32000,79.66000,-0.04000
041225_04.33.20.535,-0.02300,-0.00300,1.00200,0.10500,-0.10500,-0.01800,0.54600,0.45900,-1.32000,79.67000,0.01000
041225_04.33.20.546,-0.02100,-0.00200,1.00000,0.07000,-0.10500,-0.03500,0.54400,0.45600,-1.31400,79.86000,0.19000
041225_04.33.20.557,-0.02200,-0.00300,1.00600,0.07000,-0.08700,0.00000,0.54400,0.45700,-1.31500,79.42000,-0.44000
041225_04.33.20.569,-0.02100,-0.00200,1.00000,0.10500,-0.08700,-0.01800,0.55400,0.45800,-1.31800,80.56000,1.14000
041225_04.33.20.580,-0.02400,-0.00200,1.00300,0.08700,-0.08700,-0.01800,0.55400,0.45600,-1.32100,80.03000,-0.53000
041225_04.33.20.592,-0.02500,-0.00300,1.00400,0.08700,-0.10500,-0.03500,0.55400,0.45600,-1.32100,79.80000,-0.23000
041225_04.33.20.603,-0.02300,-0.00200,1.00100,0.12300,-0.08700,-0.01800,0.56200,0.45600,-1.31900,79.67000,-0.13000
041225_04.33.20.615,-0.02400,-0.00300,1.00500,0.10500,-0.08700,-0.03500,0.55700,0.45500,-1.31200,80.15000,0.48000
041225_04.33.20.626,-0.02400,-0.00300,1.00100,0.07000,-0.10500,-0.03500,0.56100,0.45600,-1.31400,79.72000,-0.43000
041225_04.33.20.638,-0.02500,-0.00200,1.00300,0.08700,-0.10500,-0.01800,0.56100,0.45600,-1.31600,80.25000,0.53000
041225_04.33.20.649,-0.02600,-0.00200,1.00500,0.10500,-0.12300,-0.03500,0.56300,0.45600,-1.31600,79.45000,-0.80000
041225_04.33.20.661,-0.02400,-0.00400,1.00400,0.08700,-0.10500,-0.03500,0.56400,0.45500,-1.32100,79.94000,0.49000
041225_04.33.20.672,-0.02500,-0.00300,1.00200,0.08700,-0.14000,-0.03500,0.56100,0.45600,-1.31200,79.56000,-0.38000
041225_04.33.20.683,-0.02500,-0.00200,1.00100,0.08700,-0.14000,-0.03500,0.55800,0.45500,-1.31000,80.01000,0.45000
041225_04.33.20.695,-0.02500,-0.00300,1.00300,0.10500,-0.15700,-0.03500,0.55800,0.45500,-1.31000,79.62000,-0.39000
041225_04.33.20.706,-0.02200,-0.00200,1.00000,0.08700,-0.17500,-0.03500,0.55900,0.45500,-1.31200,79.96000,0.34000
041225_04.33.20.718,-0.02400,-0.00400,1.00200,0.08700,-0.15700,-0.03500,0.55600,0.45500,-1.31500,79.57000,-0.39000
041225_04.33.20.729,-0.02500,-0.00300,1.00300,0.08700,-0.14000,-0.03500,0.55700,0.45900,-1.31500,79.41000,-0.16000
041225_04.33.20.741,-0.02400,-0.00200,1.00000,0.08700,-0.15700,-0.03500,0.55000,0.46000,-1.31900,79.34000,-0.07000
041225_04.33.20.752,-0.02300,-0.00200,1.00200,0.08700,-0.17500,-0.03500,0.55000,0.46000,-1.31900,79.66000,0.32000
041225_04.33.20.764,-0.02300,-0.00200,1.00100,0.08700,-0.15700,-0.03500,0.55300,0.45700,-1.30900,80.44000,0.78000
041225_04.33.20.775,-0.02300,-0.00300,0.99900,0.10500,-0.12300,-0.05300,0.54900,0.45700,-1.30800,80.46000,0.02000
041225_04.33.20.787,-0.02200,-0.00300,1.00300,0.10500,-0.14000,-0.05300,0.54600,0.45800,-1.31400,80.45000,-0.01000
041225_04.33.20.798,-0.02000,-0.00300,0.99900,0.10500,-0.15700,-0.05300,0.54600,0.45800,-1.31400,79.57000,-0.88000
041225_04.33.20.810,-0.02100,-0.00300,1.00300,0.10500,-0.14000,-0.03500,0.55100,0.45100,-1.31900,80.00000,0.43000
041225_04.33.20.821,-0.02100,-0.00300,1.00200,0.12300,-0.15700,-0.03500,0.54400,0.45900,-1.31100,79.79000,-0.21000
041225_04.33.20.833,-0.02000,-0.00200,1.00600,0.12300,-0.15700,-0.03500,0.55200,0.46400,-1.31300,79.08000,-0.71000
041225_04.33.20.844,-0.01800,-0.00200,1.00100,0.12300,-0.14000,-0.03500,0.54700,0.45900,-1.31600,79.89000,0.81000
041225_04.33.20.856,-0.02000,-0.00300,1.00400,0.10500,-0.15700,-0.03500,0.54700,0.45900,-1.31600,79.60000,-0.29000
041225_04.33.20.867,-0.01900,-0.00200,1.00300,0.12300,-0.15700,-0.01800,0.55000,0.45800,-1.31900,80.38000,0.78000
041225_04.33.20.879,-0.01800,-0.00200,1.00100,0.12300,-0.14000,0.00000,0.55000,0.46000,-1.30700,79.21000,-1.17000
041225_04.33.20.890,-0.01800,-0.00100,1.00300,0.12300,-0.15700,-0.01800,0.55300,0.46000,-1.31300,79.78000,0.57000
041225_04.33.20.902,-0.01700,-0.00200,1.00300,0.08700,-0.17500,-0.03500,0.55300,0.46000,-1.31300,79.64000,-0.14000
041225_04.33.20.913,-0.02000,-0.00200,1.00300,0.08700,-0.14000,-0.01800,0.55700,0.46000,-1.32100,79.75000,0.11000
041225_04.33.20.925,-0.01900,-0.00200,1.00300,0.10500,-0.12300,-0.01800,0.55700,0.45400,-1.31700,79.90000,0.15000
041225_04.33.20.936,-0.01700,-0.00100,1.00100,0.10500,-0.12300,-0.01800,0.55700,0.45500,-1.31900,79.88000,-0.02000
041225_04.33.20.948,-0.01900,-0.00200,1.00400,0.10500,-0.14000,0.00000,0.56100,0.46100,-1.31800,79.87000,-0.01000
041225_04.33.20.959,-0.02000,-0.00000,1.00400,0.08700,-0.14000,0.00000,0.56100,0.46100,-1.31800,79.93000,0.06000
041225_04.33.20.970,-0.02000,-0.00100,1.00200,0.08700,-0.12300,-0.01800,0.56000,0.45900,-1.31800,79.88000,-0.05000
041225_04.33.20.982,-0.02000,-0.00200,1.00400,0.08700,-0.08700,-0.03500,0.55400,0.45700,-1.31300,79.52000,-0.36000
041225_04.33.20.993,-0.01900,0.00000,1.00100,0.07000,-0.12300,-0.01800,0.55700,0.45800,-1.30800,80.03000,0.51000
041225_04.33.21.005,-0.02100,0.00000,1.00400,0.10500,-0.08700,-0.03500,0.55700,0.46000,-1.30800,79.65000,-0.38000
041225_04.33.21.016,-0.02100,-0.00100,0.99900,0.08700,-0.10500,-0.03500,0.55500,0.46000,-1.30800,80.26000,0.61000
041225_04.33.21.028,-0.02200,-0.00200,1.00500,0.07000,-0.08700,-0.03500,0.54600,0.45500,-1.31000,79.72000,-0.54000
041225_04.33.21.039,-0.02100,-0.00100,1.00000,0.08700,-0.08700,-0.03500,0.54400,0.45800,-1.30700,80.30000,0.58000
041225_04.33.21.051,-0.02200,-0.00200,1.00300,0.07000,-0.08700,-0.03500,0.54200,0.45500,-1.30900,78.99000,-1.31000
041225_04.33.21.062,-0.02300,-0.00300,1.00400,0.08700,-0.10500,-0.03500,0.54200,0.45500,-1.30900,79.60000,0.61000
041225_04.33.21.074,-0.02200,-0.00200,1.00000,0.08700,-0.08700,-0.03500,0.54500,0.45600,-1.32000,79.35000,-0.25000
041225_04.33.21.086,-0.02200,-0.00400,1.00400,0.08700,-0.10500,-0.03500,0.54400,0.46000,-1.31000,79.31000,-0.04000
041225_04.33.21.097,-0.02100,-0.00300,1.00200,0.07000,-0.08700,-0.03500,0.54600,0.45600,-1.31200,79.61000,0.30000
041225_04.33.21.109,-0.02300,-0.00400,1.00100,0.08700,-0.10500,-0.03500,0.54600,0.45400,-1.31200,79.39000,-0.22000
041225_04.33.21.120,-0.02100,-0.00400,1.00400,0.07000,-0.08700,-0.05300,0.54600,0.45400,-1.31200,79.83000,0.44000
041225_04.33.21.132,-0.02300,-0.00100,1.00100,0.08700,-0.10500,-0.05300,0.54900,0.45200,-1.31000,79.54000,-0.29000
041225_04.33.21.143,-0.02100,-0.00400,1.00400,0.08700,-0.12300,-0.03500,0.55700,0.45500,-1.31400,79.34000,-0.20000
041225_04.33.21.155,-0.02400,-0.00400,1.00400,0.08700,-0.12300,-0.03500,0.56000,0.45800,-1.31800,79.79000,0.45000
041225_04.33.21.166,-0.02100,-0.00300,1.00100,0.08700,-0.10500,-0.03500,0.56000,0.45800,-1.31800,80.00000,0.21000
041225_04.33.21.177,-0.02300,-0.00400,1.00000,0.07000,-0.10500,-0.01800,0.56200,0.45500,-1.31500,79.51000,-0.49000
041225_04.33.21.189,-0.02300,-0.00400,1.00200,0.05300,-0.12300,-0.01800,0.56300,0.45400,-1.31500,79.82000,0.31000
041225_04.33.21.200,-0.02400,-0.00300,1.00200,0.08700,-0.12300,-0.05300,0.56300,0.45700,-1.31500,79.03000,-0.79000
041225_04.33.21.212,-0.02200,-0.00300,0.99900,0.07000,-0.08700,-0.05300,0.56700,0.45800,-1.32400,79.64000,0.61000
041225_04.33.21.223,-0.02200,-0.00400,1.00300,0.10500,-0.08700,-0.05300,0.56700,0.45800,-1.32400,79.92000,0.28000
041225_04.33.21.235,-0.02100,-0.00300,1.00100,0.10500,-0.10500,-0.03500,0.56100,0.45700,-1.31600,79.75000,-0.17000
041225_04.33.21.246,-0.02100,-0.00300,1.00100,0.08700,-0.10500,-0.03500,0.55600,0.45900,-1.31400,79.85000,0.10000
041225_04.33.21.258,-0.02200,-0.00300,1.00200,0.08700,-0.08700,-0.01800,0.56000,0.45800,-1.31800,79.95000,0.10000
041225_04.33.21.269,-0.02100,-0.00200,0.99900,0.10500,-0.10500,-0.03500,0.56000,0.45800,-1.31800,79.66000,-0.29000
041225_04.33.21.280,-0.02300,-0.00300,1.00200,0.10500,-0.10500,-0.01800,0.56300,0.45900,-1.31000,79.94000,0.28000
041225_04.33.21.292,-0.02200,-0.00100,1.00100,0.08700,-0.12300,-0.03500,0.55600,0.46400,-1.30600,79.49000,-0.45000
041225_04.33.21.303,-0.02400,-0.00000,1.00000,0.10500,-0.14000,-0.01800,0.55700,0.45600,-1.30200,79.64000,0.15000
041225_04.33.21.315,-0.02300,-0.00200,1.00300,0.07000,-0.14000,-0.03500,0.55000,0.46100,-1.30100,79.72000,0.08000
041225_04.33.21.326,-0.02100,-0.00100,1.00100,0.10500,-0.17500,-0.01800,0.55000,0.46100,-1.30100,79.92000,0.20000
041225_04.33.21.338,-0.02300,-0.00200,1.00200,0.10500,-0.15700,-0.03500,0.54700,0.45900,-1.30600,79.94000,0.02000
041225_04.33.21.349,-0.02200,-0.00200,0.99900,0.08700,-0.14000,-0.01800,0.54700,0.45700,-1.31100,80.05000,0.11000
041225_04.33.21.361,-0.02200,-0.00100,1.00400,0.10500,-0.14000,-0.05300,0.54200,0.45600,-1.31300,79.89000,-0.16000
041225_04.33.21.372,-0.02100,-0.00100,1.00200,0.12300,-0.14000,-0.03500,0.55100,0.45400,-1.31000,79.31000,-0.58000
041225_04.33.21.383,-0.02200,-0.00100,1.00000,0.08700,-0.15700,-0.03500,0.55100,0.45400,-1.31000,79.61000,0.30000
041225_04.33.21.395,-0.02200,-0.00300,1.00400,0.10500,-0.12300,-0.03500,0.54700,0.45600,-1.31100,80.13000,0.52000
041225_04.33.21.406,-0.02100,-0.00200,1.00000,0.10500,-0.14000,-0.03500,0.55400,0.45400,-1.31600,79.44000,-0.69000
041225_04.33.21.418,-0.02300,-0.00300,1.00300,0.10500,-0.14000,-0.01800,0.55300,0.45800,-1.31500,79.64000,0.20000
041225_04.33.21.429,-0.02200,-0.00100,1.00400,0.10500,-0.15700,-0.05300,0.55300,0.45800,-1.31500,80.17000,0.53000
041225_04.33.21.441,-0.02200,-0.00000,1.00000,0.10500,-0.12300,-0.01800,0.55500,0.45500,-1.31400,79.76000,-0.41000
041225_04.33.21.452,-0.02000,-0.00300,1.00500,0.08700,-0.15700,-0.03500,0.55900,0.45800,-1.31100,79.24000,-0.52000
041225_04.33.21.463,-0.02000,-0.00200,1.00000,0.10500,-0.14000,-0.05300,0.56100,0.45400,-1.32100,80.35000,1.11000
041225_04.33.21.475,-0.02200,-0.00000,1.00400,0.10500,-0.12300,-0.03500,0.56200,0.45400,-1.32100,80.01000,-0.34000
041225_04.33.21.486,-0.01900,-0.00100,1.00300,0.10500,-0.15700,-0.03500,0.56200,0.45400,-1.32100,79.88000,-0.13000
041225_04.33.21.498,-0.01800,-0.00100,1.00100,0.10500,-0.12300,-0.03500,0.56600,0.45300,-1.31200,79.22000,-0.66000
041225_04.33.21.509,-0.02000,-0.00200,1.00500,0.10500,-0.15700,-0.05300,0.56100,0.45700,-1.31300,79.32000,0.10000
041225_04.33.21.521,-0.01900,-0.00200,1.00200,0.08700,-0.15700,-0.05300,0.56400,0.45400,-1.31800,79.62000,0.30000
041225_04.33.21.532,-0.01900,-0.00400,1.00300,0.07000,-0.14000,-0.03500,0.56400,0.45400,-1.31800,79.52000,-0.10000
041225_04.33.21.543,-0.02000,-0.00200,1.00100,0.10500,-0.15700,-0.01800,0.56000,0.45800,-1.31400,80.15000,0.63000
041225_04.33.21.555,-0.01800,-0.00300,1.00400,0.08700,-0.12300,-0.05300,0.55300,0.45500,-1.31200,79.69000,-0.46000
041225_04.33.21.566,-0.01800,-0.00300,1.00300,0.08700,-0.12300,-0.03500,0.55600,0.45600,-1.31100,79.39000,-0.30000
041225_04.33.21.578,-0.02000,-0.00400,1.00100,0.07000,-0.10500,-0.03500,0.54900,0.45900,-1.31100,79.86000,0.47000
041225_04.33.21.589,-0.01900,-0.00400,1.00400,0.10500,-0.10500,-0.01800,0.54900,0.45900,-1.31100,80.03000,0.17000
041225_04.33.21.601,-0.01900,-0.00400,0.99900,0.10500,-0.10500,-0.01800,0.55300,0.46000,-1.31800,79.40000,-0.63000
041225_04.33.21.612,-0.01800,-0.00300,1.00300,0.10500,-0.10500,-0.03500,0.54200,0.45800,-1.31700,80.35000,0.95000
041225_04.33.21.624,-0.02100,-0.00300,1.00200,0.08700,-0.10500,-0.01800,0.54600,0.45500,-1.31500,80.12000,-0.23000
041225_04.33.21.635,-0.02000,-0.00500,1.00200,0.08700,-0.10500,0.00000,0.54600,0.45600,-1.30500,79.93000,-0.19000
041225_04.33.21.647,-0.02600,-0.00300,1.00400,0.10500,-0.10500,0.00000,0.54200,0.45600,-1.30500,79.85000,-0.08000
041225_04.33.21.658,-0.01300,-0.00400,1.00100,0.08700,-0.14000,-0.05300,0.54500,0.46000,-1.31000,79.70000,-0.15000
041225_04.33.21.669,-0.02100,-0.00200,1.00300,0.12300,-0.08700,-0.01800,0.54700,0.45800,-1.31200,79.61000,-0.09000
041225_04.33.21.681,-0.02100,-0.00500,1.00000,0.10500,-0.10500,-0.01800,0.54900,0.45800,-1.31300,79.98000,0.37000
041225_04.33.21.692,-0.02200,-0.00200,1.00400,0.12300,-0.08700,0.01800,0.54900,0.45800,-1.31300,79.47000,-0.51000
041225_04.33.21.704,-0.02000,-0.00300,0.99900,0.08700,-0.12300,-0.01800,0.54900,0.46000,-1.30800,80.08000,0.61000
041225_04.33.21.715,-0.02300,-0.00100,1.00400,0.12300,-0.10500,-0.03500,0.55600,0.46000,-1.31800,79.63000,-0.45000
041225_04.33.21.727,-0.02700,-0.00300,1.00100,0.10500,-0.10500,-0.01800,0.55600,0.46200,-1.32000,79.19000,-0.44000
041225_04.33.21.738,-0.02000,-0.00300,1.00300,0.10500,-0.14000,-0.01800,0.55900,0.46100,-1.32500,79.73000,0.54000
041225_04.33.21.750,-0.02300,-0.00300,1.00200,0.12300,-0.10500,-0.01800,0.55900,0.46100,-1.32500,79.81000,0.08000
041225_04.33.21.761,-0.02400,-0.00100,1.00500,0.10500,-0.12300,-0.01800,0.56100,0.46200,-1.31400,79.74000,-0.07000
041225_04.33.21.773,-0.02200,-0.00300,0.99900,0.08700,-0.10500,-0.03500,0.56000,0.46400,-1.31800,80.16000,0.42000
041225_04.33.21.784,-0.02300,-0.00100,1.00700,0.08700,-0.10500,-0.01800,0.56200,0.46300,-1.31600,79.65000,-0.51000
041225_04.33.21.795,-0.02500,-0.00200,1.00000,0.10500,-0.12300,-0.03500,0.56200,0.46300,-1.31600,80.01000,0.36000
041225_04.33.21.807,-0.02200,-0.00100,1.00300,0.08700,-0.10500,-0.03500,0.55700,0.46400,-1.31600,79.74000,-0.27000
041225_04.33.21.818,-0.02400,-0.00000,1.00400,0.12300,-0.08700,-0.03500,0.55600,0.46100,-1.31500,79.46000,-0.28000
041225_04.33.21.830,-0.02300,-0.00100,1.00100,0.08700,-0.14000,-0.03500,0.55500,0.46400,-1.31200,79.84000,0.38000
041225_04.33.21.841,-0.02400,-0.00100,1.00500,0.07000,-0.14000,-0.03500,0.56000,0.46400,-1.31400,80.01000,0.17000
041225_04.33.21.853,-0.02300,0.00000,1.00300,0.08700,-0.14000,-0.01800,0.56000,0.46400,-1.31400,80.09000,0.08000
041225_04.33.21.864,-0.02300,0.00000,1.00700,0.08700,-0.12300,-0.03500,0.55400,0.45800,-1.31200,79.49000,-0.60000
041225_04.33.21.875,-0.02000,0.00000,1.00100,0.07000,-0.15700,-0.05300,0.54800,0.46000,-1.30600,80.27000,0.78000
041225_04.33.21.887,-0.02200,-0.00200,1.00400,0.07000,-0.17500,-0.05300,0.54900,0.45800,-1.30900,79.19000,-1.08000
041225_04.33.21.898,-0.02100,-0.00100,1.00300,0.07000,-0.14000,-0.03500,0.54900,0.45800,-1.30900,80.13000,0.94000
041225_04.33.21.909,-0.02100,-0.00200,1.00100,0.07000,-0.12300,-0.03500,0.55200,0.45900,-1.31400,80.01000,-0.12000
041225_04.33.21.921,-0.02300,-0.00100,1.00400,0.08700,-0.14000,-0.01800,0.54600,0.45800,-1.30900,80.00000,-0.01000
041225_04.33.21.932,-0.02100,-0.00200,1.00200,0.05300,-0.14000,-0.05300,0.54100,0.46200,-1.31000,79.97000,-0.03000
041225_04.33.21.944,-0.02100,-0.00300,1.00300,0.07000,-0.14000,-0.03500,0.54600,0.46100,-1.31300,78.99000,-0.98000
041225_04.33.21.955,-0.02100,-0.00300,1.00200,0.05300,-0.12300,-0.03500,0.54600,0.46100,-1.31300,79.54000,0.55000
041225_04.33.21.967,-0.02000,-0.00200,1.00000,0.07000,-0.14000,-0.03500,0.55300,0.45600,-1.31300,79.53000,-0.01000
041225_04.33.21.978,-0.02100,-0.00300,1.00400,0.07000,-0.12300,-0.01800,0.55600,0.45900,-1.31300,79.80000,0.27000
041225_04.33.21.990,-0.02000,-0.00300,1.00100,0.08700,-0.15700,-0.03500,0.55700,0.45500,-1.30800,79.18000,-0.62000
041225_04.33.22.001,-0.01900,-0.00300,1.00000,0.07000,-0.14000,-0.03500,0.56500,0.45800,-1.31200,80.40000,1.22000
041225_04.33.22.012,-0.02100,-0.00400,1.00400,0.07000,-0.12300,-0.01800,0.56500,0.45800,-1.31200,79.55000,-0.85000
041225_04.33.22.024,-0.01800,-0.00100,1.00100,0.10500,-0.14000,-0.03500,0.56200,0.46100,-1.30900,79.66000,0.11000
041225_04.33.22.035,-0.01800,-0.00300,1.00200,0.10500,-0.14000,-0.03500,0.56400,0.45800,-1.30700,79.21000,-0.45000
041225_04.33.22.047,-0.02000,-0.00200,1.00100,0.08700,-0.15700,-0.01800,0.56100,0.45800,-1.31700,80.00000,0.79000
041225_04.33.22.058,-0.02300,-0.00400,1.00400,0.12300,-0.12300,-0.01800,0.56100,0.45800,-1.31700,79.25000,-0.75000
041225_04.33.22.070,-0.02000,-0.00300,0.99900,0.08700,-0.14000,-0.01800,0.55800,0.45800,-1.31600,80.04000,0.79000
041225_04.33.22.081,-0.02100,-0.00300,1.00200,0.07000,-0.12300,0.00000,0.55900,0.45800,-1.31400,80.39000,0.35000
041225_04.33.22.092,-0.02000,-0.00500,1.00100,0.07000,-0.14000,-0.01800,0.55600,0.45800,-1.31800,79.80000,-0.59000
041225_04.33.22.104,-0.02000,-0.00300,1.00100,0.07000,-0.10500,-0.01800,0.55600,0.45700,-1.31600,79.09000,-0.71000
041225_04.33.22.115,-0.02100,-0.00300,1.00300,0.08700,-0.10500,-0.01800,0.55600,0.45700,-1.31600,79.79000,0.70000
041225_04.33.22.127,-0.02100,-0.00300,1.00000,0.10500,-0.12300,-0.01800,0.55200,0.46100,-1.31400,80.31000,0.52000
041225_04.33.22.138,-0.02000,-0.00300,1.00000,0.08700,-0.10500,-0.03500,0.55800,0.45700,-1.31400,79.51000,-0.80000
041225_04.33.22.150,-0.02100,-0.00500,1.00300,0.08700,-0.12300,-0.01800,0.55400,0.45700,-1.31200,79.92000,0.41000
041225_04.33.22.161,-0.02000,-0.00200,1.00100,0.10500,-0.08700,-0.03500,0.55400,0.45700,-1.31200,79.73000,-0.19000
041225_04.33.22.172,-0.02100,-0.00300,0.99900,0.10500,-0.08700,-0.05300,0.54300,0.45900,-1.31900,79.72000,-0.01000
041225_04.33.22.184,-0.02100,-0.00300,1.00000,0.10500,-0.10500,-0.03500,0.54600,0.45700,-1.31000,79.59000,-0.13000
041225_04.33.22.195,-0.02000,-0.00300,1.00300,0.08700,-0.10500,-0.03500,0.54600,0.45500,-1.31400,79.52000,-0.07000
041225_04.33.22.207,-0.02100,-0.00200,0.99700,0.10500,-0.10500,-0.03500,0.55200,0.45600,-1.31200,80.15000,0.63000
041225_04.33.22.218,-0.02200,-0.00100,1.00100,0.10500,-0.05300,-0.03500,0.55200,0.45600,-1.31200,79.33000,-0.82000
041225_04.33.22.230,-0.02300,-0.00300,1.00400,0.10500,-0.08700,-0.03500,0.55000,0.45600,-1.32000,80.18000,0.85000
041225_04.33.22.241,-0.02200,-0.00200,0.99900,0.10500,-0.12300,-0.03500,0.55000,0.46100,-1.32400,79.42000,-0.76000
041225_04.33.22.253,-0.02100,-0.00200,1.00300,0.10500,-0.12300,-0.03500,0.55700,0.45900,-1.31200,79.46000,0.04000
041225_04.33.22.264,-0.02200,-0.00200,1.00200,0.10500,-0.12300,-0.03500,0.55700,0.45800,-1.31700,79.62000,0.16000
041225_04.33.22.275,-0.02300,-0.00100,1.00100,0.10500,-0.14000,-0.03500,0.55700,0.45800,-1.31700,79.95000,0.33000
041225_04.33.22.287,-0.02100,-0.00300,1.00500,0.10500,-0.12300,-0.03500,0.56300,0.46000,-1.31700,80.11000,0.16000
041225_04.33.22.298,-0.02200,-0.00100,1.00100,0.10500,-0.12300,-0.03500,0.56300,0.45900,-1.32200,79.78000,-0.33000
041225_04.33.22.310,-0.02300,-0.00200,1.00400,0.12300,-0.14000,-0.03500,0.55900,0.45500,-1.31700,79.89000,0.11000
041225_04.33.22.321,-0.02300,-0.00200,1.00400,0.12300,-0.14000,-0.03500,0.55900,0.45500,-1.31700,79.84000,-0.05000
041225_04.33.22.333,-0.02500,-0.00100,1.00100,0.10500,-0.12300,-0.01800,0.56500,0.45500,-1.30900,79.96000,0.12000
041225_04.33.22.344,-0.02200,-0.00100,1.00500,0.12300,-0.12300,-0.01800,0.56300,0.45900,-1.31800,79.62000,-0.34000
041225_04.33.22.356,-0.02300,-0.00100,1.00300,0.08700,-0.14000,-0.03500,0.56100,0.45900,-1.31600,80.11000,0.49000
041225_04.33.22.367,-0.02600,-0.00100,1.00400,0.08700,-0.15700,-0.03500,0.55700,0.45700,-1.31400,79.38000,-0.73000
041225_04.33.22.379,-0.02400,-0.00200,1.00100,0.08700,-0.14000,-0.03500,0.55700,0.45700,-1.31400,80.32000,0.94000
041225_04.33.22.390,-0.02300,-0.00200,1.00600,0.08700,-0.15700,-0.05300,0.55400,0.45600,-1.31500,79.64000,-0.68000
041225_04.33.22.401,-0.02400,-0.00300,1.00100,0.07000,-0.15700,-0.03500,0.55300,0.45400,-1.31900,79.69000,0.05000
041225_04.33.22.413,-0.02300,-0.00200,1.00300,0.07000,-0.12300,0.00000,0.55400,0.45800,-1.30900,79.42000,-0.27000
041225_04.33.22.424,-0.02300,-0.00500,1.00600,0.08700,-0.14000,-0.03500,0.55400,0.45800,-1.30900,80.19000,0.77000
041225_04.33.22.436,-0.02100,-0.00200,1.00000,0.07000,-0.15700,-0.01800,0.54900,0.45400,-1.31100,79.62000,-0.57000
041225_04.33.22.447,-0.02100,-0.00300,1.00400,0.08700,-0.14000,-0.01800,0.54500,0.45800,-1.30400,79.67000,0.05000
041225_04.33.22.459,-0.02100,-0.00400,1.00200,0.07000,-0.14000,-0.03500,0.54700,0.45700,-1.31100,79.94000,0.27000
041225_04.33.22.470,-0.02000,-0.00300,1.00200,0.08700,-0.14000,-0.03500,0.54800,0.45900,-1.31200,80.20000,0.26000
041225_04.33.22.481,-0.01800,-0.00400,1.00400,0.08700,-0.14000,-0.03500,0.54800,0.45900,-1.31200,79.36000,-0.84000
041225_04.33.22.493,-0.01800,-0.00400,0.99900,0.07000,-0.15700,-0.01800,0.54400,0.46000,-1.30600,79.79000,0.43000
041225_04.33.22.504,-0.02000,-0.00400,1.00200,0.07000,-0.14000,-0.01800,0.54500,0.45400,-1.31300,78.88000,-0.91000
041225_04.33.22.516,-0.01800,-0.00500,1.00200,0.08700,-0.15700,0.00000,0.54800,0.45200,-1.31000,79.15000,0.27000
041225_04.33.22.527,-0.01800,-0.00300,0.99900,0.10500,-0.12300,-0.01800,0.54800,0.45200,-1.31000,79.58000,0.43000
041225_04.33.22.539,-0.01900,-0.00300,0.99900,0.08700,-0.14000,-0.01800,0.55400,0.45200,-1.31200,79.25000,-0.33000
041225_04.33.22.550,-0.01900,-0.00300,1.00000,0.10500,-0.12300,-0.03500,0.55500,0.45100,-1.31400,79.95000,0.70000
041225_04.33.22.561,-0.01900,-0.00300,1.00400,0.12300,-0.10500,-0.01800,0.56000,0.45300,-1.30800,80.07000,0.12000
041225_04.33.22.573,-0.01700,-0.00200,1.00000,0.10500,-0.12300,-0.01800,0.56100,0.45600,-1.30800,79.02000,-1.05000
041225_04.33.22.584,-0.02000,-0.00300,1.00200,0.08700,-0.10500,-0.01800,0.56100,0.45600,-1.30800,79.21000,0.19000
041225_04.33.22.596,-0.01800,-0.00200,1.00300,0.10500,-0.10500,-0.01800,0.55900,0.45700,-1.31700,79.77000,0.56000
041225_04.33.22.607,-0.02000,-0.00000,1.00100,0.10500,-0.12300,-0.01800,0.56400,0.45000,-1.32200,80.13000,0.36000
041225_04.33.22.619,-0.02000,-0.00200,1.00600,0.10500,-0.10500,-0.03500,0.56600,0.45700,-1.32100,79.74000,-0.39000
041225_04.33.22.630,-0.01800,0.00000,1.00200,0.10500,-0.10500,-0.03500,0.56100,0.45300,-1.31400,79.62000,-0.12000
041225_04.33.22.642,-0.02000,-0.00200,1.00500,0.08700,-0.08700,-0.01800,0.56100,0.45300,-1.31400,80.46000,0.84000
041225_04.33.22.653,-0.02100,-0.00200,1.00600,0.10500,-0.08700,-0.01800,0.55600,0.45400,-1.31300,80.10000,-0.36000
041225_04.33.22.664,-0.02000,-0.00100,1.00200,0.10500,-0.12300,0.00000,0.55600,0.45600,-1.31200,79.87000,-0.23000
041225_04.33.22.676,-0.02200,-0.00100,1.00500,0.08700,-0.10500,-0.03500,0.55700,0.45700,-1.31200,79.69000,-0.18000
041225_04.33.22.687,-0.02000,-0.00100,1.00100,0.10500,-0.10500,-0.01800,0.55700,0.45700,-1.31200,79.61000,-0.08000
041225_04.33.22.698,-0.02200,-0.00200,1.00300,0.08700,-0.12300,-0.01800,0.55000,0.45300,-1.31200,80.51000,0.90000
041225_04.33.22.710,-0.02300,-0.00100,1.00000,0.08700,-0.10500,-0.01800,0.55200,0.45700,-1.31300,79.79000,-0.72000
041225_04.33.22.721,-0.02300,-0.00100,1.00300,0.10500,-0.08700,-0.03500,0.55000,0.45900,-1.31400,79.48000,-0.31000
041225_04.33.22.733,-0.02300,-0.00200,1.00300,0.07000,-0.10500,-0.01800,0.54200,0.45400,-1.30600,79.54000,0.06000
041225_04.33.22.744,-0.02400,-0.00200,1.00000,0.08700,-0.10500,-0.03500,0.54200,0.45400,-1.30600,79.45000,-0.09000
041225_04.33.22.756,-0.02400,-0.00200,1.00100,0.05300,-0.08700,-0.03500,0.54400,0.45800,-1.31000,80.27000,0.82000
041225_04.33.22.767,-0.02200,-0.00100,0.99900,0.05300,-0.08700,-0.05300,0.54000,0.45600,-1.31200,79.24000,-1.03000
041225_04.33.22.778,-0.02400,-0.00300,1.00100,0.08700,-0.10500,-0.03500,0.55100,0.45700,-1.31900,79.57000,0.33000
041225_04.33.22.790,-0.02300,-0.00200,1.00200,0.08700,-0.10500,-0.05300,0.55100,0.45700,-1.31900,79.38000,-0.19000
041225_04.33.22.801,-0.02200,-0.00200,0.99700,0.10500,-0.10500,-0.01800,0.54500,0.46000,-1.31500,79.58000,0.20000
041225_04.33.22.813,-0.02400,-0.00100,1.00300,0.12300,-0.10500,-0.01800,0.55100,0.45400,-1.31800,79.90000,0.32000
041225_04.33.22.824,-0.02300,-0.00400,1.00000,0.10500,-0.12300,-0.03500,0.55600,0.45900,-1.31600,79.85000,-0.05000
041225_04.33.22.836,-0.02300,-0.00200,1.00300,0.08700,-0.08700,-0.03500,0.55600,0.45900,-1.30500,79.03000,-0.82000
041225_04.33.22.847,-0.02200,-0.00300,1.00300,0.07000,-0.12300,-0.03500,0.55600,0.45900,-1.30500,79.67000,0.64000
041225_04.33.22.859,-0.02200,-0.00200,1.00100,0.08700,-0.12300,-0.01800,0.56700,0.46000,-1.31700,79.43000,-0.24000
041225_04.33.22.870,-0.02300,-0.00200,1.00400,0.08700,-0.14000,-0.01800,0.56000,0.46000,-1.31100,80.06000,0.63000
041225_04.33.22.882,-0.02200,-0.00400,1.00100,0.10500,-0.15700,-0.01800,0.56200,0.45700,-1.31000,79.80000,-0.26000
041225_04.33.22.893,-0.02100,-0.00400,1.00300,0.08700,-0.14000,0.00000,0.56200,0.45400,-1.31200,79.38000,-0.42000
041225_04.33.22.904,-0.02200,-0.00300,1.00100,0.10500,-0.14000,-0.03500,0.56600,0.45400,-1.31200,80.17000,0.79000
041225_04.33.22.916,-0.02400,-0.00500,1.00400,0.10500,-0.15700,-0.01800,0.55900,0.45800,-1.31400,79.74000,-0.43000
041225_04.33.22.927,-0.02300,-0.00400,1.00400,0.08700,-0.14000,-0.01800,0.55800,0.45600,-1.31000,79.97000,0.23000
041225_04.33.22.939,-0.02200,-0.00300,1.00200,0.08700,-0.12300,-0.03500,0.55800,0.45800,-1.30600,79.25000,-0.72000
041225_04.33.22.950,-0.02300,-0.00400,1.00400,0.08700,-0.14000,-0.01800,0.55800,0.45800,-1.30600,79.46000,0.21000
041225_04.33.22.962,-0.02200,-0.00400,1.00000,0.08700,-0.17500,-0.01800,0.55700,0.46200,-1.30500,79.50000,0.04000
041225_04.33.22.973,-0.02300,-0.00400,1.00300,0.08700,-0.17500,-0.01800,0.55500,0.45800,-1.30900,80.12000,0.62000
041225_04.33.22.985,-0.02300,-0.00400,1.00400,0.08700,-0.15700,-0.03500,0.55400,0.46200,-1.30800,79.44000,-0.68000
041225_04.33.22.996,-0.02000,-0.00300,0.99900,0.08700,-0.14000,-0.03500,0.54900,0.46100,-1.30600,79.06000,-0.38000
041225_04.33.23.007,-0.02300,-0.00300,1.00300,0.08700,-0.14000,-0.01800,0.54900,0.46100,-1.30600,80.08000,1.02000
041225_04.33.23.019,-0.02100,-0.00400,1.00300,0.10500,-0.14000,-0.03500,0.54900,0.46000,-1.30800,79.64000,-0.44000
041225_04.33.23.030,-0.02100,-0.00300,1.00100,0.10500,-0.14000,-0.03500,0.54500,0.46200,-1.31100,79.65000,0.01000
041225_04.33.23.042,-0.02100,-0.00300,1.00400,0.10500,-0.14000,-0.03500,0.54900,0.45800,-1.30600,79.35000,-0.30000
041225_04.33.23.053,-0.02000,-0.00100,1.00400,0.08700,-0.14000,-0.03500,0.54900,0.45800,-1.30600,79.50000,0.15000
041225_04.33.23.065,-0.02000,-0.00200,1.00300,0.10500,-0.14000,-0.05300,0.54800,0.45900,-1.30600,79.74000,0.24000
041225_04.33.23.076,-0.02000,-0.00300,1.00000,0.10500,-0.14000,-0.05300,0.54700,0.45800,-1.30200,79.76000,0.02000
041225_04.33.23.087,-0.01900,-0.00300,1.00400,0.10500,-0.12300,-0.03500,0.55100,0.45800,-1.30600,79.81000,0.05000
041225_04.33.23.099,-0.01900,-0.00000,1.00100,0.08700,-0.12300,-0.03500,0.55600,0.45600,-1.30700,80.21000,0.40000
041225_04.33.23.110,-0.02000,-0.00100,1.00300,0.10500,-0.12300,-0.03500,0.55600,0.45600,-1.30700,79.41000,-0.80000
041225_04.33.23.122,-0.01800,-0.00100,1.00300,0.10500,-0.12300,-0.03500,0.55500,0.46000,-1.31000,79.15000,-0.26000
041225_04.33.23.133,-0.01900,-0.00100,1.00000,0.10500,-0.12300,-0.03500,0.56300,0.45400,-1.30700,79.86000,0.71000
041225_04.33.23.145,-0.01900,-0.00100,1.00400,0.07000,-0.12300,-0.03500,0.56100,0.45500,-1.31400,79.32000,-0.54000
041225_04.33.23.156,-0.01900,-0.00100,1.00200,0.10500,-0.12300,-0.01800,0.56100,0.45500,-1.31400,79.29000,-0.03000
041225_04.33.23.168,-0.01900,-0.00100,1.00100,0.10500,-0.14000,-0.05300,0.55800,0.45800,-1.31400,79.93000,0.64000
041225_04.33.23.179,-0.02000,-0.00200,1.00200,0.10500,-0.10500,-0.03500,0.56000,0.45500,-1.31100,79.52000,-0.41000
041225_04.33.23.190,-0.01800,-0.00200,0.99900,0.08700,-0.12300,-0.05300,0.56200,0.45600,-1.31200,79.49000,-0.03000
041225_04.33.23.202,-0.02000,-0.00200,1.00200,0.10500,-0.14000,-0.03500,0.56200,0.46100,-1.30700,80.04000,0.55000
041225_04.33.23.213,-0.02000,-0.00100,1.00200,0.10500,-0.14000,-0.01800,0.56200,0.46100,-1.30700,79.27000,-0.77000
041225_04.33.23.225,-0.02000,-0.00100,1.00300,0.08700,-0.10500,-0.01800,0.55800,0.45800,-1.30400,79.60000,0.33000
041225_04.33.23.236,-0.02000,-0.00200,0.99800,0.10500,-0.10500,-0.01800,0.56000,0.45900,-1.31000,79.88000,0.28000
041225_04.33.23.248,-0.02100,-0.00300,1.00500,0.08700,-0.10500,-0.01800,0.55200,0.45400,-1.30400,79.25000,-0.63000
041225_04.33.23.259,-0.02100,-0.00100,1.00100,0.08700,-0.10500,-0.01800,0.55700,0.45600,-1.30900,79.62000,0.37000
041225_04.33.23.270,-0.01900,-0.00300,1.00100,0.08700,-0.08700,-0.01800,0.55700,0.45600,-1.30900,80.33000,0.71000
041225_04.33.23.282,-0.02200,-0.00200,1.00600,0.10500,-0.07000,-0.01800,0.54400,0.46100,-1.30500,80.13000,-0.20000
041225_04.33.23.293,-0.02100,-0.00300,1.00100,0.08700,-0.12300,-0.01800,0.54900,0.45600,-1.30800,80.14000,0.01000
041225_04.33.23.305,-0.02200,-0.00200,1.00300,0.08700,-0.12300,-0.03500,0.54700,0.46100,-1.30800,79.72000,-0.42000
041225_04.33.23.316,-0.02300,-0.00300,1.00300,0.10500,-0.12300,-0.01800,0.54700,0.46100,-1.30800,79.41000,-0.31000
041225_04.33.23.328,-0.02000,-0.00400,1.00100,0.10500,-0.10500,0.00000,0.53700,0.46000,-1.30500,79.72000,0.31000
041225_04.33.23.339,-0.02300,-0.00400,1.00300,0.10500,-0.10500,0.01800,0.55000,0.45700,-1.30700,79.38000,-0.34000
041225_04.33.23.351,-0.02200,-0.00500,1.00400,0.08700,-0.12300,0.00000,0.55000,0.45800,-1.30100,79.51000,0.13000
041225_04.33.23.362,-0.02300,-0.00300,0.99900,0.10500,-0.12300,0.00000,0.54900,0.45700,-1.31000,79.80000,0.29000
041225_04.33.23.374,-0.02300,-0.00400,1.00400,0.08700,-0.10500,-0.01800,0.54900,0.45700,-1.31000,80.08000,0.28000
041225_04.33.23.385,-0.02200,-0.00200,1.00100,0.12300,-0.12300,-0.01800,0.55400,0.45600,-1.30400,79.40000,-0.68000
041225_04.33.23.397,-0.02400,-0.00400,1.00300,0.14000,-0.12300,-0.01800,0.55400,0.45600,-1.30700,79.49000,0.09000
041225_04.33.23.408,-0.02200,-0.00300,1.00000,0.10500,-0.12300,-0.01800,0.56300,0.45400,-1.30300,80.07000,0.58000
041225_04.33.23.419,-0.02400,-0.00400,1.00600,0.10500,-0.12300,-0.03500,0.56300,0.45400,-1.30300,79.51000,-0.56000
041225_04.33.23.431,-0.02200,-0.00400,1.00100,0.08700,-0.12300,-0.03500,0.56000,0.45800,-1.31100,79.91000,0.40000
041225_04.33.23.442,-0.02200,-0.00100,1.00400,0.10500,-0.12300,-0.01800,0.56200,0.45700,-1.31000,79.99000,0.08000
041225_04.33.23.454,-0.02400,-0.00500,1.00400,0.08700,-0.14000,-0.01800,0.56200,0.45700,-1.31100,80.44000,0.45000
041225_04.33.23.465,-0.02200,-0.00300,1.00000,0.12300,-0.12300,-0.03500,0.56500,0.45700,-1.30900,79.22000,-1.22000
041225_04.33.23.477,-0.02300,-0.00300,1.00400,0.12300,-0.10500,-0.05300,0.56500,0.45700,-1.30900,79.60000,0.38000
041225_04.33.23.488,-0.02200,-0.00200,1.00400,0.12300,-0.14000,-0.03500,0.55800,0.46000,-1.30700,79.94000,0.34000
041225_04.33.23.499,-0.02200,-0.00300,1.00100,0.12300,-0.12300,-0.01800,0.56400,0.45500,-1.31300,79.97000,0.03000
041225_04.33.23.511,-0.02200,-0.00400,1.00300,0.10500,-0.12300,-0.01800,0.56100,0.45900,-1.29900,79.70000,-0.27000
041225_04.33.23.522,-0.02100,-0.00200,1.00200,0.10500,-0.15700,-0.01800,0.56100,0.45900,-1.30200,80.01000,0.31000
041225_04.33.23.534,-0.02300,-0.00300,1.00300,0.08700,-0.14000,-0.03500,0.55200,0.45900,-1.30200,79.22000,-0.79000
041225_04.33.23.545,-0.02100,-0.00200,1.00300,0.10500,-0.12300,-0.01800,0.55900,0.45700,-1.31000,79.31000,0.09000
041225_04.33.23.557,-0.02100,-0.00300,0.99900,0.08700,-0.17500,-0.03500,0.55000,0.45700,-1.30900,79.54000,0.23000
041225_04.33.23.568,-0.02100,-0.00200,1.00000,0.10500,-0.15700,-0.03500,0.54700,0.45700,-1.30000,79.21000,-0.33000
041225_04.33.23.579,-0.02000,0.00000,1.00100,0.12300,-0.15700,-0.03500,0.54700,0.45700,-1.30000,80.15000,0.94000
041225_04.33.23.591,-0.02100,-0.00200,1.00200,0.10500,-0.14000,-0.03500,0.54800,0.45700,-1.30600,79.31000,-0.84000
041225_04.33.23.602,-0.01900,-0.00100,1.00000,0.10500,-0.15700,-0.01800,0.54900,0.45600,-1.31000,79.07000,-0.24000
041225_04.33.23.614,-0.02100,-0.00200,1.00400,0.08700,-0.14000,-0.01800,0.54700,0.45500,-1.30800,80.04000,0.97000
041225_04.33.23.625,-0.02000,-0.00200,1.00300,0.10500,-0.14000,-0.01800,0.54800,0.45200,-1.30900,79.36000,-0.68000
041225_04.33.23.637,-0.02100,-0.00100,1.00000,0.08700,-0.15700,-0.01800,0.54800,0.45200,-1.30900,79.96000,0.60000
041225_04.33.23.648,-0.02100,-0.00400,1.00400,0.08700,-0.14000,-0.01800,0.55300,0.45400,-1.30900,79.17000,-0.79000
041225_04.33.23.659,-0.02000,-0.00200,1.00100,0.08700,-0.15700,-0.03500,0.55900,0.45600,-1.31400,79.40000,0.23000
041225_04.33.23.671,-0.02000,-0.00400,1.00500,0.08700,-0.12300,-0.01800,0.56000,0.45500,-1.31200,79.57000,0.17000
041225_04.33.23.682,-0.02100,-0.00100,1.00200,0.08700,-0.12300,-0.03500,0.56000,0.45500,-1.31200,80.18000,0.61000
041225_04.33.23.694,-0.01900,-0.00200,0.99900,0.10500,-0.14000,-0.01800,0.56300,0.45300,-1.31500,79.27000,-0.91000
041225_04.33.23.705,-0.02100,-0.00300,1.00400,0.10500,-0.12300,0.00000,0.55600,0.45100,-1.31700,79.33000,0.06000
041225_04.33.23.717,-0.02000,-0.00300,1.00100,0.08700,-0.10500,-0.01800,0.56300,0.45600,-1.31000,79.65000,0.32000
041225_04.33.23.728,-0.02000,-0.00400,1.00200,0.05300,-0.14000,0.00000,0.56400,0.45900,-1.30800,79.41000,-0.24000
041225_04.33.23.739,-0.02200,-0.00400,1.00100,0.10500,-0.12300,-0.01800,0.56400,0.45900,-1.30800,79.32000,-0.09000
041225_04.33.23.751,-0.02100,-0.00300,1.00300,0.07000,-0.12300,-0.03500,0.56000,0.45300,-1.30600,79.63000,0.31000
041225_04.33.23.762,-0.02000,-0.00300,1.00200,0.10500,-0.12300,-0.03500,0.56000,0.45600,-1.30800,80.04000,0.41000
041225_04.33.23.774,-0.02000,-0.00100,1.00200,0.08700,-0.10500,-0.03500,0.56000,0.45700,-1.29900,79.85000,-0.19000
041225_04.33.23.785,-0.02200,-0.00400,1.00600,0.08700,-0.14000,-0.03500,0.56000,0.45700,-1.31000,79.11000,-0.74000
041225_04.33.23.797,-0.02100,-0.00200,1.00200,0.08700,-0.12300,-0.03500,0.56100,0.45100,-1.31000,80.03000,0.92000
041225_04.33.23.808,-0.02200,-0.00200,1.00500,0.08700,-0.12300,-0.03500,0.55700,0.45700,-1.30900,79.90000,-0.13000
041225_04.33.23.820,-0.02100,-0.00200,1.00400,0.07000,-0.12300,-0.01800,0.55800,0.45600,-1.30100,79.68000,-0.22000
041225_04.33.23.831,-0.02100,-0.00300,1.00100,0.07000,-0.10500,-0.01800,0.55500,0.45200,-1.29900,79.67000,-0.01000
041225_04.33.23.842,-0.02100,-0.00300,1.00500,0.07000,-0.12300,-0.01800,0.55500,0.45200,-1.29900,80.03000,0.36000
041225_04.33.23.854,-0.02200,-0.00300,1.00000,0.08700,-0.14000,-0.03500,0.55200,0.46200,-1.30700,79.25000,-0.78000
041225_04.33.23.865,-0.02100,-0.00200,1.00300,0.08700,-0.10500,-0.03500,0.54700,0.45700,-1.31100,79.64000,0.39000
041225_04.33.23.877,-0.02200,-0.00300,1.00300,0.07000,-0.10500,-0.03500,0.54900,0.45500,-1.30800,79.61000,-0.03000
041225_04.33.23.888,-0.02200,-0.00200,1.00000,0.08700,-0.14000,-0.03500,0.54500,0.45800,-1.30300,79.70000,0.09000
041225_04.33.23.900,-0.02300,-0.00200,1.00500,0.10500,-0.12300,-0.03500,0.54500,0.45800,-1.30300,79.93000,0.23000
041225_04.33.23.911,-0.02100,-0.00200,1.00100,0.10500,-0.08700,-0.05300,0.54600,0.45600,-1.30900,78.98000,-0.95000
041225_04.33.23.923,-0.02200,-0.00300,1.00400,0.10500,-0.10500,-0.03500,0.55300,0.45700,-1.30500,79.72000,0.74000
041225_04.33.23.934,-0.02200,-0.00200,1.00000,0.08700,-0.12300,-0.01800,0.55400,0.45600,-1.31100,79.72000,0.00000
041225_04.33.23.946,-0.02200,-0.00100,1.00200,0.08700,-0.12300,-0.01800,0.55400,0.45600,-1.31100,80.08000,0.36000
041225_04.33.23.957,-0.02400,-0.00100,1.00200,0.07000,-0.08700,-0.01800,0.55600,0.45500,-1.31400,79.25000,-0.83000
041225_04.33.23.968,-0.02200,-0.00200,1.00000,0.07000,-0.10500,-0.01800,0.56000,0.45200,-1.31400,79.50000,0.25000
041225_04.33.23.980,-0.02300,-0.00300,1.00400,0.10500,-0.10500,-0.03500,0.56400,0.45200,-1.31100,79.49000,-0.01000
041225_04.33.23.991,-0.02200,-0.00200,1.00000,0.10500,-0.10500,-0.01800,0.56200,0.45300,-1.32300,79.72000,0.23000
041225_04.33.24.003,-0.02300,-0.00200,1.00300,0.12300,-0.12300,-0.03500,0.56200,0.45300,-1.32300,79.14000,-0.58000
041225_04.33.24.014,-0.02300,-0.00200,1.00400,0.10500,-0.12300,-0.01800,0.56100,0.45200,-1.31900,79.78000,0.64000
041225_04.33.24.026,-0.02100,-0.00200,1.00100,0.10500,-0.14000,-0.03500,0.56300,0.45300,-1.31500,80.13000,0.35000
041225_04.33.24.037,-0.02300,-0.00100,1.00400,0.08700,-0.15700,-0.01800,0.56400,0.45000,-1.31300,79.76000,-0.37000
041225_04.33.24.048,-0.02100,-0.00300,1.00100,0.07000,-0.14000,-0.01800,0.56400,0.45000,-1.31300,79.89000,0.13000
041225_04.33.24.060,-0.02200,-0.00200,1.00200,0.05300,-0.14000,-0.01800,0.55700,0.45500,-1.32000,79.20000,-0.69000
041225_04.33.24.071,-0.02300,-0.00400,1.00300,0.08700,-0.14000,-0.01800,0.55600,0.44900,-1.31900,79.41000,0.21000
041225_04.33.24.083,-0.02300,-0.00300,1.00200,0.07000,-0.12300,-0.05300,0.55500,0.45600,-1.31500,79.61000,0.20000
041225_04.33.24.094,-0.02200,-0.00200,1.00200,0.05300,-0.12300,-0.03500,0.55300,0.45800,-1.31500,78.91000,-0.70000
041225_04.33.24.106,-0.02200,-0.00300,1.00200,0.08700,-0.12300,-0.03500,0.55300,0.45800,-1.31500,79.92000,1.01000
041225_04.33.24.117,-0.02100,-0.00200,1.00400,0.08700,-0.12300,-0.03500,0.55200,0.45900,-1.31600,79.44000,-0.48000
041225_04.33.24.129,-0.02200,-0.00200,1.00100,0.10500,-0.14000,-0.03500,0.54600,0.45600,-1.31200,80.01000,0.57000
041225_04.33.24.140,-0.02200,-0.00300,1.00200,0.08700,-0.12300,-0.01800,0.54400,0.45500,-1.31200,79.23000,-0.78000
041225_04.33.24.151,-0.02200,-0.00300,1.00500,0.10500,-0.10500,-0.01800,0.54400,0.45400,-1.31300,79.30000,0.07000
041225_04.33.24.163,-0.02100,-0.00200,1.00100,0.12300,-0.15700,-0.03500,0.54800,0.45400,-1.31300,79.63000,0.33000
041225_04.33.24.174,-0.02000,-0.00200,1.00300,0.10500,-0.17500,-0.03500,0.54500,0.45900,-1.31100,79.86000,0.23000
041225_04.33.24.186,-0.02200,-0.00300,1.00200,0.12300,-0.14000,-0.01800,0.54400,0.45700,-1.31100,79.43000,-0.43000
041225_04.33.24.197,-0.02100,-0.00200,1.00200,0.10500,-0.12300,-0.01800,0.54500,0.46000,-1.30900,79.25000,-0.18000
041225_04.33.24.209,-0.02300,-0.00300,1.00400,0.10500,-0.14000,-0.01800,0.54500,0.46000,-1.30900,79.72000,0.47000
041225_04.33.24.220,-0.02000,-0.00100,1.00000,0.12300,-0.12300,-0.01800,0.54900,0.45600,-1.31500,79.08000,-0.64000
041225_04.33.24.231,-0.02200,-0.00300,1.00300,0.10500,-0.12300,-0.01800,0.55400,0.45500,-1.31300,80.21000,1.13000
041225_04.33.24.243,-0.02000,-0.00200,1.00200,0.10500,-0.12300,-0.03500,0.55500,0.45800,-1.32200,80.11000,-0.10000
041225_04.33.24.254,-0.02100,-0.00300,1.00500,0.10500,-0.12300,-0.01800,0.55200,0.45300,-1.31600,79.64000,-0.47000
041225_04.33.24.266,-0.02100,-0.00000,1.00000,0.10500,-0.14000,-0.01800,0.55200,0.45300,-1.31600,79.72000,0.08000
041225_04.33.24.277,-0.02100,-0.00200,1.00200,0.10500,-0.12300,-0.01800,0.55800,0.45300,-1.31500,79.94000,0.22000
041225_04.33.24.289,-0.02100,-0.00200,1.00300,0.12300,-0.12300,-0.03500,0.56400,0.45400,-1.31800,79.93000,-0.01000
041225_04.33.24.300,-0.02100,-0.00200,1.00000,0.08700,-0.12300,-0.03500,0.56300,0.45700,-1.32200,79.78000,-0.15000
041225_04.33.24.311,-0.02000,-0.00300,1.00300,0.08700,-0.14000,-0.03500,0.56300,0.45700,-1.32200,79.57000,-0.21000
041225_04.33.24.323,-0.02100,-0.00200,1.00100,0.10500,-0.14000,-0.03500,0.55900,0.45700,-1.31700,79.80000,0.23000
041225_04.33.24.334,-0.02100,-0.00200,1.00100,0.10500,-0.14000,-0.01800,0.55700,0.46000,-1.31500,79.85000,0.05000
041225_04.33.24.346,-0.02000,-0.00200,1.00300,0.10500,-0.12300,-0.01800,0.56000,0.45700,-1.31300,80.53000,0.68000
041225_04.33.24.357,-0.01900,-0.00200,0.99900,0.10500,-0.12300,-0.03500,0.55700,0.46000,-1.31100,79.83000,-0.70000
041225_04.33.24.369,-0.02200,-0.00300,1.00100,0.10500,-0.12300,-0.03500,0.55700,0.46000,-1.31100,79.58000,-0.25000
041225_04.33.24.380,-0.02200,-0.00200,1.00400,0.10500,-0.14000,-0.03500,0.55200,0.45600,-1.31500,79.49000,-0.09000
041225_04.33.24.392,-0.02200,-0.00100,1.00100,0.10500,-0.10500,-0.01800,0.55100,0.45700,-1.30900,79.75000,0.26000
041225_04.33.24.403,-0.02200,-0.00300,1.00500,0.10500,-0.12300,-0.01800,0.55200,0.45800,-1.30700,80.27000,0.52000
041225_04.33.24.415,-0.02100,-0.00100,1.00100,0.10500,-0.12300,-0.01800,0.55200,0.45800,-1.30900,79.63000,-0.64000
041225_04.33.24.426,-0.02100,-0.00200,1.00400,0.12300,-0.12300,-0.01800,0.54400,0.46000,-1.30900,78.96000,-0.67000
041225_04.33.24.438,-0.02200,-0.00100,1.00100,0.08700,-0.12300,-0.01800,0.54500,0.46200,-1.30900,79.95000,0.99000
041225_04.33.24.449,-0.02200,-0.00200,1.00400,0.08700,-0.12300,-0.01800,0.54500,0.46000,-1.31100,79.06000,-0.89000
041225_04.33.24.461,-0.02000,-0.00300,1.00100,0.08700,-0.12300,-0.01800,0.54800,0.45700,-1.31400,80.18000,1.12000
041225_04.33.24.472,-0.02300,-0.00200,1.00400,0.10500,-0.12300,-0.01800,0.54800,0.45700,-1.31400,79.78000,-0.40000
041225_04.33.24.483,-0.02200,-0.00300,1.00400,0.07000,-0.14000,-0.01800,0.54800,0.45600,-1.31600,79.63000,-0.15000
041225_04.33.24.495,-0.02100,-0.00200,1.00100,0.08700,-0.12300,-0.03500,0.55000,0.46200,-1.31800,79.66000,0.03000
041225_04.33.24.506,-0.02300,-0.00300,1.00300,0.07000,-0.12300,-0.03500,0.55400,0.45900,-1.31600,79.63000,-0.03000
041225_04.33.24.518,-0.02200,-0.00400,1.00300,0.08700,-0.10500,-0.01800,0.56000,0.45500,-1.30700,79.17000,-0.46000
041225_04.33.24.529,-0.02200,-0.00200,1.00200,0.08700,-0.12300,-0.01800,0.56000,0.45500,-1.30700,79.46000,0.29000
041225_04.33.24.541,-0.02100,-0.00400,1.00300,0.08700,-0.10500,-0.01800,0.55800,0.45300,-1.32200,80.01000,0.55000
041225_04.33.24.552,-0.02000,-0.00300,0.99900,0.08700,-0.12300,-0.03500,0.56400,0.45200,-1.31500,80.20000,0.19000
041225_04.33.24.564,-0.02100,-0.00400,1.00200,0.12300,-0.12300,-0.03500,0.56400,0.45700,-1.31000,79.60000,-0.60000
041225_04.33.24.575,-0.02100,-0.00300,1.00300,0.10500,-0.10500,-0.03500,0.56400,0.45700,-1.31000,79.29000,-0.31000
041225_04.33.24.586,-0.02100,-0.00300,1.00000,0.10500,-0.12300,-0.01800,0.56200,0.45900,-1.31500,79.95000,0.66000
041225_04.33.24.598,-0.02100,-0.00400,0.99900,0.10500,-0.12300,-0.01800,0.56500,0.45800,-1.31200,79.37000,-0.58000
041225_04.33.24.609,-0.02000,-0.00400,1.00200,0.08700,-0.14000,-0.01800,0.56100,0.45900,-1.30200,79.44000,0.07000
041225_04.33.24.621,-0.02000,-0.00300,1.00500,0.10500,-0.14000,-0.01800,0.55700,0.45800,-1.30500,79.72000,0.28000
041225_04.33.24.632,-0.01800,-0.00100,0.99900,0.12300,-0.12300,-0.01800,0.55700,0.45800,-1.30500,80.25000,0.53000
041225_04.33.24.644,-0.02000,-0.00200,1.00400,0.08700,-0.12300,-0.03500,0.55500,0.45500,-1.30800,80.00000,-0.25000
041225_04.33.24.655,-0.02000,-0.00100,1.00200,0.08700,-0.10500,-0.03500,0.55800,0.45300,-1.30800,80.07000,0.07000
041225_04.33.24.666,-0.02100,-0.00100,1.00300,0.10500,-0.10500,-0.05300,0.55300,0.46000,-1.30900,78.93000,-1.14000
041225_04.33.24.678,-0.02000,-0.00200,1.00500,0.08700,-0.12300,-0.03500,0.55300,0.46000,-1.30900,79.06000,0.13000
041225_04.33.24.689,-0.02000,0.00100,1.00100,0.08700,-0.12300,-0.01800,0.55100,0.46100,-1.31900,79.86000,0.80000
041225_04.33.24.701,-0.02100,-0.00100,1.00400,0.08700,-0.10500,-0.01800,0.54900,0.45600,-1.31100,80.02000,0.16000
041225_04.33.24.712,-0.02000,-0.00100,1.00400,0.08700,-0.12300,-0.01800,0.54800,0.45800,-1.30700,79.46000,-0.56000
041225_04.33.24.724,-0.02000,-0.00100,1.00100,0.08700,-0.12300,-0.01800,0.55000,0.45800,-1.31100,79.67000,0.21000
041225_04.33.24.735,-0.02100,-0.00000,1.00400,0.08700,-0.12300,-0.03500,0.55000,0.45800,-1.31100,79.57000,-0.10000
041225_04.33.24.747,-0.02100,-0.00200,1.00000,0.08700,-0.12300,-0.03500,0.55300,0.45500,-1.31500,79.12000,-0.45000
041225_04.33.24.758,-0.02100,-0.00100,1.00300,0.08700,-0.12300,-0.01800,0.55000,0.45600,-1.31200,79.55000,0.43000
041225_04.33.24.769,-0.02100,-0.00200,0.99900,0.08700,-0.10500,-0.01800,0.55200,0.45500,-1.31000,79.78000,0.23000
041225_04.33.24.781,-0.02200,-0.00100,1.00300,0.10500,-0.10500,0.00000,0.55000,0.45600,-1.31000,79.94000,0.16000
041225_04.33.24.792,-0.02300,-0.00200,1.00200,0.08700,-0.12300,-0.01800,0.55000,0.45600,-1.31000,79.76000,-0.18000
041225_04.33.24.804,-0.02200,-0.00200,1.00200,0.10500,-0.12300,-0.01800,0.55700,0.45600,-1.31900,79.66000,-0.10000
041225_04.33.24.815,-0.02200,-0.00100,1.00500,0.08700,-0.10500,-0.01800,0.55700,0.45600,-1.31500,79.44000,-0.22000
041225_04.33.24.827,-0.02100,-0.00100,0.99900,0.08700,-0.10500,-0.01800,0.55800,0.45600,-1.31200,79.50000,0.06000
041225_04.33.24.838,-0.02500,-0.00300,1.00400,0.08700,-0.10500,-0.01800,0.55800,0.45600,-1.31200,79.66000,0.16000
041225_04.33.24.850,-0.02300,-0.00200,1.00100,0.08700,-0.14000,-0.03500,0.56100,0.45500,-1.31400,80.24000,0.58000
041225_04.33.24.861,-0.02300,-0.00300,1.00000,0.08700,-0.14000,-0.01800,0.56300,0.45700,-1.31700,79.93000,-0.31000
041225_04.33.24.873,-0.02200,-0.00300,1.00300,0.08700,-0.10500,-0.03500,0.55900,0.45800,-1.31800,79.83000,-0.10000
041225_04.33.24.884,-0.02200,-0.00200,0.99900,0.08700,-0.14000,-0.01800,0.56100,0.45800,-1.31200,79.19000,-0.64000
041225_04.33.24.895,-0.02200,-0.00200,1.00200,0.10500,-0.14000,-0.01800,0.56100,0.45800,-1.31200,79.48000,0.29000
041225_04.33.24.907,-0.02100,-0.00300,1.00300,0.10500,-0.15700,-0.01800,0.56200,0.45900,-1.32000,80.18000,0.70000
041225_04.33.24.918,-0.02100,-0.00100,1.00100,0.08700,-0.14000,-0.01800,0.56100,0.46100,-1.31100,79.38000,-0.80000
041225_04.33.24.930,-0.02100,-0.00400,1.00200,0.10500,-0.14000,-0.01800,0.55500,0.46100,-1.31700,79.09000,-0.29000
041225_04.33.24.941,-0.02200,-0.00400,1.00100,0.10500,-0.14000,-0.01800,0.55500,0.46100,-1.31700,79.54000,0.45000
041225_04.33.24.953,-0.02200,-0.00300,1.00300,0.08700,-0.12300,-0.03500,0.55800,0.46000,-1.31400,79.61000,0.07000
041225_04.33.24.964,-0.02100,-0.00200,0.99800,0.12300,-0.14000,-0.03500,0.55100,0.45500,-1.31100,80.22000,0.61000
041225_04.33.24.975,-0.02000,-0.00400,1.00300,0.14000,-0.12300,-0.05300,0.55300,0.45600,-1.31600,79.70000,-0.52000
041225_04.33.24.987,-0.02100,-0.00300,1.00300,0.10500,-0.12300,-0.05300,0.54900,0.45700,-1.30700,79.48000,-0.22000
041225_04.33.24.998,-0.02000,-0.00200,1.00000,0.08700,-0.12300,-0.03500,0.54900,0.45700,-1.30700,79.15000,-0.33000
041225_04.33.25.010,-0.02100,-0.00200,1.00500,0.08700,-0.12300,-0.03500,0.54700,0.45600,-1.30900,79.64000,0.49000
041225_04.33.25.021,-0.01900,-0.00200,1.00200,0.07000,-0.12300,-0.05300,0.54600,0.46100,-1.31200,80.18000,0.54000
041225_04.33.25.033,-0.02100,-0.00200,1.00500,0.07000,-0.10500,-0.01800,0.54400,0.45700,-1.31300,80.02000,-0.16000
041225_04.33.25.044,-0.01900,-0.00200,1.00400,0.10500,-0.08700,-0.01800,0.54400,0.45500,-1.30800,79.58000,-0.44000
041225_04.33.25.055,-0.02000,-0.00100,0.99900,0.08700,-0.12300,-0.01800,0.55300,0.45500,-1.30800,79.61000,0.03000
041225_04.33.25.067,-0.02100,-0.00200,1.00300,0.08700,-0.10500,-0.03500,0.55200,0.45800,-1.31200,79.92000,0.31000
041225_04.33.25.078,-0.02000,-0.00100,1.00100,0.08700,-0.12300,-0.03500,0.55800,0.46200,-1.30800,79.32000,-0.60000
041225_04.33.25.090,-0.02100,-0.00000,1.00100,0.07000,-0.12300,-0.03500,0.55900,0.46100,-1.31200,78.96000,-0.36000
041225_04.33.25.101,-0.02100,-0.00200,1.00300,0.10500,-0.12300,-0.03500,0.55900,0.46100,-1.31200,79.46000,0.50000
041225_04.33.25.113,-0.02100,-0.00100,1.00400,0.08700,-0.10500,-0.03500,0.56000,0.45900,-1.31500,80.05000,0.59000
041225_04.33.25.124,-0.02100,-0.00100,1.00300,0.08700,-0.14000,-0.01800,0.56000,0.46000,-1.31800,79.86000,-0.19000
041225_04.33.25.136,-0.02000,-0.00100,1.00100,0.10500,-0.12300,-0.01800,0.56500,0.46000,-1.30900,79.44000,-0.42000
041225_04.33.25.147,-0.02200,-0.00200,1.00300,0.10500,-0.12300,-0.01800,0.56000,0.45600,-1.31500,79.76000,0.32000
041225_04.33.25.158,-0.02100,-0.00000,1.00100,0.10500,-0.14000,-0.01800,0.56000,0.45600,-1.31500,80.01000,0.25000
041225_04.33.25.170,-0.02200,-0.00100,1.00300,0.12300,-0.12300,-0.01800,0.57100,0.45900,-1.30800,79.32000,-0.69000
041225_04.33.25.181,-0.02200,-0.00200,1.00500,0.08700,-0.12300,-0.01800,0.56000,0.45700,-1.31500,79.69000,0.37000
041225_04.33.25.193,-0.02100,-0.00100,1.00000,0.12300,-0.12300,-0.03500,0.56200,0.46200,-1.30900,80.08000,0.39000
041225_04.33.25.204,-0.02400,-0.00200,1.00500,0.10500,-0.12300,-0.03500,0.56200,0.46200,-1.30900,79.76000,-0.32000
041225_04.33.25.216,-0.02100,-0.00300,1.00200,0.10500,-0.14000,-0.03500,0.55800,0.46000,-1.31300,79.96000,0.20000
041225_04.33.25.227,-0.02200,-0.00100,1.00200,0.08700,-0.14000,0.00000,0.55400,0.45900,-1.31200,79.85000,-0.11000
041225_04.33.25.239,-0.02200,-0.00400,1.00500,0.08700,-0.10500,-0.01800,0.55700,0.46500,-1.30800,79.68000,-0.17000
041225_04.33.25.250,-0.02100,-0.00200,0.99900,0.08700,-0.10500,-0.03500,0.55000,0.46400,-1.31400,80.32000,0.64000
041225_04.33.25.261,-0.02300,-0.00300,1.00400,0.08700,-0.15700,-0.03500,0.55000,0.46400,-1.31400,79.23000,-1.09000
041225_04.33.25.273,-0.02200,-0.00300,1.00200,0.08700,-0.14000,-0.01800,0.54900,0.46000,-1.31100,80.06000,0.83000
041225_04.33.25.284,-0.02300,-0.00400,1.00200,0.10500,-0.12300,-0.03500,0.54900,0.45700,-1.31200,80.17000,0.11000
041225_04.33.25.296,-0.02100,-0.00200,1.00100,0.10500,-0.12300,-0.03500,0.55000,0.45800,-1.31900,80.03000,-0.14000
041225_04.33.25.307,-0.02100,-0.00300,1.00200,0.10500,-0.12300,-0.01800,0.55000,0.45800,-1.31900,79.58000,-0.45000
041225_04.33.25.319,-0.02100,-0.00300,1.00200,0.08700,-0.12300,-0.03500,0.54800,0.46000,-1.31800,79.81000,0.23000
041225_04.33.25.330,-0.02000,-0.00300,1.00000,0.08700,-0.14000,-0.01800,0.54700,0.46000,-1.32100,79.29000,-0.52000
041225_04.33.25.341,-0.02300,-0.00300,1.00200,0.12300,-0.14000,-0.03500,0.55100,0.45800,-1.32100,79.58000,0.29000
041225_04.33.25.353,-0.02100,-0.00500,1.00200,0.10500,-0.12300,-0.01800,0.55600,0.46100,-1.32100,79.75000,0.17000
041225_04.33.25.364,-0.02100,-0.00200,1.00000,0.08700,-0.14000,-0.05300,0.55600,0.46100,-1.32100,80.15000,0.40000
041225_04.33.25.376,-0.02200,-0.00400,1.00400,0.07000,-0.14000,-0.03500,0.55700,0.45600,-1.31900,79.66000,-0.49000
041225_04.33.25.388,-0.02000,-0.00300,0.99900,0.08700,-0.14000,-0.03500,0.56200,0.45500,-1.32300,79.68000,0.02000
041225_04.33.25.399,-0.02100,-0.00300,1.00400,0.08700,-0.14000,-0.01800,0.56100,0.45400,-1.31900,79.98000,0.30000
041225_04.33.25.410,-0.02100,-0.00300,1.00300,0.08700,-0.14000,-0.03500,0.56600,0.45500,-1.32200,79.51000,-0.47000
041225_04.33.25.422,-0.02100,-0.00200,1.00100,0.08700,-0.12300,-0.03500,0.56600,0.45500,-1.32200,80.00000,0.49000
041225_04.33.25.433,-0.02000,-0.00300,1.00500,0.10500,-0.10500,-0.03500,0.56300,0.46000,-1.31400,79.63000,-0.37000
041225_04.33.25.445,-0.02000,-0.00200,1.00400,0.10500,-0.12300,-0.01800,0.56000,0.46000,-1.31600,79.29000,-0.34000
041225_04.33.25.456,-0.01900,-0.00200,1.00200,0.10500,-0.12300,-0.03500,0.56300,0.45800,-1.31700,79.44000,0.15000
041225_04.33.25.468,-0.02000,-0.00300,1.00000,0.10500,-0.12300,-0.01800,0.56300,0.45800,-1.31700,80.03000,0.59000
041225_04.33.25.479,-0.02000,-0.00200,1.00300,0.10500,-0.10500,-0.05300,0.56300,0.45700,-1.32200,79.81000,-0.22000
041225_04.33.25.491,-0.02000,-0.00200,1.00200,0.10500,-0.14000,-0.03500,0.55800,0.46400,-1.31200,80.42000,0.61000
041225_04.33.25.502,-0.02000,-0.00100,1.00100,0.08700,-0.12300,-0.01800,0.55200,0.45900,-1.31400,79.36000,-1.06000
041225_04.33.25.514,-0.02000,-0.00200,1.00400,0.10500,-0.10500,0.00000,0.54900,0.46100,-1.31200,79.49000,0.13000
041225_04.33.25.525,-0.02100,-0.00000,1.00100,0.10500,-0.14000,-0.01800,0.54900,0.46100,-1.31200,79.86000,0.37000
041225_04.33.25.536,-0.02100,-0.00200,1.00300,0.10500,-0.12300,0.00000,0.54800,0.45800,-1.31000,79.81000,-0.05000
041225_04.33.25.548,-0.02100,-0.00100,1.00200,0.10500,-0.12300,-0.01800,0.55100,0.45900,-1.31500,79.56000,-0.25000
041225_04.33.25.559,-0.02200,-0.00000,1.00100,0.07000,-0.12300,-0.01800,0.54600,0.46100,-1.31500,80.52000,0.96000
041225_04.33.25.571,-0.02300,-0.00200,1.00400,0.10500,-0.12300,-0.01800,0.54600,0.46100,-1.31500,79.60000,-0.92000
041225_04.33.25.582,-0.02000,-0.00100,1.00100,0.08700,-0.14000,0.00000,0.54600,0.45600,-1.31200,79.83000,0.23000
041225_04.33.25.594,-0.02300,-0.00100,1.00400,0.10500,-0.12300,0.00000,0.54700,0.46100,-1.31100,79.68000,-0.15000
041225_04.33.25.605,-0.02200,-0.00300,1.00300,0.08700,-0.14000,-0.01800,0.54200,0.45700,-1.31700,79.45000,-0.23000
041225_04.33.25.617,-0.02100,-0.00300,1.00500,0.08700,-0.12300,-0.01800,0.54800,0.45400,-1.31900,80.46000,1.01000
041225_04.33.25.628,-0.02200,-0.00100,1.00000,0.10500,-0.12300,0.00000,0.54800,0.45400,-1.31900,79.76000,-0.70000
041225_04.33.25.639,-0.02200,-0.00200,1.00100,0.10500,-0.10500,-0.01800,0.55600,0.45800,-1.31800,80.40000,0.64000
041225_04.33.25.651,-0.02300,-0.00400,1.00400,0.10500,-0.12300,-0.01800,0.55600,0.45400,-1.31100,79.28000,-1.12000
041225_04.33.25.662,-0.02100,-0.00100,1.00100,0.08700,-0.10500,-0.01800,0.56200,0.45200,-1.31800,79.78000,0.50000
041225_04.33.25.674,-0.02300,-0.00300,1.00500,0.10500,-0.12300,-0.01800,0.56200,0.45700,-1.31100,80.06000,0.28000
041225_04.33.25.685,-0.02100,-0.00300,1.00300,0.08700,-0.14000,-0.01800,0.55800,0.45700,-1.31100,79.60000,-0.46000
041225_04.33.25.697,-0.02400,-0.00200,1.00200,0.08700,-0.12300,-0.01800,0.56100,0.45300,-1.31700,79.24000,-0.36000
041225_04.33.25.708,-0.02200,-0.00400,1.00300,0.10500,-0.10500,-0.01800,0.56300,0.45600,-1.31100,79.81000,0.57000
041225_04.33.25.719,-0.02000,-0.00200,1.00100,0.10500,-0.12300,-0.01800,0.56200,0.45600,-1.31500,79.73000,-0.08000
041225_04.33.25.731,-0.02100,-0.00200,1.00100,0.10500,-0.14000,-0.01800,0.56200,0.45600,-1.31500,80.22000,0.49000
041225_04.33.25.742,-0.02200,-0.00300,1.00300,0.08700,-0.12300,-0.03500,0.56400,0.45700,-1.32000,79.68000,-0.54000
041225_04.33.25.754,-0.02200,-0.00400,0.99900,0.07000,-0.12300,-0.03500,0.55500,0.45800,-1.31800,80.42000,0.74000
041225_04.33.25.765,-0.02300,-0.00400,1.00500,0.08700,-0.10500,-0.03500,0.55500,0.45700,-1.31300,79.68000,-0.74000
041225_04.33.25.777,-0.02000,-0.00300,1.00000,0.08700,-0.12300,-0.01800,0.55400,0.45700,-1.30500,80.27000,0.59000
041225_04.33.25.788,-0.02200,-0.00300,1.00400,0.08700,-0.14000,-0.01800,0.55400,0.45700,-1.30500,79.57000,-0.70000
041225_04.33.25.800,-0.01800,-0.00300,1.00100,0.08700,-0.14000,-0.03500,0.55400,0.46000,-1.30700,80.42000,0.85000
041225_04.33.25.811,-0.02200,-0.00300,1.00500,0.08700,-0.14000,-0.01800,0.54700,0.45700,-1.30400,79.70000,-0.72000
041225_04.33.25.822,-0.02000,-0.00300,1.00200,0.08700,-0.12300,-0.01800,0.54600,0.45700,-1.30300,80.00000,0.30000
041225_04.33.25.834,-0.02200,-0.00300,1.00200,0.10500,-0.12300,-0.01800,0.54600,0.45700,-1.30300,79.54000,-0.46000
041225_04.33.25.845,-0.02100,-0.00400,1.00400,0.10500,-0.12300,-0.03500,0.54300,0.45700,-1.31300,79.13000,-0.41000
041225_04.33.25.857,-0.01900,-0.00200,1.00100,0.14000,-0.15700,-0.03500,0.54500,0.45300,-1.31300,80.03000,0.90000
041225_04.33.25.868,-0.02200,-0.00400,1.00300,0.10500,-0.14000,-0.01800,0.54700,0.45800,-1.31000,79.68000,-0.35000
041225_04.33.25.880,-0.02000,-0.00400,1.00300,0.08700,-0.12300,-0.03500,0.54400,0.45900,-1.30800,79.57000,-0.11000
041225_04.33.25.891,-0.02200,-0.00300,1.00100,0.12300,-0.14000,-0.01800,0.54400,0.45900,-1.30800,80.30000,0.73000
041225_04.33.25.903,-0.02200,-0.00100,1.00300,0.12300,-0.10500,-0.01800,0.54400,0.45500,-1.31000,79.93000,-0.37000
041225_04.33.25.914,-0.02000,-0.00200,1.00100,0.12300,-0.12300,-0.01800,0.55700,0.45600,-1.30800,79.97000,0.04000
041225_04.33.25.925,-0.02100,-0.00200,1.00200,0.12300,-0.12300,-0.01800,0.55800,0.45700,-1.31300,80.37000,0.40000
041225_04.33.25.937,-0.02300,-0.00300,1.00300,0.10500,-0.12300,0.00000,0.55800,0.45700,-1.31300,80.29000,-0.08000
041225_04.33.25.948,-0.02000,0.00000,1.00000,0.08700,-0.14000,-0.03500,0.55700,0.45300,-1.31000,80.27000,-0.02000
041225_04.33.25.960,-0.02200,-0.00100,1.00100,0.10500,-0.12300,-0.01800,0.56300,0.45400,-1.31100,80.18000,-0.09000
041225_04.33.25.971,-0.02200,-0.00100,1.00100,0.07000,-0.10500,-0.01800,0.56500,0.45800,-1.31500,80.16000,-0.02000
041225_04.33.25.983,-0.02400,-0.00200,1.00400,0.08700,-0.12300,-0.03500,0.56100,0.45500,-1.31800,79.94000,-0.22000
041225_04.33.25.994,-0.02000,-0.00100,1.00100,0.08700,-0.12300,-0.03500,0.56100,0.45500,-1.31800,80.09000,0.15000
041225_04.33.26.006,-0.02200,-0.00200,1.00300,0.08700,-0.12300,-0.01800,0.56700,0.45500,-1.31900,80.07000,-0.02000
041225_04.33.26.017,-0.02200,-0.00200,1.00300,0.08700,-0.12300,-0.03500,0.56300,0.45600,-1.30600,79.60000,-0.47000
041225_04.33.26.028,-0.02100,-0.00300,1.00100,0.08700,-0.14000,-0.01800,0.55700,0.45200,-1.31400,79.54000,-0.06000
041225_04.33.26.040,-0.02200,-0.00200,1.00500,0.08700,-0.14000,-0.01800,0.55700,0.45400,-1.31300,79.24000,-0.30000
041225_04.33.26.051,-0.02100,-0.00000,1.00100,0.08700,-0.15700,-0.05300,0.55700,0.45400,-1.31300,79.19000,-0.05000
041225_04.33.26.063,-0.02200,-0.00200,1.00200,0.08700,-0.12300,-0.03500,0.56000,0.45600,-1.31000,79.28000,0.09000
041225_04.33.26.074,-0.02000,-0.00200,1.00400,0.08700,-0.12300,-0.03500,0.55400,0.45800,-1.30900,80.45000,1.17000
041225_04.33.26.086,-0.02100,-0.00300,1.00100,0.10500,-0.12300,0.00000,0.55100,0.46000,-1.30900,80.49000,0.04000
041225_04.33.26.097,-0.02200,-0.00200,1.00300,0.08700,-0.12300,-0.03500,0.55100,0.46000,-1.30900,80.07000,-0.42000
041225_04.33.26.109,-0.02000,-0.00300,1.00200,0.07000,-0.14000,-0.03500,0.55300,0.45900,-1.30300,80.37000,0.30000
041225_04.33.26.120,-0.02100,-0.00100,1.00000,0.08700,-0.14000,-0.01800,0.54900,0.45700,-1.30900,79.62000,-0.75000
041225_04.33.26.131,-0.02000,-0.00400,1.00200,0.08700,-0.14000,-0.03500,0.54500,0.45700,-1.30800,79.40000,-0.22000
041225_04.33.26.143,-0.02200,-0.00200,1.00100,0.10500,-0.14000,-0.01800,0.54700,0.45800,-1.31200,79.79000,0.39000
041225_04.33.26.154,-0.02100,-0.00200,1.00300,0.08700,-0.12300,-0.01800,0.54700,0.45800,-1.31200,79.49000,-0.30000
041225_04.33.26.166,-0.02100,-0.00200,1.00100,0.10500,-0.10500,0.00000,0.55500,0.45800,-1.31500,79.51000,0.02000
041225_04.33.26.177,-0.02300,-0.00200,1.00500,0.08700,-0.12300,0.00000,0.55000,0.46200,-1.31500,79.94000,0.43000
041225_04.33.26.188,-0.02000,-0.00200,1.00000,0.08700,-0.14000,-0.01800,0.55400,0.46000,-1.31400,80.08000,0.14000
041225_04.33.26.200,-0.02000,-0.00200,1.00100,0.08700,-0.10500,-0.01800,0.55400,0.46000,-1.31400,80.48000,0.40000
041225_04.33.26.211,-0.02100,-0.00400,1.00400,0.10500,-0.10500,-0.03500,0.55700,0.45800,-1.31200,79.61000,-0.87000
041225_04.33.26.223,-0.02100,-0.00200,1.00100,0.10500,-0.08700,-0.01800,0.55600,0.45800,-1.30500,80.64000,1.03000
041225_04.33.26.234,-0.02200,-0.00300,1.00200,0.12300,-0.12300,-0.03500,0.56200,0.45700,-1.31600,79.78000,-0.86000
041225_04.33.26.246,-0.02100,-0.00400,1.00000,0.10500,-0.10500,-0.01800,0.56600,0.45700,-1.32400,80.02000,0.24000
041225_04.33.26.257,-0.02200,-0.00300,1.00100,0.10500,-0.10500,0.00000,0.56600,0.45700,-1.32400,79.95000,-0.07000
041225_04.33.26.269,-0.02100,-0.00400,1.00400,0.10500,-0.12300,-0.01800,0.56100,0.45600,-1.31700,80.16000,0.21000
041225_04.33.26.280,-0.02100,-0.00200,0.99900,0.10500,-0.12300,-0.01800,0.56400,0.45300,-1.30500,79.84000,-0.32000
041225_04.33.26.292,-0.02100,-0.00300,1.00200,0.12300,-0.14000,-0.01800,0.56100,0.45100,-1.30700,79.98000,0.14000
041225_04.33.26.303,-0.02100,-0.00200,1.00000,0.10500,-0.12300,-0.05300,0.56100,0.45100,-1.30800,79.78000,-0.20000
041225_04.33.26.314,-0.02200,-0.00200,1.00400,0.10500,-0.10500,-0.03500,0.56200,0.45800,-1.30800,79.91000,0.13000
041225_04.33.26.326,-0.02000,-0.00200,0.99900,0.08700,-0.14000,-0.01800,0.56200,0.45800,-1.30500,79.74000,-0.17000
041225_04.33.26.337,-0.02000,-0.00200,1.00100,0.10500,-0.14000,0.00000,0.55700,0.45700,-1.30900,79.56000,-0.18000
041225_04.33.26.349,-0.02200,-0.00300,1.00300,0.10500,-0.14000,0.01800,0.55800,0.45900,-1.30800,80.11000,0.55000
041225_04.33.26.360,-0.02100,-0.00200,1.00000,0.08700,-0.14000,0.00000,0.55800,0.45900,-1.30800,79.96000,-0.15000
041225_04.33.26.372,-0.02200,-0.00100,1.00500,0.10500,-0.12300,-0.01800,0.55300,0.46100,-1.31000,80.48000,0.52000
041225_04.33.26.383,-0.02300,-0.00300,1.00100,0.10500,-0.12300,-0.01800,0.54700,0.46100,-1.30600,80.38000,-0.10000
041225_04.33.26.395,-0.02200,-0.00200,1.00300,0.10500,-0.12300,-0.01800,0.54200,0.45800,-1.31200,79.96000,-0.42000
041225_04.33.26.406,-0.02300,-0.00300,1.00400,0.08700,-0.10500,-0.01800,0.53700,0.45600,-1.31200,80.08000,0.12000
041225_04.33.26.418,-0.02000,-0.00100,1.00200,0.08700,-0.14000,-0.03500,0.53700,0.45600,-1.31200,79.69000,-0.39000
041225_04.33.26.430,-0.02300,-0.00100,1.00400,0.07000,-0.10500,-0.01800,0.54500,0.46100,-1.31000,80.02000,0.33000
041225_04.33.26.441,-0.02100,-0.00200,1.00300,0.07000,-0.08700,-0.03500,0.54700,0.45500,-1.31000,80.31000,0.29000
041225_04.33.26.453,-0.02200,-0.00200,1.00100,0.08700,-0.12300,-0.03500,0.54800,0.45500,-1.31600,80.18000,-0.13000
041225_04.33.26.464,-0.02200,-0.00200,1.00500,0.07000,-0.12300,-0.03500,0.54800,0.45500,-1.31600,80.15000,-0.03000
041225_04.33.26.476,-0.02100,-0.00200,1.00400,0.08700,-0.10500,-0.03500,0.55200,0.45800,-1.31300,79.97000,-0.18000
041225_04.33.26.488,-0.02100,-0.00200,1.00400,0.08700,-0.12300,-0.03500,0.56200,0.45600,-1.31800,80.01000,0.04000
041225_04.33.26.500,-0.02100,-0.00200,1.00000,0.08700,-0.14000,-0.03500,0.55900,0.45400,-1.32200,79.69000,-0.32000
041225_04.33.26.511,-0.02200,-0.00200,1.00300,0.10500,-0.14000,-0.01800,0.56300,0.45200,-1.31600,80.64000,0.95000
041225_04.33.26.523,-0.02000,-0.00300,1.00100,0.10500,-0.14000,-0.03500,0.56300,0.45200,-1.31600,80.06000,-0.58000
041225_04.33.26.534,-0.02100,-0.00200,1.00200,0.10500,-0.14000,-0.03500,0.56000,0.45400,-1.30900,79.92000,-0.14000
041225_04.33.26.546,-0.02200,-0.00400,1.00300,0.10500,-0.12300,-0.03500,0.56500,0.45600,-1.31300,79.81000,-0.11000
041225_04.33.26.557,-0.02000,-0.00300,1.00000,0.10500,-0.12300,-0.03500,0.56400,0.45800,-1.31300,79.72000,-0.09000
041225_04.33.26.569,-0.02200,-0.00200,1.00400,0.08700,-0.12300,-0.03500,0.56400,0.45800,-1.31300,79.39000,-0.33000
041225_04.33.26.581,-0.02100,-0.00300,1.00200,0.08700,-0.12300,-0.01800,0.56200,0.45700,-1.30700,80.03000,0.64000
041225_04.33.26.593,-0.02100,-0.00100,1.00100,0.10500,-0.12300,0.00000,0.56400,0.45700,-1.30300,79.92000,-0.11000
041225_04.33.26.604,-0.02200,-0.00400,1.00300,0.08700,-0.12300,-0.01800,0.56100,0.45900,-1.30200,80.16000,0.24000
041225_04.33.26.616,-0.02000,-0.00100,0.99800,0.10500,-0.14000,-0.01800,0.55400,0.45700,-1.30600,80.16000,0.00000
041225_04.33.26.627,-0.02100,-0.00300,1.00300,0.10500,-0.12300,-0.01800,0.55400,0.45700,-1.30600,80.28000,0.12000
041225_04.33.26.639,-0.02000,-0.00300,1.00200,0.10500,-0.15700,-0.03500,0.55400,0.46100,-1.30300,80.24000,-0.04000
041225_04.33.26.650,-0.02100,-0.00400,1.00300,0.10500,-0.15700,0.00000,0.54600,0.45700,-1.30100,79.82000,-0.42000
041225_04.33.26.662,-0.02100,-0.00300,1.00100,0.08700,-0.14000,-0.01800,0.55400,0.45500,-1.30300,79.34000,-0.48000
041225_04.33.26.673,-0.02100,-0.00300,1.00300,0.10500,-0.10500,-0.03500,0.54500,0.45200,-1.31000,80.26000,0.92000
041225_04.33.26.685,-0.02200,-0.00300,1.00500,0.10500,-0.10500,-0.01800,0.54500,0.45200,-1.31000,79.66000,-0.60000
041225_04.33.26.696,-0.02000,-0.00200,1.00000,0.08700,-0.14000,-0.01800,0.55300,0.45200,-1.30800,79.76000,0.10000
041225_04.33.26.707,-0.02100,-0.00200,1.00300,0.10500,-0.10500,-0.01800,0.54400,0.45300,-1.31300,80.42000,0.66000
041225_04.33.26.719,-0.02200,-0.00200,1.00300,0.08700,-0.12300,-0.03500,0.54800,0.45300,-1.30700,79.57000,-0.85000
041225_04.33.26.730,-0.02100,-0.00200,1.00200,0.07000,-0.10500,-0.03500,0.54800,0.45300,-1.30700,79.39000,-0.18000
041225_04.33.26.742,-0.02200,-0.00300,1.00400,0.08700,-0.10500,-0.01800,0.55300,0.45700,-1.31100,80.32000,0.93000
041225_04.33.26.753,-0.02000,-0.00100,0.99900,0.07000,-0.12300,-0.03500,0.55600,0.45600,-1.30800,80.13000,-0.19000
041225_04.33.26.765,-0.02200,-0.00300,1.00300,0.08700,-0.10500,-0.05300,0.55100,0.45300,-1.31100,79.47000,-0.66000
041225_04.33.26.777,-0.02100,-0.00200,1.00300,0.08700,-0.14000,-0.01800,0.55700,0.45200,-1.31200,80.08000,0.61000
041225_04.33.26.788,-0.02100,-0.00000,1.00000,0.08700,-0.14000,-0.01800,0.55700,0.45200,-1.31200,80.04000,-0.04000
041225_04.33.26.800,-0.02200,-0.00200,1.00400,0.08700,-0.12300,-0.01800,0.56000,0.45000,-1.31700,80.42000,0.38000
041225_04.33.26.811,-0.02000,-0.00200,1.00100,0.08700,-0.12300,-0.01800,0.56100,0.45400,-1.31300,80.91000,0.49000
041225_04.33.26.823,-0.02200,-0.00200,1.00300,0.08700,-0.14000,-0.03500,0.56200,0.45400,-1.31500,79.69000,-1.22000
041225_04.33.26.834,-0.02100,-0.00100,1.00000,0.12300,-0.15700,-0.01800,0.56200,0.45400,-1.31500,80.18000,0.49000
041225_04.33.26.845,-0.02200,-0.00200,1.00400,0.10500,-0.12300,-0.01800,0.56300,0.45100,-1.31100,80.41000,0.23000
041225_04.33.26.857,-0.02200,-0.00200,1.00200,0.10500,-0.15700,-0.01800,0.56200,0.45200,-1.31300,79.60000,-0.81000
041225_04.33.26.868,-0.02100,-0.00100,1.00200,0.10500,-0.14000,-0.03500,0.55600,0.45300,-1.30900,79.79000,0.19000
041225_04.33.26.880,-0.02200,-0.00200,1.00400,0.12300,-0.12300,-0.03500,0.55500,0.45600,-1.31600,79.78000,-0.01000
041225_04.33.26.891,-0.02200,-0.00300,1.00100,0.08700,-0.12300,-0.01800,0.55500,0.45600,-1.31600,80.31000,0.53000
041225_04.33.26.903,-0.02200,-0.00200,1.00400,0.10500,-0.12300,-0.01800,0.55100,0.45600,-1.31100,79.59000,-0.72000
041225_04.33.26.914,-0.02200,-0.00200,1.00300,0.10500,-0.14000,-0.01800,0.55400,0.45500,-1.30700,80.24000,0.65000
041225_04.33.26.926,-0.02100,-0.00200,1.00100,0.08700,-0.14000,-0.01800,0.55100,0.45700,-1.31000,79.95000,-0.29000
041225_04.33.26.937,-0.02100,-0.00200,1.00500,0.07000,-0.12300,0.00000,0.55100,0.46200,-1.31700,80.08000,0.13000
041225_04.33.26.949,-0.02100,-0.00300,1.00200,0.08700,-0.12300,0.00000,0.55100,0.46200,-1.31700,80.51000,0.43000
041225_04.33.26.960,-0.02100,-0.00300,1.00400,0.08700,-0.12300,-0.01800,0.54400,0.45200,-1.31200,79.43000,-1.08000
041225_04.33.26.971,-0.02200,-0.00400,1.00400,0.08700,-0.12300,-0.03500,0.54500,0.45500,-1.30700,80.04000,0.61000
041225_04.33.26.983,-0.02000,-0.00300,1.00000,0.08700,-0.12300,-0.03500,0.54100,0.45400,-1.31000,79.81000,-0.23000
041225_04.33.26.995,-0.02200,-0.00300,1.00100,0.08700,-0.12300,-0.01800,0.54100,0.45400,-1.31000,79.80000,-0.01000
041225_04.33.27.006,-0.02200,-0.00200,1.00100,0.10500,-0.12300,-0.01800,0.54800,0.45500,-1.30800,80.16000,0.36000
041225_04.33.27.018,-0.02100,-0.00400,1.00200,0.08700,-0.10500,-0.03500,0.54900,0.45800,-1.31200,80.19000,0.03000
041225_04.33.27.029,-0.02000,-0.00200,1.00000,0.08700,-0.10500,-0.01800,0.55000,0.45700,-1.31400,79.71000,-0.48000
041225_04.33.27.041,-0.02200,-0.00400,1.00300,0.08700,-0.10500,-0.01800,0.55500,0.45600,-1.31200,80.49000,0.78000
041225_04.33.27.052,-0.02200,-0.00200,1.00300,0.08700,-0.14000,-0.03500,0.55500,0.45600,-1.31200,79.65000,-0.84000
041225_04.33.27.064,-0.02200,-0.00200,1.00100,0.08700,-0.12300,-0.03500,0.55700,0.45300,-1.31200,79.68000,0.03000
041225_04.33.27.075,-0.02200,-0.00300,1.00400,0.07000,-0.12300,-0.03500,0.55800,0.45600,-1.31800,79.31000,-0.37000
041225_04.33.27.087,-0.02100,-0.00200,1.00100,0.10500,-0.12300,-0.03500,0.55800,0.45900,-1.31900,80.38000,1.07000
041225_04.33.27.098,-0.02200,-0.00200,1.00200,0.08700,-0.12300,-0.01800,0.55800,0.45900,-1.31900,80.15000,-0.23000
041225_04.33.27.110,-0.02200,-0.00400,1.00200,0.10500,-0.12300,-0.01800,0.56200,0.45300,-1.31100,79.92000,-0.23000
041225_04.33.27.121,-0.02000,-0.00400,1.00000,0.08700,-0.12300,-0.01800,0.56500,0.45500,-1.31300,80.14000,0.22000
041225_04.33.27.132,-0.02200,-0.00300,1.00300,0.10500,-0.12300,-0.01800,0.56400,0.45500,-1.31000,80.14000,0.00000
041225_04.33.27.144,-0.02200,-0.00300,1.00100,0.10500,-0.10500,-0.01800,0.56200,0.45800,-1.30700,79.86000,-0.28000
041225_04.33.27.155,-0.02200,-0.00200,1.00300,0.08700,-0.14000,-0.01800,0.56200,0.45800,-1.30700,79.72000,-0.14000
041225_04.33.27.167,-0.02000,-0.00100,1.00000,0.08700,-0.12300,-0.01800,0.55900,0.45200,-1.30700,79.95000,0.23000
041225_04.33.27.178,-0.02300,-0.00200,1.00300,0.07000,-0.14000,-0.01800,0.56200,0.45400,-1.30100,79.91000,-0.04000
041225_04.33.27.190,-0.02100,-0.00200,1.00300,0.10500,-0.14000,-0.01800,0.55600,0.45400,-1.30600,80.11000,0.20000
041225_04.33.27.201,-0.02100,-0.00100,1.00100,0.07000,-0.14000,-0.01800,0.55600,0.45400,-1.31600,79.91000,-0.20000
041225_04.33.27.213,-0.02100,-0.00300,1.00500,0.08700,-0.10500,-0.01800,0.54900,0.46100,-1.31600,80.05000,0.14000
041225_04.33.27.224,-0.02000,-0.00100,1.00100,0.07000,-0.10500,-0.01800,0.54600,0.45800,-1.30700,79.91000,-0.14000
041225_04.33.27.236,-0.02100,-0.00100,1.00500,0.08700,-0.14000,-0.03500,0.54600,0.45500,-1.30800,80.42000,0.51000
041225_04.33.27.247,-0.02100,-0.00100,1.00200,0.08700,-0.12300,-0.03500,0.54600,0.45700,-1.31000,79.95000,-0.47000
041225_04.33.27.258,-0.02100,-0.00200,1.00100,0.08700,-0.10500,-0.01800,0.54600,0.45700,-1.31000,80.00000,0.05000
041225_04.33.27.270,-0.02100,-0.00300,1.00500,0.08700,-0.12300,-0.03500,0.54900,0.45700,-1.31000,80.42000,0.42000
041225_04.33.27.281,-0.02200,-0.00200,1.00100,0.10500,-0.12300,-0.01800,0.54900,0.45600,-1.31000,79.93000,-0.49000
041225_04.33.27.293,-0.02000,-0.00100,1.00300,0.12300,-0.12300,-0.03500,0.55200,0.45500,-1.31000,79.23000,-0.70000
041225_04.33.27.304,-0.02100,-0.00200,1.00500,0.08700,-0.12300,-0.03500,0.55400,0.45800,-1.31600,80.16000,0.93000
041225_04.33.27.316,-0.02000,-0.00200,1.00100,0.08700,-0.10500,0.00000,0.55400,0.45800,-1.31600,80.39000,0.23000
041225_04.33.27.327,-0.02200,-0.00100,1.00400,0.08700,-0.12300,0.00000,0.55400,0.45800,-1.31200,79.82000,-0.57000
041225_04.33.27.338,-0.02000,-0.00200,1.00000,0.10500,-0.12300,-0.01800,0.55400,0.45100,-1.31400,79.60000,-0.22000
041225_04.33.27.350,-0.02200,-0.00400,1.00400,0.10500,-0.12300,-0.01800,0.55700,0.45300,-1.31500,80.58000,0.98000
041225_04.33.27.361,-0.02200,-0.00100,1.00000,0.10500,-0.12300,-0.01800,0.55700,0.45300,-1.31500,79.88000,-0.70000
041225_04.33.27.373,-0.02200,-0.00300,1.00400,0.10500,-0.12300,-0.01800,0.56200,0.45500,-1.31700,80.93000,1.05000
041225_04.33.27.384,-0.02000,-0.00200,1.00200,0.10500,-0.14000,-0.01800,0.56200,0.45300,-1.31800,80.14000,-0.79000
041225_04.33.27.396,-0.02100,-0.00300,1.00000,0.10500,-0.12300,-0.01800,0.55600,0.45500,-1.31900,80.22000,0.08000
041225_04.33.27.407,-0.02200,-0.00300,1.00400,0.10500,-0.14000,-0.01800,0.55800,0.45400,-1.31500,79.93000,-0.29000
041225_04.33.27.419,-0.02300,-0.00300,0.99900,0.08700,-0.14000,-0.01800,0.55800,0.45400,-1.31500,79.68000,-0.25000
041225_04.33.27.430,-0.02100,-0.00300,1.00200,0.08700,-0.14000,0.00000,0.55900,0.45400,-1.31600,79.38000,-0.30000
041225_04.33.27.442,-0.02300,-0.00300,1.00100,0.07000,-0.14000,0.00000,0.55400,0.45700,-1.31600,80.05000,0.67000
041225_04.33.27.453,-0.02200,-0.00200,1.00000,0.07000,-0.12300,0.00000,0.55400,0.45700,-1.32000,80.19000,0.14000
041225_04.33.27.465,-0.02200,-0.00200,1.00400,0.08700,-0.12300,-0.01800,0.55400,0.45700,-1.32000,80.35000,0.16000
041225_04.33.27.476,-0.02300,-0.00300,1.00000,0.07000,-0.14000,-0.03500,0.55200,0.46000,-1.31500,79.86000,-0.49000
041225_04.33.27.488,-0.02100,-0.00200,1.00100,0.07000,-0.12300,-0.03500,0.55200,0.45900,-1.31300,80.37000,0.51000
041225_04.33.27.499,-0.02200,-0.00300,1.00400,0.08700,-0.12300,0.00000,0.55400,0.45400,-1.31600,80.71000,0.34000
041225_04.33.27.510,-0.02100,-0.00200,1.00200,0.08700,-0.10500,-0.03500,0.55000,0.45700,-1.31900,80.39000,-0.32000
041225_04.33.27.522,-0.02200,-0.00200,1.00300,0.08700,-0.14000,-0.01800,0.55000,0.45700,-1.31900,80.41000,0.02000
041225_04.33.27.533,-0.02100,-0.00400,1.00000,0.10500,-0.12300,-0.03500,0.54600,0.45700,-1.31700,80.73000,0.32000
041225_04.33.27.545,-0.02200,-0.00300,1.00500,0.08700,-0.12300,-0.03500,0.54500,0.45500,-1.31700,80.01000,-0.72000
041225_04.33.27.556,-0.02100,-0.00300,1.00000,0.12300,-0.10500,-0.01800,0.54800,0.45500,-1.31400,79.67000,-0.34000
041225_04.33.27.568,-0.02000,-0.00200,1.00200,0.12300,-0.12300,-0.01800,0.54900,0.45800,-1.32000,81.13000,1.46000
041225_04.33.27.579,-0.02100,-0.00200,1.00400,0.10500,-0.12300,-0.03500,0.54900,0.45800,-1.32000,80.03000,-1.10000
041225_04.33.27.591,-0.02100,-0.00200,1.00000,0.12300,-0.14000,-0.03500,0.55200,0.45500,-1.31300,79.60000,-0.43000
041225_04.33.27.602,-0.02200,-0.00300,1.00500,0.10500,-0.15700,-0.01800,0.55500,0.45900,-1.31300,80.01000,0.41000
041225_04.33.27.614,-0.02000,-0.00300,1.00100,0.10500,-0.14000,-0.03500,0.56200,0.45600,-1.31600,80.01000,0.00000
041225_04.33.27.625,-0.02000,-0.00300,1.00200,0.10500,-0.14000,-0.03500,0.56200,0.45600,-1.31600,79.74000,-0.27000
041225_04.33.27.636,-0.02100,-0.00300,1.00400,0.08700,-0.12300,0.00000,0.55900,0.45200,-1.31700,80.60000,0.86000
041225_04.33.27.648,-0.02100,-0.00100,1.00100,0.10500,-0.12300,0.00000,0.55900,0.45600,-1.31900,79.89000,-0.71000
041225_04.33.27.659,-0.02000,-0.00300,1.00300,0.08700,-0.12300,-0.01800,0.56100,0.45300,-1.32500,80.03000,0.14000
041225_04.33.27.671,-0.02100,-0.00100,1.00300,0.12300,-0.10500,-0.01800,0.56200,0.45400,-1.31300,80.55000,0.52000
041225_04.33.27.682,-0.02100,-0.00300,1.00500,0.12300,-0.10500,-0.01800,0.56200,0.45400,-1.31300,80.11000,-0.44000
041225_04.33.27.694,-0.02000,-0.00200,1.00200,0.10500,-0.12300,-0.01800,0.56100,0.45500,-1.31900,80.08000,-0.03000
041225_04.33.27.705,-0.02100,-0.00300,1.00200,0.10500,-0.10500,-0.01800,0.55700,0.45800,-1.31400,80.25000,0.17000
041225_04.33.27.716,-0.02200,-0.00300,1.00300,0.12300,-0.10500,-0.03500,0.55400,0.45900,-1.31800,80.48000,0.23000
041225_04.33.27.728,-0.02000,-0.00200,1.00000,0.12300,-0.12300,-0.01800,0.55400,0.45900,-1.31800,79.99000,-0.49000
041225_04.33.27.739,-0.02100,-0.00100,1.00300,0.12300,-0.14000,-0.01800,0.55600,0.45500,-1.31500,80.44000,0.45000
041225_04.33.27.751,-0.02100,-0.00300,1.00100,0.10500,-0.14000,-0.01800,0.55900,0.45500,-1.31500,80.61000,0.17000
041225_04.33.27.762,-0.02100,-0.00100,1.00200,0.10500,-0.12300,-0.01800,0.55100,0.46000,-1.31500,80.22000,-0.39000
041225_04.33.27.774,-0.02200,-0.00300,1.00300,0.10500,-0.12300,-0.01800,0.54700,0.45600,-1.31300,80.18000,-0.04000
041225_04.33.27.785,-0.02000,-0.00200,1.00000,0.12300,-0.14000,-0.01800,0.54700,0.45600,-1.31300,79.70000,-0.48000
041225_04.33.27.797,-0.02100,-0.00300,1.00500,0.12300,-0.12300,-0.01800,0.54700,0.45800,-1.31400,80.21000,0.51000
041225_04.33.27.808,-0.02100,-0.00100,1.00200,0.10500,-0.14000,0.00000,0.55100,0.45500,-1.31500,80.11000,-0.10000
041225_04.33.27.819,-0.02100,-0.00200,1.00000,0.10500,-0.14000,-0.01800,0.54900,0.45300,-1.31200,79.95000,-0.16000
041225_04.33.27.831,-0.02200,-0.00300,1.00400,0.12300,-0.12300,-0.01800,0.54900,0.45400,-1.31900,79.95000,0.00000
041225_04.33.27.842,-0.02000,-0.00100,1.00100,0.08700,-0.10500,-0.03500,0.54900,0.45400,-1.31900,80.64000,0.69000
041225_04.33.27.854,-0.02300,-0.00200,1.00300,0.08700,-0.14000,0.00000,0.54900,0.45300,-1.31800,80.41000,-0.23000
041225_04.33.27.865,-0.02100,-0.00200,1.00200,0.10500,-0.12300,-0.01800,0.55500,0.45100,-1.31400,80.34000,-0.07000
041225_04.33.27.877,-0.02200,-0.00100,1.00300,0.10500,-0.12300,-0.03500,0.55900,0.45400,-1.32100,80.17000,-0.17000
041225_04.33.27.888,-0.02200,-0.00200,1.00100,0.07000,-0.10500,-0.03500,0.55900,0.45400,-1.32100,80.39000,0.22000
041225_04.33.27.900,-0.02200,-0.00300,1.00100,0.07000,-0.08700,-0.03500,0.55800,0.45800,-1.31900,80.75000,0.36000
041225_04.33.27.911,-0.02200,-0.00400,1.00400,0.08700,-0.07000,-0.03500,0.55600,0.45500,-1.32200,80.30000,-0.45000
041225_04.33.27.922,-0.02000,-0.00200,1.00100,0.08700,-0.12300,-0.01800,0.56200,0.45300,-1.32300,79.79000,-0.51000
041225_04.33.27.934,-0.02400,-0.00200,1.00200,0.08700,-0.12300,-0.01800,0.55700,0.45100,-1.31600,80.29000,0.50000
041225_04.33.27.945,-0.02100,-0.00300,1.00300,0.08700,-0.10500,-0.01800,0.55700,0.45100,-1.31600,79.88000,-0.41000
041225_04.33.27.957,-0.02100,-0.00200,1.00100,0.08700,-0.12300,-0.03500,0.56100,0.45400,-1.32500,80.08000,0.20000
041225_04.33.27.968,-0.02200,-0.00400,1.00600,0.08700,-0.14000,-0.01800,0.56000,0.45700,-1.32300,80.19000,0.11000
041225_04.33.27.980,-0.01900,-0.00200,1.00000,0.10500,-0.12300,-0.01800,0.55600,0.45000,-1.31700,80.08000,-0.11000
041225_04.33.27.991,-0.02100,-0.00200,1.00300,0.07000,-0.12300,-0.03500,0.55600,0.45000,-1.31700,79.84000,-0.24000
041225_04.33.28.002,-0.02100,-0.00300,1.00400,0.07000,-0.12300,-0.01800,0.55900,0.45000,-1.31900,80.08000,0.24000
041225_04.33.28.014,-0.02200,-0.00300,1.00000,0.10500,-0.12300,-0.01800,0.55500,0.45500,-1.31800,80.21000,0.13000
041225_04.33.28.025,-0.02100,-0.00300,1.00000,0.10500,-0.14000,-0.01800,0.55400,0.45700,-1.32300,79.95000,-0.26000
041225_04.33.28.037,-0.02200,-0.00200,1.00200,0.08700,-0.12300,-0.03500,0.55200,0.45500,-1.32500,79.72000,-0.23000
041225_04.33.28.048,-0.02100,-0.00300,1.00400,0.08700,-0.12300,-0.03500,0.55200,0.45500,-1.32500,80.78000,1.06000
041225_04.33.28.060,-0.02000,-0.00000,1.00000,0.10500,-0.12300,-0.01800,0.55200,0.45600,-1.32500,80.11000,-0.67000
041225_04.33.28.072,-0.02000,-0.00300,1.00300,0.10500,-0.14000,-0.01800,0.54800,0.45700,-1.32900,79.86000,-0.25000
041225_04.33.28.083,-0.02100,-0.00300,1.00200,0.10500,-0.12300,-0.01800,0.54400,0.45400,-1.33100,79.90000,0.04000
041225_04.33.28.095,-0.02000,-0.00100,1.00200,0.10500,-0.12300,0.00000,0.54400,0.45400,-1.33100,80.25000,0.35000
041225_04.33.28.106,-0.02200,-0.00300,1.00500,0.10500,-0.14000,-0.01800,0.54700,0.45000,-1.31800,80.63000,0.38000
041225_04.33.28.118,-0.02100,-0.00300,1.00000,0.10500,-0.14000,-0.03500,0.55100,0.45100,-1.31600,80.56000,-0.07000
041225_04.33.28.130,-0.02000,-0.00300,1.00200,0.10500,-0.12300,-0.03500,0.54700,0.45400,-1.31600,79.75000,-0.81000
041225_04.33.28.141,-0.02200,-0.00200,1.00300,0.10500,-0.14000,-0.01800,0.54800,0.45700,-1.32300,79.75000,0.00000
041225_04.33.28.153,-0.02200,-0.00100,1.00000,0.08700,-0.12300,-0.01800,0.54800,0.45700,-1.32300,79.80000,0.05000
041225_04.33.28.164,-0.02100,-0.00200,1.00400,0.08700,-0.14000,-0.01800,0.55100,0.45600,-1.32000,79.95000,0.15000
041225_04.33.28.176,-0.02200,-0.00100,1.00000,0.10500,-0.12300,-0.03500,0.55700,0.45600,-1.32000,80.30000,0.35000
041225_04.33.28.187,-0.02200,-0.00100,1.00300,0.08700,-0.12300,-0.03500,0.55700,0.45300,-1.32200,80.04000,-0.26000
041225_04.33.28.199,-0.02000,-0.00100,1.00000,0.08700,-0.12300,-0.05300,0.56100,0.45300,-1.32400,79.59000,-0.45000
041225_04.33.28.211,-0.02100,-0.00300,1.00300,0.08700,-0.10500,-0.03500,0.56100,0.45300,-1.32400,80.40000,0.81000
041225_04.33.28.222,-0.02100,-0.00200,1.00100,0.08700,-0.12300,-0.03500,0.56000,0.45300,-1.32300,79.90000,-0.50000
041225_04.33.28.234,-0.02100,-0.00200,1.00200,0.10500,-0.10500,-0.03500,0.56600,0.45500,-1.32300,79.86000,-0.04000
041225_04.33.28.245,-0.02100,-0.00100,1.00300,0.10500,-0.10500,-0.03500,0.55600,0.45600,-1.31700,79.58000,-0.28000
041225_04.33.28.257,-0.02100,-0.00000,1.00000,0.10500,-0.14000,-0.01800,0.55600,0.45600,-1.31700,79.83000,0.25000
041225_04.33.28.269,-0.02100,-0.00300,1.00300,0.07000,-0.14000,-0.01800,0.56100,0.45600,-1.31300,80.30000,0.47000
041225_04.33.28.280,-0.02200,-0.00300,1.00300,0.08700,-0.12300,-0.03500,0.55600,0.45900,-1.31600,79.85000,-0.45000
041225_04.33.28.292,-0.02100,-0.00300,1.00100,0.10500,-0.10500,-0.03500,0.55700,0.46100,-1.31900,80.03000,0.18000
041225_04.33.28.303,-0.02000,-0.00300,1.00400,0.08700,-0.12300,-0.01800,0.56200,0.45700,-1.31800,79.90000,-0.13000
041225_04.33.28.315,-0.02100,-0.00300,1.00000,0.08700,-0.10500,-0.01800,0.56200,0.45700,-1.31800,79.67000,-0.23000
041225_04.33.28.327,-0.02000,-0.00300,1.00300,0.10500,-0.12300,-0.01800,0.55100,0.45500,-1.32000,80.05000,0.38000
041225_04.33.28.338,-0.02100,-0.00300,1.00400,0.08700,-0.12300,-0.01800,0.55700,0.46000,-1.31400,80.23000,0.18000
041225_04.33.28.350,-0.02100,-0.00100,1.00100,0.08700,-0.14000,-0.03500,0.54500,0.45700,-1.32000,79.77000,-0.46000
041225_04.33.28.361,-0.02200,-0.00300,1.00400,0.08700,-0.14000,-0.01800,0.54500,0.45700,-1.32000,79.71000,-0.06000
041225_04.33.28.373,-0.01900,-0.00200,1.00300,0.10500,-0.12300,-0.01800,0.54500,0.45400,-1.31500,80.03000,0.32000
041225_04.33.28.385,-0.02200,-0.00300,1.00400,0.10500,-0.12300,-0.01800,0.54300,0.45800,-1.31700,79.52000,-0.51000
041225_04.33.28.396,-0.02200,-0.00200,0.99800,0.08700,-0.12300,-0.01800,0.54600,0.45600,-1.31100,80.35000,0.83000
041225_04.33.28.408,-0.02200,-0.00300,1.00200,0.07000,-0.10500,-0.01800,0.54500,0.45600,-1.32000,79.89000,-0.46000
041225_04.33.28.419,-0.02100,-0.00300,1.00200,0.08700,-0.10500,-0.03500,0.54500,0.45600,-1.32000,80.50000,0.61000
041225_04.33.28.431,-0.02200,-0.00300,1.00100,0.08700,-0.12300,-0.03500,0.55100,0.45500,-1.31800,79.98000,-0.52000
041225_04.33.28.442,-0.01900,-0.00300,1.00300,0.10500,-0.10500,-0.03500,0.56200,0.45700,-1.31700,80.52000,0.54000
041225_04.33.28.454,-0.02100,-0.00100,0.99900,0.08700,-0.12300,-0.01800,0.55700,0.45600,-1.31200,79.92000,-0.60000
041225_04.33.28.466,-0.02100,-0.00300,1.00300,0.07000,-0.12300,-0.03500,0.55700,0.45600,-1.31700,79.68000,-0.24000
041225_04.33.28.477,-0.02200,-0.00200,1.00400,0.10500,-0.12300,-0.03500,0.55800,0.45600,-1.31700,80.92000,1.24000
041225_04.33.28.489,-0.02000,-0.00300,0.99900,0.10500,-0.10500,-0.01800,0.56300,0.45600,-1.31500,80.08000,-0.84000
041225_04.33.28.500,-0.02200,-0.00400,1.00300,0.10500,-0.12300,-0.03500,0.56200,0.45400,-1.31600,80.06000,-0.02000
041225_04.33.28.512,-0.02100,-0.00400,1.00200,0.07000,-0.12300,-0.01800,0.55900,0.46000,-1.31500,79.50000,-0.56000
041225_04.33.28.524,-0.02100,-0.00100,1.00200,0.08700,-0.14000,-0.01800,0.55900,0.46000,-1.31500,79.95000,0.45000
041225_04.33.28.535,-0.02200,-0.00300,0.99800,0.07000,-0.14000,-0.03500,0.56300,0.45700,-1.31700,79.58000,-0.37000
041225_04.33.28.547,-0.02200,-0.00200,1.00300,0.08700,-0.12300,-0.03500,0.56100,0.46100,-1.32000,79.92000,0.34000
041225_04.33.28.558,-0.02100,-0.00100,1.00200,0.08700,-0.14000,-0.05300,0.56100,0.45800,-1.31200,81.01000,1.09000
041225_04.33.28.570,-0.02200,-0.00100,1.00000,0.07000,-0.10500,-0.01800,0.56000,0.45600,-1.31600,79.65000,-1.36000
041225_04.33.28.582,-0.02100,-0.00300,1.00400,0.07000,-0.14000,-0.03500,0.56000,0.45600,-1.31600,80.67000,1.02000
041225_04.33.28.593,-0.02000,-0.00200,1.00000,0.08700,-0.14000,-0.03500,0.55500,0.46100,-1.31200,79.87000,-0.80000
041225_04.33.28.605,-0.02000,-0.00200,1.00500,0.07000,-0.10500,-0.03500,0.55100,0.45500,-1.31900,79.82000,-0.05000
041225_04.33.28.616,-0.02100,-0.00100,1.00200,0.07000,-0.12300,-0.03500,0.55200,0.46200,-1.31000,80.20000,0.38000
041225_04.33.28.628,-0.02000,-0.00200,1.00000,0.10500,-0.10500,-0.03500,0.55200,0.46200,-1.31000,79.84000,-0.36000
041225_04.33.28.639,-0.02100,-0.00300,1.00200,0.12300,-0.10500,-0.01800,0.54900,0.46100,-1.31200,79.51000,-0.33000
041225_04.33.28.650,-0.02100,-0.00200,1.00200,0.10500,-0.14000,-0.01800,0.55000,0.45900,-1.31300,80.55000,1.04000
041225_04.33.28.662,-0.02100,-0.00200,1.00300,0.08700,-0.12300,-0.03500,0.54500,0.45800,-1.31200,80.46000,-0.09000
041225_04.33.28.673,-0.02200,-0.00200,1.00200,0.07000,-0.10500,-0.03500,0.54800,0.45700,-1.31100,79.91000,-0.55000
041225_04.33.28.685,-0.02100,-0.00100,0.99900,0.07000,-0.14000,-0.01800,0.54800,0.45700,-1.31100,80.04000,0.13000
041225_04.33.28.696,-0.02100,-0.00300,1.00300,0.07000,-0.14000,-0.01800,0.55100,0.45800,-1.31000,79.98000,-0.06000
041225_04.33.28.708,-0.02100,-0.00200,1.00000,0.08700,-0.12300,-0.01800,0.55300,0.45800,-1.31200,79.98000,0.00000
041225_04.33.28.719,-0.02100,-0.00200,1.00400,0.08700,-0.14000,-0.01800,0.55300,0.45900,-1.31400,80.16000,0.18000
041225_04.33.28.731,-0.02000,-0.00200,1.00100,0.08700,-0.12300,-0.01800,0.55300,0.45900,-1.31800,79.91000,-0.25000
041225_04.33.28.743,-0.02200,-0.00200,1.00500,0.08700,-0.12300,-0.01800,0.55400,0.45800,-1.31800,79.46000,-0.45000
041225_04.33.28.754,-0.02200,-0.00100,1.00400,0.08700,-0.12300,-0.01800,0.55900,0.45900,-1.31700,80.06000,0.60000
041225_04.33.28.766,-0.02100,-0.00200,1.00100,0.10500,-0.14000,-0.01800,0.56800,0.45700,-1.31900,80.18000,0.12000
041225_04.33.28.778,-0.02200,-0.00300,1.00500,0.10500,-0.14000,-0.01800,0.56800,0.45900,-1.32000,79.87000,-0.31000
041225_04.33.28.789,-0.02200,-0.00300,1.00200,0.10500,-0.12300,-0.03500,0.56800,0.45900,-1.32000,79.69000,-0.18000
041225_04.33.28.801,-0.02100,-0.00300,1.00300,0.10500,-0.14000,-0.01800,0.56600,0.46000,-1.32300,80.93000,1.24000
041225_04.33.28.812,-0.02200,-0.00500,1.00200,0.07000,-0.12300,-0.03500,0.56800,0.45600,-1.32000,80.46000,-0.47000
041225_04.33.28.824,-0.02000,-0.00200,1.00100,0.08700,-0.10500,-0.03500,0.56400,0.45500,-1.32500,80.39000,-0.07000
041225_04.33.28.835,-0.02200,-0.00300,1.00300,0.07000,-0.10500,-0.01800,0.56800,0.46100,-1.32300,79.71000,-0.68000
041225_04.33.28.847,-0.02100,-0.00300,1.00300,0.08700,-0.12300,-0.03500,0.56800,0.46100,-1.32300,79.95000,0.24000
041225_04.33.28.858,-0.02100,-0.00100,1.00100,0.10500,-0.10500,-0.01800,0.55900,0.45500,-1.32000,79.73000,-0.22000
041225_04.33.28.870,-0.02100,-0.00300,1.00400,0.08700,-0.10500,-0.01800,0.55800,0.45600,-1.32200,79.80000,0.07000
041225_04.33.28.881,-0.02200,-0.00200,1.00300,0.10500,-0.10500,-0.01800,0.56000,0.45700,-1.32800,79.19000,-0.61000
041225_04.33.28.893,-0.02100,-0.00100,1.00400,0.10500,-0.14000,-0.03500,0.56000,0.45700,-1.32800,79.80000,0.61000
041225_04.33.28.904,-0.02200,-0.00100,1.00000,0.10500,-0.14000,-0.01800,0.55500,0.45900,-1.32100,79.97000,0.17000
041225_04.33.28.916,-0.02200,-0.00300,1.00400,0.10500,-0.17500,-0.03500,0.54900,0.45900,-1.31500,79.74000,-0.23000
041225_04.33.28.927,-0.02300,-0.00300,1.00000,0.10500,-0.14000,-0.01800,0.54400,0.45800,-1.31800,79.71000,-0.03000
041225_04.33.28.939,-0.02300,-0.00100,1.00300,0.08700,-0.14000,-0.01800,0.54500,0.45300,-1.32100,79.81000,0.10000
041225_04.33.28.950,-0.02100,-0.00200,1.00300,0.08700,-0.15700,0.00000,0.54500,0.45300,-1.32100,79.67000,-0.14000
041225_04.33.28.962,-0.02100,-0.00200,0.99900,0.10500,-0.15700,-0.01800,0.54900,0.45400,-1.31700,80.02000,0.35000
041225_04.33.28.974,-0.02200,-0.00400,1.00400,0.08700,-0.15700,-0.01800,0.55100,0.45800,-1.32100,79.61000,-0.41000
041225_04.33.28.985,-0.02100,-0.00300,1.00100,0.12300,-0.15700,-0.01800,0.54900,0.45500,-1.32200,79.48000,-0.13000
041225_04.33.28.997,-0.02100,-0.00300,1.00100,0.12300,-0.12300,-0.03500,0.54900,0.45500,-1.32200,78.99000,-0.49000
041225_04.33.29.009,-0.02000,-0.00300,1.00200,0.08700,-0.12300,-0.03500,0.56200,0.45800,-1.31900,80.38000,1.39000
041225_04.33.29.020,-0.02000,-0.00200,1.00100,0.07000,-0.12300,-0.05300,0.56000,0.45700,-1.32000,80.21000,-0.17000
041225_04.33.29.032,-0.02000,-0.00300,1.00200,0.07000,-0.12300,-0.05300,0.55900,0.45800,-1.32000,79.98000,-0.23000
041225_04.33.29.043,-0.02100,-0.00100,1.00200,0.08700,-0.10500,-0.03500,0.56200,0.45500,-1.32400,79.40000,-0.58000
041225_04.33.29.055,-0.02200,-0.00100,1.00200,0.10500,-0.10500,-0.01800,0.56200,0.45500,-1.32400,80.18000,0.78000
041225_04.33.29.067,-0.02000,-0.00200,1.00100,0.08700,-0.12300,-0.01800,0.56300,0.45200,-1.31800,79.71000,-0.47000
041225_04.33.29.078,-0.02000,-0.00200,1.00200,0.08700,-0.12300,-0.01800,0.56300,0.45200,-1.31600,79.85000,0.14000
041225_04.33.29.090,-0.02200,-0.00200,1.00400,0.08700,-0.10500,-0.03500,0.56300,0.45400,-1.31500,80.17000,0.32000
041225_04.33.29.101,-0.02100,-0.00100,0.99900,0.05300,-0.10500,-0.05300,0.56300,0.45500,-1.31700,80.42000,0.25000
041225_04.33.29.113,-0.02000,-0.00100,1.00400,0.07000,-0.12300,-0.03500,0.55800,0.45500,-1.31700,79.90000,-0.52000
041225_04.33.29.124,-0.02000,-0.00100,1.00200,0.05300,-0.10500,-0.05300,0.55900,0.46000,-1.31500,80.23000,0.33000
041225_04.33.29.136,-0.02000,0.00000,1.00100,0.05300,-0.12300,-0.03500,0.56100,0.45500,-1.31800,80.48000,0.25000
041225_04.33.29.147,-0.02200,-0.00200,1.00400,0.08700,-0.12300,-0.03500,0.56200,0.45300,-1.31500,79.83000,-0.65000
041225_04.33.29.159,-0.02000,-0.00000,1.00100,0.08700,-0.12300,-0.03500,0.56200,0.45300,-1.31500,79.77000,-0.06000
041225_04.33.29.170,-0.02100,-0.00100,1.00400,0.10500,-0.12300,0.00000,0.55500,0.45200,-1.31600,80.18000,0.41000
041225_04.33.29.182,-0.02100,-0.00200,1.00100,0.10500,-0.14000,-0.01800,0.55100,0.45200,-1.31800,79.97000,-0.21000
041225_04.33.29.194,-0.02200,-0.00200,1.00000,0.10500,-0.12300,-0.03500,0.55000,0.45400,-1.31400,79.60000,-0.37000
041225_04.33.29.205,-0.02200,-0.00300,1.00500,0.08700,-0.14000,-0.01800,0.54700,0.45700,-1.31700,79.64000,0.04000
041225_04.33.29.217,-0.02100,-0.00200,1.00200,0.08700,-0.12300,-0.01800,0.54700,0.45700,-1.31700,79.93000,0.29000
041225_04.33.29.228,-0.02200,-0.00300,1.00400,0.10500,-0.14000,-0.01800,0.54800,0.45500,-1.31400,79.37000,-0.56000
041225_04.33.29.240,-0.02400,-0.00200,1.00100,0.08700,-0.12300,-0.01800,0.54500,0.45800,-1.31100,79.61000,0.24000
041225_04.33.29.252,-0.02300,-0.00200,1.00500,0.07000,-0.14000,-0.01800,0.54300,0.45300,-1.30900,79.65000,0.04000
041225_04.33.29.263,-0.02300,-0.00200,1.00200,0.08700,-0.14000,-0.01800,0.54300,0.45300,-1.30900,79.79000,0.14000
041225_04.33.29.275,-0.02200,-0.00300,1.00200,0.12300,-0.12300,-0.03500,0.55200,0.45700,-1.31500,79.46000,-0.33000
041225_04.33.29.287,-0.02400,-0.00300,1.00500,0.08700,-0.12300,-0.01800,0.55600,0.45800,-1.31600,79.91000,0.45000
041225_04.33.29.298,-0.02200,-0.00300,1.00000,0.10500,-0.12300,-0.01800,0.55200,0.45700,-1.31500,79.91000,0.00000
041225_04.33.29.310,-0.02200,-0.00400,1.00200,0.10500,-0.14000,-0.01800,0.55800,0.45600,-1.31200,79.96000,0.05000
041225_04.33.29.321,-0.02400,-0.00400,1.00300,0.08700,-0.14000,-0.03500,0.55800,0.45600,-1.31200,80.32000,0.36000
041225_04.33.29.333,-0.02000,-0.00200,1.00000,0.10500,-0.12300,-0.03500,0.56600,0.45600,-1.31800,80.38000,0.06000
041225_04.33.29.344,-0.02200,-0.00200,1.00500,0.12300,-0.12300,-0.03500,0.56900,0.45400,-1.32100,79.71000,-0.67000
041225_04.33.29.355,-0.02000,-0.00200,1.00000,0.10500,-0.14000,-0.01800,0.56800,0.45500,-1.31500,80.22000,0.51000
041225_04.33.29.367,-0.02200,-0.00300,1.00100,0.10500,-0.12300,-0.01800,0.56800,0.45500,-1.31400,79.92000,-0.30000
041225_04.33.29.379,-0.02100,-0.00400,1.00200,0.10500,-0.14000,-0.03500,0.56400,0.45200,-1.31400,80.20000,0.28000
041225_04.33.29.390,-0.02000,-0.00200,1.00100,0.07000,-0.14000,-0.01800,0.56400,0.45300,-1.31900,80.32000,0.12000
041225_04.33.29.402,-0.02100,-0.00200,1.00100,0.10500,-0.10500,-0.03500,0.55800,0.45700,-1.32300,79.82000,-0.50000
041225_04.33.29.414,-0.02000,-0.00100,1.00200,0.12300,-0.10500,-0.03500,0.55800,0.45900,-1.32300,80.10000,0.28000
041225_04.33.29.425,-0.02100,-0.00300,1.00200,0.12300,-0.12300,-0.03500,0.55800,0.45900,-1.32300,80.44000,0.34000
041225_04.33.29.436,-0.02100,-0.00100,0.99900,0.08700,-0.14000,-0.01800,0.55500,0.45900,-1.31400,79.73000,-0.71000
041225_04.33.29.448,-0.02000,-0.00200,1.00200,0.10500,-0.14000,-0.03500,0.55100,0.45600,-1.31200,79.86000,0.13000
041225_04.33.29.460,-0.02000,-0.00300,1.00200,0.08700,-0.12300,-0.03500,0.55600,0.45300,-1.30800,79.94000,0.08000
041225_04.33.29.471,-0.01900,-0.00400,1.00200,0.10500,-0.10500,-0.03500,0.54800,0.45900,-1.31600,79.69000,-0.25000
041225_04.33.29.483,-0.02100,-0.00300,1.00300,0.08700,-0.10500,-0.03500,0.54800,0.45900,-1.31600,80.24000,0.55000
041225_04.33.29.495,-0.02100,-0.00300,1.00000,0.07000,-0.10500,-0.05300,0.55000,0.45600,-1.32100,79.76000,-0.48000
041225_04.33.29.506,-0.02100,-0.00300,1.00100,0.08700,-0.10500,-0.03500,0.54900,0.45500,-1.31700,79.74000,-0.02000
041225_04.33.29.518,-0.02100,-0.00300,1.00200,0.08700,-0.10500,-0.03500,0.55500,0.45600,-1.31700,80.54000,0.80000
041225_04.33.29.530,-0.02000,-0.00300,1.00000,0.08700,-0.12300,-0.01800,0.55500,0.45600,-1.31700,80.11000,-0.43000
041225_04.33.29.541,-0.02200,-0.00300,1.00400,0.10500,-0.12300,-0.03500,0.55000,0.45300,-1.31800,80.03000,-0.08000
041225_04.33.29.553,-0.01900,-0.00200,1.00000,0.08700,-0.10500,-0.03500,0.55400,0.45900,-1.31000,80.04000,0.01000
041225_04.33.29.564,-0.02200,-0.00100,1.00100,0.08700,-0.10500,-0.01800,0.55700,0.45800,-1.31400,79.99000,-0.05000
041225_04.33.29.576,-0.02200,-0.00100,1.00100,0.10500,-0.14000,-0.01800,0.56400,0.45600,-1.31700,80.16000,0.17000
041225_04.33.29.588,-0.02100,-0.00200,1.00300,0.07000,-0.12300,-0.01800,0.56400,0.45600,-1.31700,80.42000,0.26000
041225_04.33.29.599,-0.02000,-0.00200,1.00300,0.10500,-0.12300,-0.03500,0.56300,0.45700,-1.31200,80.44000,0.02000
041225_04.33.29.611,-0.02100,-0.00100,1.00200,0.08700,-0.12300,0.00000,0.56500,0.45600,-1.31200,79.92000,-0.52000
041225_04.33.29.622,-0.02100,-0.00300,1.00400,0.08700,-0.12300,-0.03500,0.56100,0.46200,-1.31400,80.20000,0.28000
041225_04.33.29.634,-0.02000,-0.00100,1.00100,0.10500,-0.14000,-0.03500,0.56100,0.46200,-1.31400,79.86000,-0.34000
041225_04.33.29.646,-0.02200,-0.00200,1.00400,0.08700,-0.12300,-0.01800,0.56500,0.45800,-1.31500,79.94000,0.08000
041225_04.33.29.657,-0.02300,-0.00200,1.00400,0.10500,-0.14000,-0.01800,0.56600,0.46200,-1.31600,80.17000,0.23000
041225_04.33.29.668,-0.02200,-0.00300,1.00200,0.10500,-0.15700,-0.01800,0.56100,0.46100,-1.31800,80.60000,0.43000
041225_04.33.29.680,-0.02200,-0.00200,1.00400,0.10500,-0.12300,-0.01800,0.56000,0.45900,-1.32100,80.03000,-0.57000
041225_04.33.29.691,-0.02200,-0.00300,1.00200,0.10500,-0.12300,-0.01800,0.56000,0.45900,-1.32100,80.46000,0.43000
041225_04.33.29.703,-0.02300,-0.00200,1.00100,0.10500,-0.12300,-0.01800,0.55200,0.45900,-1.31400,80.33000,-0.13000
041225_04.33.29.714,-0.02300,-0.00400,1.00500,0.10500,-0.14000,0.00000,0.55800,0.45700,-1.31400,80.14000,-0.19000
041225_04.33.29.726,-0.02100,-0.00200,1.00000,0.10500,-0.14000,-0.01800,0.55600,0.46100,-1.31300,80.61000,0.47000
041225_04.33.29.737,-0.02100,-0.00200,1.00400,0.08700,-0.10500,-0.01800,0.55600,0.46000,-1.31100,79.90000,-0.71000
041225_04.33.29.749,-0.02000,-0.00200,1.00100,0.07000,-0.08700,-0.03500,0.55100,0.46000,-1.31100,80.06000,0.16000
041225_04.33.29.760,-0.02100,-0.00300,1.00600,0.12300,-0.12300,-0.03500,0.55000,0.46000,-1.31400,80.13000,0.07000
041225_04.33.29.772,-0.02000,-0.00100,1.00000,0.08700,-0.14000,-0.05300,0.54900,0.45700,-1.31500,80.18000,0.05000
041225_04.33.29.783,-0.02300,-0.00200,1.00200,0.08700,-0.12300,-0.03500,0.54500,0.45700,-1.31000,80.05000,-0.13000
041225_04.33.29.795,-0.02100,-0.00300,1.00300,0.07000,-0.10500,-0.01800,0.54500,0.45700,-1.31000,79.55000,-0.50000
041225_04.33.29.806,-0.02100,-0.00300,1.00000,0.08700,-0.14000,-0.01800,0.54900,0.45800,-1.31300,80.29000,0.74000
041225_04.33.29.818,-0.02100,-0.00300,1.00300,0.10500,-0.12300,-0.01800,0.55300,0.45400,-1.31300,79.82000,-0.47000
041225_04.33.29.830,-0.02100,-0.00400,1.00000,0.10500,-0.14000,-0.03500,0.55700,0.45600,-1.30700,80.07000,0.25000
041225_04.33.29.841,-0.02100,-0.00100,1.00100,0.10500,-0.12300,-0.03500,0.55900,0.45800,-1.31000,79.65000,-0.42000
041225_04.33.29.853,-0.02200,-0.00300,1.00400,0.10500,-0.14000,-0.01800,0.55900,0.45800,-1.31000,79.17000,-0.48000
041225_04.33.29.865,-0.02100,-0.00200,1.00200,0.10500,-0.15700,-0.01800,0.56200,0.45900,-1.31000,80.50000,1.33000
041225_04.33.29.876,-0.02200,-0.00200,1.00200,0.10500,-0.14000,-0.01800,0.55700,0.45600,-1.31500,80.07000,-0.43000
041225_04.33.29.888,-0.02000,-0.00400,1.00200,0.10500,-0.12300,-0.01800,0.56600,0.45700,-1.31300,80.50000,0.43000
041225_04.33.29.899,-0.02200,-0.00200,1.00100,0.10500,-0.15700,-0.03500,0.56600,0.45700,-1.31300,80.46000,-0.04000
041225_04.33.29.911,-0.02200,-0.00300,1.00500,0.12300,-0.12300,-0.01800,0.55900,0.45600,-1.32000,80.51000,0.05000
041225_04.33.29.923,-0.02000,-0.00300,1.00200,0.10500,-0.12300,-0.01800,0.57000,0.45700,-1.32400,80.09000,-0.42000
041225_04.33.29.934,-0.02100,-0.00300,1.00300,0.10500,-0.12300,-0.03500,0.56400,0.45800,-1.32900,79.37000,-0.72000
041225_04.33.29.946,-0.02200,-0.00400,0.99900,0.08700,-0.14000,-0.03500,0.56400,0.45700,-1.32100,79.68000,0.31000
041225_04.33.29.958,-0.02100,-0.00100,1.00400,0.08700,-0.14000,-0.03500,0.56400,0.45700,-1.32100,80.14000,0.46000
041225_04.33.29.969,-0.02100,-0.00300,1.00100,0.12300,-0.15700,-0.01800,0.56500,0.45600,-1.32200,81.09000,0.95000
041225_04.33.29.981,-0.02200,-0.00200,1.00300,0.10500,-0.12300,-0.03500,0.56100,0.45500,-1.31700,80.23000,-0.86000
041225_04.33.29.992,-0.02100,-0.00200,1.00500,0.10500,-0.12300,-0.01800,0.55800,0.45600,-1.31400,80.54000,0.31000
041225_04.33.30.004,-0.02100,-0.00100,1.00100,0.10500,-0.14000,-0.01800,0.55800,0.45600,-1.31400,80.33000,-0.21000
041225_04.33.30.015,-0.02200,-0.00200,1.00200,0.08700,-0.12300,-0.01800,0.55600,0.45600,-1.31400,79.98000,-0.35000
041225_04.33.30.027,-0.02200,-0.00200,1.00200,0.08700,-0.14000,-0.01800,0.55600,0.45700,-1.31500,79.93000,-0.05000
041225_04.33.30.038,-0.02100,-0.00100,1.00200,0.08700,-0.12300,-0.01800,0.55500,0.45500,-1.31500,79.81000,-0.12000
041225_04.33.30.050,-0.02200,-0.00200,1.00400,0.10500,-0.10500,-0.01800,0.55500,0.45700,-1.31300,80.24000,0.43000
041225_04.33.30.061,-0.02100,-0.00100,1.00100,0.08700,-0.12300,-0.01800,0.55500,0.45700,-1.31300,79.51000,-0.73000
041225_04.33.30.073,-0.02200,-0.00200,1.00300,0.08700,-0.10500,-0.01800,0.54800,0.45600,-1.31000,80.14000,0.63000
041225_04.33.30.084,-0.02200,-0.00200,1.00400,0.08700,-0.12300,-0.01800,0.54900,0.45600,-1.31100,80.32000,0.18000
041225_04.33.30.095,-0.02100,-0.00300,1.00500,0.08700,-0.12300,0.00000,0.54600,0.45600,-1.32100,80.47000,0.15000
041225_04.33.30.107,-0.02100,-0.00200,1.00100,0.08700,-0.12300,-0.03500,0.54800,0.45600,-1.31700,80.22000,-0.25000
041225_04.33.30.118,-0.02100,-0.00100,1.00300,0.08700,-0.12300,-0.01800,0.54800,0.45600,-1.31700,80.64000,0.42000
041225_04.33.30.130,-0.02100,-0.00100,1.00500,0.07000,-0.12300,-0.03500,0.54900,0.45500,-1.31700,80.88000,0.24000
041225_04.33.30.141,-0.02000,-0.00000,1.00000,0.08700,-0.12300,-0.01800,0.55600,0.45500,-1.31900,80.22000,-0.66000
041225_04.33.30.153,-0.02200,-0.00100,1.00300,0.08700,-0.10500,-0.01800,0.56500,0.44700,-1.32300,79.67000,-0.55000
041225_04.33.30.164,-0.02100,-0.00200,1.00100,0.10500,-0.12300,-0.05300,0.56500,0.44700,-1.32300,80.19000,0.52000
041225_04.33.30.175,-0.02000,-0.00200,1.00200,0.07000,-0.12300,-0.03500,0.56600,0.45100,-1.32500,80.12000,-0.07000
041225_04.33.30.187,-0.02200,-0.00300,1.00300,0.08700,-0.10500,-0.03500,0.56600,0.45100,-1.31900,79.50000,-0.62000
041225_04.33.30.198,-0.02000,-0.00300,1.00000,0.10500,-0.10500,-0.01800,0.56600,0.45400,-1.32100,80.15000,0.65000
041225_04.33.30.210,-0.02100,-0.00300,1.00100,0.10500,-0.10500,0.00000,0.56100,0.45200,-1.32200,80.50000,0.35000
041225_04.33.30.221,-0.02200,-0.00300,1.00200,0.10500,-0.12300,-0.01800,0.56100,0.45200,-1.32200,80.22000,-0.28000
041225_04.33.30.233,-0.02000,-0.00200,1.00100,0.10500,-0.12300,-0.03500,0.56600,0.45700,-1.32000,79.47000,-0.75000
041225_04.33.30.244,-0.02100,-0.00200,1.00400,0.07000,-0.14000,0.00000,0.56600,0.45900,-1.32200,80.13000,0.66000
041225_04.33.30.255,-0.02100,-0.00200,1.00000,0.08700,-0.10500,0.00000,0.56200,0.45300,-1.31700,79.65000,-0.48000
041225_04.33.30.267,-0.02200,-0.00100,1.00400,0.10500,-0.12300,0.00000,0.56200,0.45300,-1.31700,80.50000,0.85000
041225_04.33.30.278,-0.02000,-0.00200,1.00100,0.10500,-0.14000,-0.01800,0.56400,0.46100,-1.31300,79.80000,-0.70000
041225_04.33.30.290,-0.02200,-0.00100,1.00100,0.10500,-0.12300,0.00000,0.56200,0.45800,-1.31500,79.65000,-0.15000
041225_04.33.30.301,-0.02000,-0.00400,1.00100,0.10500,-0.12300,-0.01800,0.55900,0.46000,-1.31100,80.20000,0.55000
041225_04.33.30.313,-0.02200,-0.00200,1.00100,0.10500,-0.10500,-0.03500,0.55000,0.45800,-1.29600,79.81000,-0.39000
041225_04.33.30.324,-0.02300,-0.00300,1.00300,0.10500,-0.14000,-0.01800,0.55000,0.45800,-1.29600,79.66000,-0.15000
041225_04.33.30.336,-0.02200,-0.00100,1.00000,0.10500,-0.12300,-0.01800,0.55200,0.45800,-1.30600,79.91000,0.25000
041225_04.33.30.347,-0.02300,-0.00300,1.00300,0.10500,-0.12300,-0.01800,0.55100,0.45800,-1.31100,80.12000,0.21000
041225_04.33.30.358,-0.02200,-0.00300,1.00200,0.10500,-0.10500,-0.01800,0.55200,0.45800,-1.31300,80.33000,0.21000
041225_04.33.30.370,-0.02200,-0.00200,1.00200,0.10500,-0.12300,-0.01800,0.55200,0.45500,-1.31000,80.01000,-0.32000
041225_04.33.30.381,-0.02200,-0.00300,1.00300,0.07000,-0.12300,-0.01800,0.54400,0.45500,-1.31000,80.03000,0.02000
041225_04.33.30.393,-0.02000,-0.00100,1.00200,0.07000,-0.10500,-0.01800,0.54900,0.46000,-1.31200,80.27000,0.24000
041225_04.33.30.404,-0.02300,-0.00400,1.00300,0.08700,-0.10500,-0.03500,0.55400,0.45700,-1.31700,80.18000,-0.09000
041225_04.33.30.416,-0.02200,-0.00300,1.00300,0.08700,-0.12300,-0.01800,0.56100,0.45600,-1.31700,79.95000,-0.23000
041225_04.33.30.427,-0.02200,-0.00200,1.00000,0.07000,-0.12300,-0.01800,0.56100,0.45600,-1.31700,80.50000,0.55000
041225_04.33.30.439,-0.02100,-0.00300,1.00100,0.07000,-0.12300,-0.01800,0.55800,0.45500,-1.31600,79.97000,-0.53000
041225_04.33.30.450,-0.02000,-0.00300,1.00300,0.07000,-0.12300,0.00000,0.56400,0.45800,-1.31300,79.57000,-0.40000
041225_04.33.30.462,-0.02300,-0.00200,1.00400,0.08700,-0.12300,-0.03500,0.56200,0.45600,-1.31600,79.80000,0.23000
041225_04.33.30.473,-0.02100,-0.00100,1.00100,0.07000,-0.12300,-0.03500,0.56300,0.45800,-1.31600,80.60000,0.80000
041225_04.33.30.485,-0.02200,-0.00200,1.00300,0.07000,-0.08700,-0.03500,0.56300,0.45800,-1.31600,80.29000,-0.31000
041225_04.33.30.496,-0.02000,-0.00300,1.00500,0.10500,-0.10500,-0.03500,0.56800,0.46000,-1.31700,80.26000,-0.03000
041225_04.33.30.508,-0.02000,-0.00200,1.00100,0.08700,-0.14000,-0.03500,0.56300,0.45700,-1.31800,80.38000,0.12000
041225_04.33.30.519,-0.02300,-0.00300,1.00500,0.08700,-0.12300,0.00000,0.56400,0.45400,-1.31600,79.68000,-0.70000
041225_04.33.30.531,-0.02000,-0.00200,1.00000,0.08700,-0.12300,-0.01800,0.56400,0.45400,-1.31600,79.77000,0.09000
041225_04.33.30.542,-0.02100,-0.00200,1.00200,0.10500,-0.12300,-0.01800,0.56200,0.45600,-1.31200,80.05000,0.28000
041225_04.33.30.554,-0.02000,-0.00100,1.00200,0.12300,-0.12300,-0.03500,0.55700,0.45700,-1.31800,80.43000,0.38000
041225_04.33.30.565,-0.02100,-0.00100,1.00100,0.10500,-0.14000,-0.01800,0.55100,0.45900,-1.31600,80.03000,-0.40000
041225_04.33.30.576,-0.02200,-0.00200,1.00200,0.12300,-0.12300,-0.01800,0.55000,0.45900,-1.31200,80.46000,0.43000
041225_04.33.30.588,-0.02000,-0.00300,1.00000,0.10500,-0.14000,-0.01800,0.55000,0.45900,-1.31200,79.72000,-0.74000
041225_04.33.30.599,-0.02200,-0.00300,1.00300,0.08700,-0.12300,0.00000,0.54500,0.46000,-1.31600,80.33000,0.61000
041225_04.33.30.611,-0.02000,-0.00200,0.99900,0.08700,-0.14000,-0.01800,0.55100,0.45600,-1.31600,80.37000,0.04000
041225_04.33.30.622,-0.02200,-0.00300,1.00200,0.08700,-0.12300,-0.01800,0.54600,0.45800,-1.31800,80.24000,-0.13000
041225_04.33.30.634,-0.02200,-0.00200,1.00200,0.12300,-0.10500,-0.01800,0.54600,0.45800,-1.31400,80.05000,-0.19000
041225_04.33.30.645,-0.02000,-0.00200,1.00100,0.12300,-0.12300,-0.01800,0.54400,0.45300,-1.31400,79.89000,-0.16000
041225_04.33.30.657,-0.02200,-0.00300,1.00400,0.12300,-0.12300,-0.01800,0.54600,0.45500,-1.31600,80.66000,0.77000
041225_04.33.30.668,-0.01900,-0.00200,1.00000,0.10500,-0.12300,-0.03500,0.55000,0.45300,-1.31400,80.35000,-0.31000
041225_04.33.30.680,-0.02200,-0.00400,1.00200,0.10500,-0.12300,0.00000,0.55400,0.45800,-1.31800,80.35000,0.00000
041225_04.33.30.691,-0.02100,-0.00300,1.00200,0.08700,-0.14000,-0.01800,0.55400,0.45800,-1.31800,79.81000,-0.54000
041225_04.33.30.702,-0.02000,-0.00300,1.00000,0.07000,-0.12300,-0.01800,0.55500,0.45500,-1.31000,79.50000,-0.31000
041225_04.33.30.714,-0.02200,-0.00400,1.00400,0.12300,-0.14000,-0.03500,0.55700,0.45800,-1.31100,79.80000,0.30000
041225_04.33.30.725,-0.02200,-0.00400,1.00000,0.12300,-0.10500,-0.01800,0.56000,0.45300,-1.31600,80.07000,0.27000
041225_04.33.30.737,-0.02100,-0.00200,1.00300,0.10500,-0.12300,0.00000,0.56100,0.45700,-1.32100,79.90000,-0.17000
041225_04.33.30.748,-0.02200,-0.00300,1.00200,0.08700,-0.12300,-0.01800,0.56100,0.45700,-1.32100,80.64000,0.74000
041225_04.33.30.760,-0.02100,-0.00200,1.00000,0.10500,-0.12300,-0.01800,0.56100,0.45800,-1.31900,79.92000,-0.72000
041225_04.33.30.771,-0.02300,-0.00300,1.00400,0.10500,-0.12300,-0.01800,0.56000,0.45600,-1.31800,80.02000,0.10000
041225_04.33.30.783,-0.02200,-0.00200,1.00000,0.10500,-0.14000,-0.01800,0.56300,0.45400,-1.31900,80.03000,0.01000
041225_04.33.30.794,-0.02200,-0.00300,1.00400,0.10500,-0.12300,0.00000,0.56300,0.45400,-1.31900,79.82000,-0.21000
041225_04.33.30.805,-0.02100,-0.00200,1.00200,0.10500,-0.14000,-0.03500,0.55600,0.45800,-1.31300,79.95000,0.13000
041225_04.33.30.817,-0.02200,-0.00300,1.00100,0.10500,-0.10500,-0.05300,0.55800,0.46100,-1.31800,79.97000,0.02000
041225_04.33.30.828,-0.02200,-0.00200,1.00300,0.10500,-0.14000,-0.03500,0.55400,0.45700,-1.31600,80.29000,0.32000
041225_04.33.30.840,-0.02200,-0.00300,0.99900,0.10500,-0.14000,-0.03500,0.55500,0.46000,-1.30500,80.47000,0.18000
041225_04.33.30.851,-0.02200,-0.00200,1.00400,0.08700,-0.12300,-0.03500,0.55500,0.46000,-1.30500,80.28000,-0.19000
041225_04.33.30.863,-0.02200,-0.00300,1.00100,0.08700,-0.14000,-0.01800,0.55500,0.45900,-1.30900,80.77000,0.49000
041225_04.33.30.874,-0.02200,-0.00200,1.00300,0.08700,-0.12300,-0.03500,0.55100,0.46000,-1.31600,79.70000,-1.07000
041225_04.33.30.885,-0.02100,-0.00300,1.00500,0.08700,-0.15700,-0.03500,0.54700,0.46000,-1.32100,79.78000,0.08000
041225_04.33.30.897,-0.02100,-0.00100,1.00000,0.07000,-0.14000,-0.03500,0.54700,0.46000,-1.32100,80.11000,0.33000
041225_04.33.30.909,-0.02200,-0.00300,1.00600,0.08700,-0.12300,-0.01800,0.54500,0.45600,-1.31700,80.15000,0.04000
041225_04.33.30.920,-0.02100,-0.00300,1.00300,0.08700,-0.14000,-0.01800,0.54900,0.45500,-1.31600,79.79000,-0.36000
041225_04.33.30.931,-0.02300,-0.00100,1.00200,0.12300,-0.14000,-0.01800,0.54800,0.45800,-1.31200,80.61000,0.82000
041225_04.33.30.943,-0.02100,-0.00400,1.00400,0.08700,-0.14000,-0.03500,0.54800,0.45600,-1.31800,79.96000,-0.65000
041225_04.33.30.954,-0.02300,-0.00200,1.00400,0.07000,-0.12300,-0.03500,0.54800,0.45600,-1.31800,80.24000,0.28000
041225_04.33.30.966,-0.02100,-0.00200,1.00200,0.08700,-0.12300,-0.01800,0.55000,0.45700,-1.31100,80.41000,0.17000
041225_04.33.30.977,-0.02200,-0.00200,1.00100,0.07000,-0.12300,-0.03500,0.55400,0.45600,-1.32100,79.89000,-0.52000
041225_04.33.30.989,-0.02000,-0.00200,1.00400,0.07000,-0.12300,-0.01800,0.56300,0.46200,-1.31900,80.08000,0.19000
041225_04.33.31.000,-0.02100,-0.00300,1.00200,0.10500,-0.14000,-0.03500,0.56300,0.46100,-1.31400,80.63000,0.55000
041225_04.33.31.011,-0.02100,-0.00300,1.00200,0.07000,-0.12300,0.00000,0.56000,0.46100,-1.31400,79.89000,-0.74000
041225_04.33.31.023,-0.02200,-0.00300,1.00300,0.08700,-0.12300,-0.01800,0.55700,0.45800,-1.31000,80.26000,0.37000
041225_04.33.31.034,-0.02200,-0.00200,1.00100,0.07000,-0.12300,-0.01800,0.56700,0.45700,-1.31800,80.40000,0.14000
041225_04.33.31.046,-0.02300,-0.00300,1.00500,0.08700,-0.12300,-0.03500,0.56300,0.45600,-1.31500,79.78000,-0.62000
041225_04.33.31.057,-0.02100,-0.00200,1.00100,0.07000,-0.12300,-0.03500,0.56300,0.45600,-1.31500,80.43000,0.65000
041225_04.33.31.069,-0.02000,-0.00200,1.00000,0.07000,-0.12300,-0.03500,0.56500,0.45700,-1.31800,80.19000,-0.24000
041225_04.33.31.080,-0.02200,-0.00400,1.00400,0.07000,-0.12300,-0.03500,0.56300,0.45500,-1.31300,80.19000,0.00000
041225_04.33.31.092,-0.02000,-0.00200,1.00000,0.08700,-0.10500,-0.01800,0.56100,0.45800,-1.31400,80.53000,0.34000
041225_04.33.31.103,-0.02200,-0.00300,1.00200,0.08700,-0.10500,0.00000,0.56200,0.45600,-1.31400,80.09000,-0.44000
041225_04.33.31.115,-0.02000,-0.00100,1.00100,0.10500,-0.12300,-0.03500,0.56200,0.45600,-1.31400,80.37000,0.28000
041225_04.33.31.126,-0.02100,-0.00400,1.00500,0.08700,-0.12300,-0.01800,0.55900,0.45500,-1.31700,80.09000,-0.28000
