timestamp,acc_x_cal,acc_y_cal,acc_z_cal,gyro_x_cal,gyro_y_cal,gyro_z_cal,mag_x_cal,mag_y_cal,mag_z_cal,altitude,relative_altitude
201125_15.30.03.018,-0.019832,-0.008167,1.005395,0.032390,-0.038000,0.026380,-0.345676,-0.423682,-0.337047,188.20000,0.00000
201125_15.30.03.029,-0.018832,-0.006165,1.004398,0.015390,-0.021000,0.009380,-0.346007,-0.425547,-0.351570,188.64000,0.44000
201125_15.30.03.041,-0.019841,-0.006154,1.005407,0.032390,-0.021000,0.009380,-0.345477,-0.423684,-0.328748,188.49000,-0.15000
201125_15.30.03.052,-0.019826,-0.006166,1.003405,0.032390,-0.021000,0.026380,-0.349445,-0.423647,-0.335072,188.68000,0.19000
201125_15.30.03.064,-0.019844,-0.007155,1.006402,0.015390,-0.021000,0.026380,-0.355259,-0.419854,-0.337297,188.74000,0.06000
201125_15.30.03.075,-0.017825,-0.007176,1.004385,0.015390,-0.003000,0.009380,-0.353274,-0.432957,-0.339318,188.81000,0.07000
201125_15.30.03.087,-0.019852,-0.007149,1.007403,0.032390,-0.038000,0.009380,-0.348034,-0.423659,-0.355770,188.70000,-0.11000
201125_15.30.03.098,-0.018842,-0.007159,1.006395,-0.001610,-0.003000,0.026380,-0.355255,-0.425461,-0.339370,188.22000,-0.48000
201125_15.30.03.109,-0.019849,-0.006148,1.006408,0.015390,-0.003000,0.009380,-0.351269,-0.427368,-0.333046,188.60000,0.38000
201125_15.30.03.120,-0.019817,-0.008179,1.003393,0.032390,-0.021000,0.026380,-0.349441,-0.429254,-0.337145,188.56000,-0.04000
201125_15.30.03.131,-0.019829,-0.007167,1.004400,0.015390,-0.021000,0.026380,-0.355291,-0.421723,-0.339371,188.47000,-0.09000
201125_15.30.03.143,-0.017840,-0.007164,1.006387,0.032390,-0.021000,0.009380,-0.355173,-0.423593,-0.335221,188.39000,-0.08000
201125_15.30.03.154,-0.020846,-0.007150,1.006410,0.015390,-0.038000,0.026380,-0.351522,-0.421758,-0.341347,188.16000,-0.23000
201125_15.30.03.165,-0.020831,-0.007162,1.004407,0.032390,-0.003000,0.026380,-0.357015,-0.425445,-0.333196,187.89000,-0.27000
201125_15.30.03.176,-0.019834,-0.006160,1.004406,0.032390,-0.003000,0.026380,-0.355070,-0.429202,-0.333145,188.69000,0.80000
201125_15.30.03.187,-0.019841,-0.006154,1.005407,0.032390,-0.021000,0.009380,-0.349609,-0.427383,-0.343370,188.15000,-0.54000
201125_15.30.03.198,-0.019837,-0.007161,1.005401,-0.001610,-0.038000,0.026380,-0.349473,-0.431123,-0.339219,188.34000,0.19000
201125_15.30.03.210,-0.018820,-0.007177,1.003391,0.015390,-0.038000,0.026380,-0.353228,-0.427350,-0.335170,188.30000,-0.04000
201125_15.30.03.221,-0.020839,-0.007156,1.005409,0.032390,-0.038000,0.026380,-0.347763,-0.431139,-0.347469,188.64000,0.34000
201125_15.30.03.232,-0.019829,-0.007167,1.004400,0.015390,-0.003000,0.009380,-0.353441,-0.431086,-0.345543,188.40000,-0.24000
201125_15.30.03.243,-0.018820,-0.007177,1.003391,0.015390,-0.021000,0.009380,-0.361236,-0.419798,-0.347820,188.09000,-0.31000
201125_15.30.03.254,-0.019817,-0.008179,1.003393,0.015390,-0.021000,0.026380,-0.355476,-0.417982,-0.345597,188.42000,0.33000
201125_15.30.03.265,-0.019837,-0.007161,1.005401,0.015390,-0.021000,0.044380,-0.351536,-0.425496,-0.343420,187.75000,-0.67000
201125_15.30.03.276,-0.019832,-0.008167,1.005395,0.032390,-0.021000,0.026380,-0.353445,-0.425478,-0.343470,188.45000,0.70000
201125_15.30.03.288,-0.019825,-0.008173,1.004394,0.032390,-0.038000,0.026380,-0.353431,-0.421740,-0.341396,188.01000,-0.44000
201125_15.30.03.299,-0.020836,-0.006156,1.004413,0.032390,-0.003000,0.026380,-0.351247,-0.434845,-0.335119,188.16000,0.15000
201125_15.30.03.310,-0.019841,-0.006154,1.005407,0.015390,-0.003000,-0.008620,-0.343980,-0.427436,-0.347370,188.14000,-0.02000
201125_15.30.03.322,-0.020824,-0.007168,1.003406,0.015390,-0.021000,0.044380,-0.345437,-0.433030,-0.330820,188.67000,0.53000
201125_15.30.03.333,-0.019837,-0.007161,1.005401,0.032390,-0.021000,0.026380,-0.353161,-0.429219,-0.333095,188.26000,-0.41000
201125_15.30.03.344,-0.019822,-0.007172,1.003399,0.015390,-0.021000,0.026380,-0.345608,-0.425552,-0.334972,188.75000,0.49000
201125_15.30.03.355,-0.019829,-0.007167,1.004400,0.032390,-0.021000,0.026380,-0.352975,-0.432960,-0.326870,188.04000,-0.71000
201125_15.30.03.366,-0.020831,-0.007162,1.004407,0.032390,-0.003000,0.026380,-0.357043,-0.432921,-0.337343,188.33000,0.29000
201125_15.30.03.377,-0.019837,-0.007161,1.005401,0.032390,-0.021000,0.009380,-0.349242,-0.429256,-0.328846,188.33000,0.00000
201125_15.30.03.388,-0.019817,-0.008179,1.003393,-0.001610,-0.021000,0.026380,-0.355287,-0.427330,-0.341445,188.72000,0.39000
201125_15.30.03.399,-0.020819,-0.008174,1.003400,0.015390,-0.021000,0.044380,-0.355337,-0.427330,-0.343519,187.79000,-0.93000
201125_15.30.03.411,-0.019832,-0.008167,1.005395,0.032390,-0.038000,0.009380,-0.351066,-0.432978,-0.326820,188.82000,1.03000
201125_15.30.03.422,-0.019829,-0.007167,1.004400,0.015390,-0.038000,0.009380,-0.353143,-0.431089,-0.333095,188.76000,-0.06000
201125_15.30.03.433,-0.018869,-0.006135,1.009404,0.032390,-0.003000,0.026380,-0.351713,-0.432971,-0.353792,188.57000,-0.19000
201125_15.30.03.444,-0.018800,-0.008195,1.001383,0.015390,-0.038000,0.026380,-0.351279,-0.436714,-0.337193,188.30000,-0.27000
201125_15.30.03.455,-0.019856,-0.006143,1.007409,0.015390,-0.021000,0.009380,-0.347411,-0.436750,-0.335018,188.53000,0.23000
201125_15.30.03.466,-0.019822,-0.007172,1.003399,0.015390,-0.038000,-0.008620,-0.351383,-0.431105,-0.339269,188.09000,-0.44000
201125_15.30.03.477,-0.019825,-0.008173,1.004394,0.032390,-0.038000,0.026380,-0.347347,-0.433012,-0.330870,187.83000,-0.26000
201125_15.30.03.489,-0.018830,-0.008172,1.005388,-0.001610,-0.021000,0.009380,-0.347813,-0.431138,-0.349543,188.98000,1.15000
201125_15.30.03.500,-0.019825,-0.008173,1.004394,-0.001610,0.015000,0.009380,-0.345836,-0.433026,-0.347418,188.28000,-0.70000
201125_15.30.03.511,-0.019829,-0.007167,1.004400,-0.001610,-0.003000,0.026380,-0.353260,-0.429218,-0.337245,188.23000,-0.05000
201125_15.30.03.523,-0.018827,-0.007171,1.004392,0.032390,0.015000,0.026380,-0.349406,-0.432993,-0.337144,188.23000,0.00000
201125_15.30.03.534,-0.019825,-0.008173,1.004394,0.032390,-0.003000,0.009380,-0.347564,-0.431141,-0.339170,188.89000,0.66000
201125_15.30.03.545,-0.019822,-0.007172,1.003399,0.015390,-0.021000,0.009380,-0.355102,-0.431070,-0.335219,188.67000,-0.22000
201125_15.30.03.557,-0.020824,-0.007168,1.003406,0.032390,-0.003000,0.062380,-0.347261,-0.436751,-0.328794,188.69000,0.02000
201125_15.30.03.568,-0.019829,-0.007167,1.004400,0.050390,-0.003000,0.009380,-0.351038,-0.425501,-0.322672,187.59000,-1.10000
201125_15.30.03.579,-0.019829,-0.007167,1.004400,0.015390,-0.021000,0.026380,-0.349252,-0.438602,-0.332993,188.93000,1.34000
201125_15.30.03.590,-0.020824,-0.007168,1.003406,0.032390,-0.021000,0.026380,-0.348940,-0.434867,-0.318471,188.32000,-0.61000
201125_15.30.03.601,-0.019837,-0.007161,1.005401,-0.001610,-0.021000,0.009380,-0.345740,-0.427419,-0.341196,187.86000,-0.46000
201125_15.30.03.612,-0.018836,-0.005158,1.004404,0.032390,-0.021000,0.026380,-0.335873,-0.434989,-0.330571,187.89000,0.03000
201125_15.30.03.622,-0.019834,-0.006160,1.004406,0.032390,-0.021000,0.026380,-0.349577,-0.425514,-0.341296,188.29000,0.40000
201125_15.30.03.634,-0.019822,-0.007172,1.003399,0.015390,-0.021000,0.026380,-0.351006,-0.423632,-0.320598,188.32000,0.03000
201125_15.30.03.645,-0.019837,-0.007161,1.005401,0.032390,-0.021000,0.026380,-0.345772,-0.429288,-0.343270,188.46000,0.14000
201125_15.30.03.657,-0.019829,-0.007167,1.004400,-0.001610,-0.003000,-0.008620,-0.342085,-0.431192,-0.349394,188.94000,0.48000
201125_15.30.03.668,-0.019829,-0.007167,1.004400,0.015390,-0.003000,0.026380,-0.348048,-0.427397,-0.357844,188.37000,-0.57000
201125_15.30.03.679,-0.019829,-0.007167,1.004400,0.015390,-0.021000,0.009380,-0.353328,-0.427348,-0.339320,188.75000,0.38000
201125_15.30.03.690,-0.019822,-0.007172,1.003399,0.032390,-0.021000,0.026380,-0.351482,-0.431104,-0.343419,188.86000,0.11000
201125_15.30.03.702,-0.019829,-0.007167,1.004400,0.050390,-0.003000,0.026380,-0.345989,-0.427417,-0.351569,188.17000,-0.69000
201125_15.30.03.713,-0.019829,-0.007167,1.004400,0.015390,-0.003000,0.026380,-0.347930,-0.429268,-0.353694,188.41000,0.24000
201125_15.30.03.724,-0.020831,-0.007162,1.004407,0.032390,-0.021000,0.026380,-0.349491,-0.429254,-0.339220,188.48000,0.07000
201125_15.30.03.735,-0.018820,-0.007177,1.003391,0.015390,-0.003000,0.026380,-0.351180,-0.436715,-0.333043,188.25000,-0.23000
201125_15.30.03.746,-0.019832,-0.008167,1.005395,0.032390,-0.038000,0.026380,-0.345541,-0.427421,-0.332896,188.59000,0.34000
201125_15.30.03.758,-0.018827,-0.007171,1.004392,0.015390,-0.021000,-0.008620,-0.345686,-0.433027,-0.341194,187.96000,-0.63000
201125_15.30.03.769,-0.019841,-0.006154,1.005407,0.032390,-0.021000,0.009380,-0.347361,-0.436750,-0.332944,188.31000,0.35000
201125_15.30.03.780,-0.019829,-0.007167,1.004400,0.032390,-0.021000,0.009380,-0.339485,-0.446170,-0.326518,188.58000,0.27000
201125_15.30.03.791,-0.019829,-0.007167,1.004400,0.050390,-0.038000,0.026380,-0.339944,-0.429343,-0.338971,188.53000,-0.05000
201125_15.30.03.802,-0.018827,-0.007171,1.004392,0.015390,-0.003000,0.026380,-0.343460,-0.434918,-0.328695,188.42000,-0.11000
201125_15.30.03.813,-0.018835,-0.007165,1.005393,0.032390,-0.021000,0.009380,-0.337604,-0.427496,-0.320249,188.53000,0.11000
201125_15.30.03.824,-0.019829,-0.007167,1.004400,0.015390,-0.021000,0.044380,-0.335894,-0.427512,-0.328498,188.35000,-0.18000
201125_15.30.03.835,-0.018827,-0.007171,1.004392,0.032390,-0.021000,0.026380,-0.337949,-0.433100,-0.336845,187.59000,-0.76000
201125_15.30.03.847,-0.018827,-0.007171,1.004392,0.032390,-0.038000,0.009380,-0.341931,-0.436801,-0.345243,188.26000,0.67000
201125_15.30.03.857,-0.019837,-0.007161,1.005401,0.015390,-0.021000,0.026380,-0.334298,-0.431265,-0.342971,188.97000,0.71000
201125_15.30.03.869,-0.019829,-0.007167,1.004400,0.032390,-0.021000,0.026380,-0.341921,-0.427455,-0.341096,188.20000,-0.77000
201125_15.30.03.880,-0.020831,-0.007162,1.004407,0.015390,0.015000,0.026380,-0.334116,-0.429397,-0.334672,188.83000,0.63000
201125_15.30.03.891,-0.019832,-0.008167,1.005395,0.015390,-0.038000,0.009380,-0.341288,-0.431200,-0.316198,188.44000,-0.39000
201125_15.30.03.902,-0.018820,-0.007177,1.003391,0.032390,-0.021000,0.026380,-0.341373,-0.427461,-0.318273,188.50000,0.06000
201125_15.30.03.914,-0.018827,-0.007171,1.004392,0.015390,-0.003000,0.026380,-0.339723,-0.436822,-0.332745,188.06000,-0.44000
201125_15.30.03.925,-0.018815,-0.008183,1.003385,0.032390,-0.021000,0.026380,-0.343393,-0.436788,-0.326620,188.30000,0.24000
201125_15.30.03.936,-0.019837,-0.007161,1.005401,0.015390,-0.038000,0.044380,-0.347600,-0.427402,-0.339171,188.40000,0.10000
201125_15.30.03.947,-0.018823,-0.008178,1.004386,0.015390,-0.003000,0.009380,-0.349555,-0.432991,-0.343368,188.04000,-0.36000
201125_15.30.03.958,-0.018820,-0.007177,1.003391,0.050390,-0.021000,0.009380,-0.343610,-0.434916,-0.334919,188.52000,0.48000
201125_15.30.03.969,-0.019822,-0.007172,1.003399,0.032390,-0.021000,0.026380,-0.347492,-0.438618,-0.339167,188.07000,-0.45000
201125_15.30.03.980,-0.019841,-0.006154,1.005407,0.032390,-0.021000,0.026380,-0.335908,-0.431250,-0.330572,189.30000,1.23000
201125_15.30.03.992,-0.019822,-0.007172,1.003399,0.032390,-0.021000,0.009380,-0.347510,-0.436749,-0.339168,188.43000,-0.87000
201125_15.30.04.003,-0.019829,-0.007167,1.004400,0.032390,-0.021000,0.026380,-0.336044,-0.427510,-0.334722,188.40000,-0.03000
201125_15.30.04.014,-0.020834,-0.008162,1.005403,0.050390,-0.021000,0.026380,-0.342003,-0.429323,-0.345245,187.94000,-0.46000
201125_15.30.04.025,-0.019829,-0.007167,1.004400,0.015390,-0.021000,0.009380,-0.347649,-0.427402,-0.341245,187.62000,-0.32000
201125_15.30.04.036,-0.019822,-0.007172,1.003399,0.015390,-0.003000,0.026380,-0.342053,-0.429323,-0.347320,188.25000,0.63000
201125_15.30.04.047,-0.019817,-0.008179,1.003393,0.032390,-0.021000,0.009380,-0.351586,-0.425495,-0.345495,188.86000,0.61000
201125_15.30.04.059,-0.019829,-0.007167,1.004400,0.032390,-0.038000,0.009380,-0.349573,-0.431122,-0.343369,188.30000,-0.56000
201125_15.30.04.070,-0.018830,-0.008172,1.005388,0.032390,-0.003000,0.009380,-0.343994,-0.431174,-0.349444,188.05000,-0.25000
201125_15.30.04.082,-0.019837,-0.007161,1.005401,0.015390,-0.038000,0.026380,-0.341854,-0.429325,-0.339021,187.77000,-0.28000
201125_15.30.04.093,-0.019822,-0.007172,1.003399,-0.001610,-0.021000,0.026380,-0.340090,-0.434949,-0.347268,188.25000,0.48000
201125_15.30.04.104,-0.019825,-0.008173,1.004394,0.015390,-0.021000,0.026380,-0.343642,-0.436785,-0.336994,188.02000,-0.23000
201125_15.30.04.115,-0.018823,-0.008178,1.004386,0.032390,-0.003000,0.026380,-0.347695,-0.433009,-0.345393,188.14000,0.12000
201125_15.30.04.126,-0.019829,-0.007167,1.004400,0.050390,-0.038000,0.026380,-0.345537,-0.433029,-0.334970,188.19000,0.05000
201125_15.30.04.138,-0.019832,-0.008167,1.005395,0.032390,-0.003000,0.009380,-0.339628,-0.431215,-0.326522,188.74000,0.55000
201125_15.30.04.149,-0.019834,-0.006160,1.004406,0.015390,-0.021000,0.026380,-0.331940,-0.431287,-0.324248,187.97000,-0.77000
201125_15.30.04.160,-0.019829,-0.007167,1.004400,0.015390,-0.021000,0.009380,-0.339713,-0.427476,-0.328598,188.75000,0.78000
201125_15.30.04.171,-0.018827,-0.007171,1.004392,0.015390,-0.021000,0.026380,-0.345306,-0.431162,-0.324596,188.47000,-0.28000
201125_15.30.04.183,-0.019834,-0.006160,1.004406,0.032390,-0.003000,0.026380,-0.347411,-0.436750,-0.335018,188.82000,0.35000
201125_15.30.04.194,-0.018827,-0.007171,1.004392,0.032390,-0.021000,0.026380,-0.341768,-0.433064,-0.336945,188.39000,-0.43000
201125_15.30.04.205,-0.019829,-0.007167,1.004400,0.032390,-0.003000,0.026380,-0.341583,-0.436805,-0.330720,188.27000,-0.12000
201125_15.30.04.216,-0.018830,-0.008172,1.005388,0.015390,-0.003000,0.009380,-0.345338,-0.433031,-0.326671,188.27000,0.00000
201125_15.30.04.227,-0.018827,-0.007171,1.004392,0.015390,-0.003000,0.026380,-0.347076,-0.440492,-0.322569,188.51000,0.24000
201125_15.30.04.238,-0.018815,-0.008183,1.003385,0.015390,-0.003000,-4.435620,-0.335542,-0.433123,-0.316048,187.58000,-0.93000
201125_15.30.04.250,-0.020819,-0.008174,1.003400,-0.001610,-0.021000,0.026380,-0.349206,-0.432995,-0.328845,188.26000,0.68000
201125_15.30.04.261,-0.020827,-0.008168,1.004402,-0.001610,-0.021000,0.009380,-0.352947,-0.425483,-0.322722,188.53000,0.27000
201125_15.30.04.272,-0.018835,-0.007165,1.005393,0.050390,-0.021000,-0.008620,-0.341740,-0.425588,-0.332797,188.17000,-0.36000
201125_15.30.04.283,-0.019837,-0.007161,1.005401,0.032390,-0.038000,0.026380,-0.343283,-0.427443,-0.318323,188.50000,0.33000
201125_15.30.04.295,-0.019829,-0.007167,1.004400,0.032390,0.015000,0.026380,-0.337985,-0.429361,-0.336846,188.59000,0.09000
201125_15.30.04.305,-0.018827,-0.007171,1.004392,0.015390,-0.021000,0.026380,-0.349125,-0.431127,-0.324696,188.56000,-0.03000
201125_15.30.04.317,-0.020827,-0.008168,1.004402,0.015390,-0.038000,0.009380,-0.343848,-0.425568,-0.341146,188.42000,-0.14000
201125_15.30.04.328,-0.020836,-0.006156,1.004413,0.050390,-0.003000,0.026380,-0.347446,-0.433011,-0.335019,188.03000,-0.39000
201125_15.30.04.339,-0.019837,-0.007161,1.005401,0.015390,-0.003000,0.009380,-0.341949,-0.434932,-0.345243,189.13000,1.10000
201125_15.30.04.351,-0.019822,-0.007172,1.003399,0.015390,-0.021000,0.026380,-0.347845,-0.433007,-0.351618,188.43000,-0.70000
201125_15.30.04.362,-0.019829,-0.007167,1.004400,0.015390,-0.038000,0.009380,-0.343574,-0.438655,-0.334918,188.41000,-0.02000
201125_15.30.04.373,-0.019822,-0.007172,1.003399,0.015390,-0.021000,0.026380,-0.341832,-0.436802,-0.341093,188.21000,-0.20000
201125_15.30.04.384,-0.019829,-0.007167,1.004400,0.032390,-0.021000,0.026380,-0.345637,-0.433028,-0.339119,187.77000,-0.44000
201125_15.30.04.395,-0.019822,-0.007172,1.003399,0.015390,-0.021000,0.009380,-0.339624,-0.436823,-0.328595,188.50000,0.73000
201125_15.30.04.406,-0.019834,-0.006160,1.004406,0.015390,-0.021000,0.009380,-0.339777,-0.431214,-0.332746,188.11000,-0.39000
201125_15.30.04.417,-0.019832,-0.008167,1.005395,-0.001610,-0.038000,0.026380,-0.338085,-0.429360,-0.340996,187.52000,-0.59000
201125_15.30.04.428,-0.019829,-0.007167,1.004400,0.015390,-0.003000,0.026380,-0.341668,-0.433065,-0.332795,188.45000,0.93000
201125_15.30.04.439,-0.018832,-0.006165,1.004398,0.032390,-0.003000,0.009380,-0.337790,-0.423756,-0.326474,188.35000,-0.10000
201125_15.30.04.450,-0.018823,-0.008178,1.004386,0.050390,-0.038000,0.026380,-0.343809,-0.434914,-0.343219,188.95000,0.60000
201125_15.30.04.461,-0.020831,-0.007162,1.004407,-0.001610,-0.003000,0.026380,-0.341868,-0.433063,-0.341094,188.32000,-0.63000
201125_15.30.04.472,-0.019837,-0.007161,1.005401,0.015390,0.015000,0.026380,-0.339930,-0.425605,-0.336897,188.27000,-0.05000
201125_15.30.04.483,-0.018835,-0.007165,1.005393,0.032390,-0.021000,0.026380,-0.333931,-0.433138,-0.328447,188.54000,0.27000
201125_15.30.04.495,-0.020824,-0.007168,1.003406,0.050390,-0.038000,0.026380,-0.339848,-0.423736,-0.332748,187.97000,-0.57000
201125_15.30.04.506,-0.017837,-0.006164,1.005392,0.032390,-0.021000,0.026380,-0.339546,-0.429347,-0.322373,188.88000,0.91000
201125_15.30.04.517,-0.019822,-0.007172,1.003399,0.032390,-0.021000,0.009380,-0.339731,-0.425607,-0.328598,188.19000,-0.69000
201125_15.30.04.528,-0.019829,-0.007167,1.004400,0.015390,-0.021000,0.026380,-0.336207,-0.431247,-0.343020,188.07000,-0.12000
201125_15.30.04.539,-0.020839,-0.007156,1.005409,0.015390,-0.003000,0.009380,-0.340058,-0.433080,-0.345194,188.46000,0.39000
201125_15.30.04.550,-0.018827,-0.007171,1.004392,0.032390,-0.038000,0.009380,-0.344143,-0.431172,-0.355668,188.20000,-0.26000
201125_15.30.04.562,-0.019826,-0.006166,1.003405,0.015390,-0.021000,0.026380,-0.341903,-0.429324,-0.341095,188.05000,-0.15000
201125_15.30.04.573,-0.019825,-0.008173,1.004394,0.015390,-0.055000,0.026380,-0.336090,-0.433117,-0.338870,189.12000,1.07000
201125_15.30.04.584,-0.017825,-0.007176,1.004385,0.015390,-0.021000,0.026380,-0.341672,-0.427458,-0.330722,188.34000,-0.78000
201125_15.30.04.595,-0.019829,-0.007167,1.004400,0.015390,0.015000,0.026380,-0.339894,-0.429343,-0.336896,188.33000,-0.01000
201125_15.30.04.606,-0.019829,-0.007167,1.004400,0.032390,-0.003000,0.009380,-0.343994,-0.431174,-0.349444,188.42000,0.09000
201125_15.30.04.617,-0.019829,-0.007167,1.004400,0.050390,-0.021000,0.026380,-0.342071,-0.427454,-0.347320,188.38000,-0.04000
201125_15.30.04.628,-0.019832,-0.008167,1.005395,0.032390,-0.021000,0.026380,-0.343980,-0.427436,-0.347370,187.87000,-0.51000
201125_15.30.04.640,-0.018827,-0.007171,1.004392,0.050390,-0.003000,0.026380,-0.355155,-0.425462,-0.335221,188.40000,0.53000
201125_15.30.04.651,-0.019825,-0.008173,1.004394,0.032390,-0.038000,0.026380,-0.344076,-0.433042,-0.353593,189.30000,0.90000
201125_15.30.04.662,-0.019822,-0.007172,1.003399,0.015390,-0.021000,0.009380,-0.340058,-0.433080,-0.345194,187.94000,-1.36000
201125_15.30.04.673,-0.019829,-0.007167,1.004400,0.015390,-0.003000,0.009380,-0.340012,-0.427473,-0.341046,188.80000,0.86000
201125_15.30.04.685,-0.019841,-0.006154,1.005407,0.015390,-0.021000,0.026380,-0.340094,-0.429341,-0.345195,188.53000,-0.27000
201125_15.30.04.696,-0.019829,-0.007167,1.004400,0.015390,-0.003000,0.026380,-0.347550,-0.427403,-0.337096,188.22000,-0.31000
201125_15.30.04.708,-0.019829,-0.007167,1.004400,0.015390,-0.021000,0.026380,-0.339862,-0.427475,-0.334822,188.37000,0.15000
201125_15.30.04.719,-0.018827,-0.007171,1.004392,0.032390,-0.021000,0.009380,-0.345551,-0.436767,-0.337043,188.12000,-0.25000
201125_15.30.04.730,-0.019826,-0.006166,1.003405,0.050390,-0.003000,0.009380,-0.341690,-0.425588,-0.330723,188.92000,0.80000
201125_15.30.04.741,-0.018827,-0.007171,1.004392,0.032390,-0.021000,0.026380,-0.345825,-0.423680,-0.343271,188.84000,-0.08000
201125_15.30.04.752,-0.019834,-0.006160,1.004406,-0.001610,-0.021000,0.026380,-0.341850,-0.434933,-0.341094,188.24000,-0.60000
201125_15.30.04.763,-0.018835,-0.007165,1.005393,0.015390,-0.021000,0.026380,-0.343799,-0.425568,-0.339072,188.55000,0.31000
201125_15.30.04.774,-0.018839,-0.006159,1.005399,-0.001610,-0.038000,0.009380,-0.336446,-0.421899,-0.349247,188.99000,0.44000
201125_15.30.04.785,-0.019837,-0.007161,1.005401,0.032390,-0.003000,0.009380,-0.336324,-0.429377,-0.347170,188.49000,-0.50000
201125_15.30.04.796,-0.018827,-0.007171,1.004392,0.015390,-0.021000,0.026380,-0.339845,-0.429344,-0.334821,188.65000,0.16000
201125_15.30.04.807,-0.018827,-0.007171,1.004392,0.015390,-0.021000,0.044380,-0.334362,-0.435002,-0.347119,188.62000,-0.03000
201125_15.30.04.818,-0.019829,-0.007167,1.004400,0.015390,-0.021000,0.026380,-0.341679,-0.442411,-0.336942,188.43000,-0.19000
201125_15.30.04.829,-0.019844,-0.007155,1.006402,0.050390,-0.021000,0.026380,-0.345583,-0.438636,-0.339118,188.64000,0.21000
201125_15.30.04.841,-0.018827,-0.007171,1.004392,0.032390,-0.003000,0.026380,-0.343592,-0.436786,-0.334919,188.77000,0.13000
201125_15.30.04.852,-0.019822,-0.007172,1.003399,0.015390,-0.021000,0.026380,-0.349452,-0.438600,-0.341292,188.32000,-0.45000
201125_15.30.04.864,-0.019841,-0.006154,1.005407,0.015390,-0.003000,0.026380,-0.345732,-0.438635,-0.345342,188.65000,0.33000
201125_15.30.04.875,-0.018820,-0.007177,1.003391,0.032390,-0.003000,0.009380,-0.349519,-0.436730,-0.343367,188.63000,-0.02000
201125_15.30.04.886,-0.019814,-0.007178,1.002398,0.015390,-0.021000,0.009380,-0.341882,-0.436801,-0.343168,188.63000,0.00000
201125_15.30.04.898,-0.018838,-0.008166,1.006389,0.015390,-0.038000,0.009380,-0.347432,-0.429273,-0.332946,188.04000,-0.59000
201125_15.30.04.909,-0.018839,-0.006159,1.005399,0.015390,-0.021000,0.026380,-0.341786,-0.431195,-0.336945,188.43000,0.39000
201125_15.30.04.920,-0.019826,-0.006166,1.003405,0.015390,-0.021000,0.009380,-0.345782,-0.438634,-0.347417,188.23000,-0.20000
201125_15.30.04.931,-0.019826,-0.006166,1.003405,0.015390,-0.003000,0.009380,-0.343912,-0.429306,-0.345295,188.50000,0.27000
201125_15.30.04.942,-0.019829,-0.007167,1.004400,0.015390,-0.021000,0.026380,-0.345669,-0.434897,-0.341194,188.75000,0.25000
201125_15.30.04.954,-0.019829,-0.007167,1.004400,0.032390,0.015000,0.026380,-0.342212,-0.438667,-0.357691,188.25000,-0.50000
201125_15.30.04.965,-0.020814,-0.009181,1.003395,0.015390,-0.021000,0.009380,-0.338198,-0.433097,-0.347219,187.83000,-0.42000
201125_15.30.04.976,-0.019837,-0.007161,1.005401,0.015390,-0.003000,0.026380,-0.334533,-0.427524,-0.351271,188.14000,0.31000
201125_15.30.04.988,-0.019829,-0.007167,1.004400,0.032390,-0.021000,0.009380,-0.334362,-0.435002,-0.347119,188.35000,0.21000
201125_15.30.04.999,-0.018823,-0.008178,1.004386,0.032390,0.015000,0.026380,-0.334362,-0.435002,-0.347119,188.77000,0.42000
201125_15.30.05.010,-0.019837,-0.007161,1.005401,-0.001610,-0.021000,0.009380,-0.334379,-0.433133,-0.347120,188.92000,0.15000
201125_15.30.05.022,-0.018827,-0.007171,1.004392,0.015390,-0.021000,0.009380,-0.340346,-0.423731,-0.353496,188.40000,-0.52000
201125_15.30.05.033,-0.018835,-0.007165,1.005393,0.032390,-0.021000,0.009380,-0.338102,-0.427491,-0.340996,188.63000,0.23000
201125_15.30.05.044,-0.018827,-0.007171,1.004392,0.032390,-0.021000,0.026380,-0.338131,-0.434967,-0.345144,188.32000,-0.31000
201125_15.30.05.055,-0.018844,-0.005153,1.005405,-0.001610,-0.021000,0.026380,-0.341583,-0.436805,-0.330720,188.46000,0.14000
201125_15.30.05.067,-0.019829,-0.007167,1.004400,0.015390,-0.003000,0.026380,-0.345352,-0.436769,-0.328744,188.25000,-0.21000
201125_15.30.05.078,-0.018812,-0.007183,1.002390,-0.001610,-0.021000,0.026380,-0.339873,-0.436820,-0.338969,188.74000,0.49000
201125_15.30.05.089,-0.019817,-0.008179,1.003393,0.015390,-0.038000,0.009380,-0.336104,-0.436856,-0.340944,188.06000,-0.68000
201125_15.30.05.100,-0.019825,-0.008173,1.004394,0.015390,-0.038000,0.026380,-0.337822,-0.425625,-0.328548,188.62000,0.56000
201125_15.30.05.111,-0.019837,-0.007161,1.005401,0.032390,-0.038000,0.009380,-0.343568,-0.423702,-0.328698,189.09000,0.47000
201125_15.30.05.123,-0.020809,-0.007180,1.001404,0.015390,-0.021000,0.009380,-0.341658,-0.423720,-0.328648,188.15000,-0.94000
201125_15.30.05.134,-0.018835,-0.007165,1.005393,0.015390,-0.021000,0.026380,-0.339749,-0.423737,-0.328599,188.84000,0.69000
201125_15.30.05.145,-0.020839,-0.007156,1.005409,0.015390,-0.038000,0.026380,-0.341967,-0.433062,-0.345244,188.05000,-0.79000
201125_15.30.05.156,-0.019826,-0.006166,1.003405,0.015390,-0.021000,0.026380,-0.345917,-0.434894,-0.351567,188.35000,0.30000
201125_15.30.05.167,-0.020816,-0.007174,1.002405,0.032390,-0.021000,0.009380,-0.348133,-0.423658,-0.359919,188.11000,-0.24000
201125_15.30.05.178,-0.019832,-0.008167,1.005395,0.015390,-0.021000,0.026380,-0.349818,-0.436727,-0.355816,188.32000,0.21000
201125_15.30.05.190,-0.019814,-0.007178,1.002398,0.015390,-0.003000,0.026380,-0.347468,-0.425534,-0.332947,188.87000,0.55000
201125_15.30.05.200,-0.018812,-0.007183,1.002390,0.015390,-0.021000,0.009380,-0.334284,-0.427527,-0.340897,188.60000,-0.27000
201125_15.30.05.211,-0.018835,-0.007165,1.005393,-0.001610,-0.021000,0.026380,-0.339816,-0.421868,-0.330674,187.93000,-0.67000
201125_15.30.05.223,-0.019822,-0.007172,1.003399,0.015390,-0.021000,0.026380,-0.339859,-0.433082,-0.336895,188.58000,0.65000
201125_15.30.05.234,-0.019829,-0.007167,1.004400,0.015390,-0.003000,0.009380,-0.343817,-0.423699,-0.339072,188.43000,-0.15000
201125_15.30.05.245,-0.019829,-0.007167,1.004400,0.015390,-0.003000,0.026380,-0.343585,-0.421832,-0.328699,188.43000,0.00000
201125_15.30.05.256,-0.020831,-0.007162,1.004407,-0.001610,-0.038000,0.009380,-0.343749,-0.425569,-0.336997,188.43000,0.00000
201125_15.30.05.267,-0.018839,-0.006159,1.005399,0.015390,-0.021000,0.009380,-0.341750,-0.434934,-0.336944,188.71000,0.28000
201125_15.30.05.278,-0.019829,-0.007167,1.004400,0.032390,-0.038000,0.009380,-0.343912,-0.429306,-0.345295,188.41000,-0.30000
201125_15.30.05.289,-0.017833,-0.007170,1.005386,0.032390,-0.038000,0.026380,-0.345718,-0.434896,-0.343268,188.91000,0.50000
201125_15.30.05.300,-0.019822,-0.007172,1.003399,0.015390,-0.021000,0.026380,-0.347646,-0.433009,-0.343319,187.90000,-1.01000
201125_15.30.05.311,-0.020839,-0.007156,1.005409,0.032390,-0.021000,0.009380,-0.340040,-0.434949,-0.345194,188.56000,0.66000
201125_15.30.05.323,-0.019814,-0.007178,1.002398,0.032390,-0.003000,0.044380,-0.345800,-0.436765,-0.347417,188.17000,-0.39000
201125_15.30.05.334,-0.019837,-0.007161,1.005401,0.032390,-0.038000,0.026380,-0.335972,-0.434988,-0.334720,188.89000,0.72000
201125_15.30.05.345,-0.019849,-0.006148,1.006408,0.032390,-0.021000,0.026380,-0.341651,-0.434935,-0.332795,188.05000,-0.84000
201125_15.30.05.356,-0.019829,-0.007167,1.004400,0.015390,-0.003000,0.044380,-0.344097,-0.425565,-0.351520,188.53000,0.48000
201125_15.30.05.367,-0.019825,-0.008173,1.004394,0.015390,-0.038000,0.026380,-0.351198,-0.434845,-0.333044,187.90000,-0.63000
201125_15.30.05.378,-0.018823,-0.008178,1.004386,0.032390,-0.021000,0.026380,-0.347443,-0.438619,-0.337093,188.41000,0.51000
201125_15.30.05.389,-0.019837,-0.007161,1.005401,0.032390,-0.038000,0.044380,-0.342021,-0.427454,-0.345246,188.60000,0.19000
201125_15.30.05.401,-0.019829,-0.007167,1.004400,-0.001610,-0.021000,0.026380,-0.341768,-0.433064,-0.336945,188.51000,-0.09000
201125_15.30.05.412,-0.018835,-0.007165,1.005393,0.015390,-0.021000,0.009380,-0.343596,-0.431178,-0.332846,188.76000,0.25000
201125_15.30.05.423,-0.018832,-0.006165,1.004398,0.032390,-0.003000,0.009380,-0.351550,-0.429234,-0.345494,188.35000,-0.41000
201125_15.30.05.435,-0.019837,-0.007161,1.005401,0.015390,-0.021000,-0.008620,-0.349210,-0.427387,-0.326772,188.32000,-0.03000
201125_15.30.05.446,-0.018827,-0.007171,1.004392,-0.001610,-0.021000,0.044380,-0.338113,-0.436837,-0.345143,188.34000,0.02000
201125_15.30.05.458,-0.020831,-0.007162,1.004407,0.032390,-0.021000,0.026380,-0.339994,-0.429342,-0.341046,188.33000,-0.01000
201125_15.30.05.469,-0.019837,-0.007161,1.005401,0.015390,-0.021000,0.026380,-0.338017,-0.431230,-0.338921,188.47000,0.14000
201125_15.30.05.480,-0.019825,-0.008173,1.004394,0.032390,-0.021000,0.044380,-0.347678,-0.434878,-0.345393,187.95000,-0.52000
201125_15.30.05.492,-0.019829,-0.007167,1.004400,0.032390,-0.021000,0.009380,-0.338053,-0.427491,-0.338922,188.34000,0.39000
201125_15.30.05.503,-0.018830,-0.008172,1.005388,0.015390,-0.021000,0.009380,-0.341871,-0.427456,-0.339021,188.15000,-0.19000
201125_15.30.05.515,-0.019837,-0.007161,1.005401,0.015390,-0.021000,0.009380,-0.338003,-0.427492,-0.336847,188.78000,0.63000
201125_15.30.05.526,-0.019834,-0.006160,1.004406,-0.001610,-0.021000,0.026380,-0.347649,-0.427402,-0.341245,189.09000,0.31000
201125_15.30.05.537,-0.019832,-0.008167,1.005395,0.032390,-0.038000,0.009380,-0.343831,-0.427437,-0.341146,188.31000,-0.78000
201125_15.30.05.549,-0.018820,-0.007177,1.003391,0.032390,-0.021000,0.026380,-0.342166,-0.433060,-0.353543,188.10000,-0.21000
201125_15.30.05.560,-0.020831,-0.007162,1.004407,0.015390,-0.003000,0.009380,-0.345758,-0.425550,-0.341196,188.14000,0.04000
201125_15.30.05.572,-0.018827,-0.007171,1.004392,-0.001610,-0.021000,0.026380,-0.345868,-0.434895,-0.349493,189.31000,1.17000
201125_15.30.05.583,-0.019837,-0.007161,1.005401,0.015390,-0.038000,0.026380,-0.336225,-0.429378,-0.343021,188.89000,-0.42000
201125_15.30.05.594,-0.019826,-0.006166,1.003405,0.032390,-0.038000,0.009380,-0.343649,-0.425570,-0.332847,187.95000,-0.94000
201125_15.30.05.605,-0.019829,-0.007167,1.004400,0.032390,-0.003000,-0.008620,-0.341889,-0.425586,-0.339022,189.12000,1.17000
201125_15.30.05.617,-0.018827,-0.007171,1.004392,0.032390,-0.021000,0.026380,-0.340250,-0.418125,-0.347273,188.25000,-0.87000
201125_15.30.05.629,-0.019846,-0.005148,1.005413,0.032390,-0.021000,0.009380,-0.341971,-0.427455,-0.343171,188.10000,-0.15000
201125_15.30.05.641,-0.020828,-0.006161,1.003412,0.032390,-0.021000,0.009380,-0.338170,-0.425621,-0.343072,188.18000,0.08000
201125_15.30.05.652,-0.017823,-0.009183,1.005374,0.015390,-0.003000,0.026380,-0.341981,-0.436800,-0.347318,188.52000,0.34000
201125_15.30.05.663,-0.018832,-0.006165,1.004398,0.015390,-0.021000,0.026380,-0.342117,-0.433061,-0.351468,188.14000,-0.38000
201125_15.30.05.675,-0.019837,-0.007161,1.005401,0.032390,-0.003000,0.026380,-0.338220,-0.425620,-0.345147,188.18000,0.04000
201125_15.30.05.686,-0.019826,-0.006166,1.003405,0.015390,-0.021000,0.044380,-0.344012,-0.429305,-0.349444,189.02000,0.84000
201125_15.30.05.698,-0.020834,-0.008162,1.005403,0.032390,-0.038000,0.026380,-0.340125,-0.431210,-0.347270,188.22000,-0.80000
201125_15.30.05.709,-0.018832,-0.006165,1.004398,0.032390,-0.003000,0.026380,-0.341971,-0.427455,-0.343171,188.33000,0.11000
201125_15.30.05.720,-0.019826,-0.006166,1.003405,0.015390,-0.021000,0.026380,-0.338017,-0.431230,-0.338921,188.14000,-0.19000
201125_15.30.05.731,-0.019822,-0.007172,1.003399,0.032390,-0.003000,0.009380,-0.339902,-0.418128,-0.332750,188.52000,0.38000
201125_15.30.05.743,-0.019825,-0.008173,1.004394,0.015390,-0.021000,0.026380,-0.339677,-0.431215,-0.328597,188.12000,-0.40000
201125_15.30.05.754,-0.018832,-0.006165,1.004398,0.032390,-0.021000,0.009380,-0.333981,-0.433137,-0.330521,188.82000,0.70000
201125_15.30.05.766,-0.018823,-0.008178,1.004386,0.032390,-0.038000,0.044380,-0.341651,-0.434935,-0.332795,188.70000,-0.12000
201125_15.30.05.777,-0.018839,-0.006159,1.005399,0.032390,-0.038000,0.026380,-0.331972,-0.433156,-0.326322,188.65000,-0.05000
201125_15.30.05.788,-0.018812,-0.007183,1.002390,0.032390,-0.021000,0.026380,-0.343582,-0.427440,-0.330772,189.26000,0.61000
201125_15.30.05.800,-0.019837,-0.007161,1.005401,0.032390,-0.021000,0.026380,-0.343863,-0.429306,-0.343220,188.47000,-0.79000
201125_15.30.05.811,-0.019807,-0.007184,1.001396,-0.001610,-0.003000,0.009380,-0.336004,-0.436857,-0.336794,188.44000,-0.03000
201125_15.30.05.822,-0.018835,-0.007165,1.005393,-0.001610,-0.003000,0.026380,-0.335954,-0.436857,-0.334720,187.94000,-0.50000
201125_15.30.05.834,-0.019814,-0.007178,1.002398,-0.001610,-0.021000,0.026380,-0.336076,-0.429379,-0.336797,187.87000,-0.07000
201125_15.30.05.845,-0.018824,-0.006171,1.003397,0.015390,-0.038000,0.009380,-0.341907,-0.423717,-0.339022,187.45000,-0.42000
201125_15.30.05.856,-0.019814,-0.007178,1.002398,0.032390,-0.021000,0.026380,-0.341654,-0.429327,-0.330722,188.56000,1.11000
201125_15.30.05.868,-0.020831,-0.007162,1.004407,0.050390,-0.038000,0.026380,-0.334362,-0.435002,-0.347119,188.45000,-0.11000
201125_15.30.05.879,-0.019834,-0.006160,1.004406,0.032390,-0.038000,0.026380,-0.338067,-0.431230,-0.340995,188.78000,0.33000
201125_15.30.05.891,-0.019814,-0.007178,1.002398,0.015390,-0.038000,0.026380,-0.339944,-0.429343,-0.338971,188.12000,-0.66000
201125_15.30.05.902,-0.019826,-0.006166,1.003405,0.032390,-0.038000,0.026380,-0.334276,-0.438742,-0.345043,188.35000,0.23000
201125_15.30.05.913,-0.018835,-0.007165,1.005393,0.032390,-0.038000,0.026380,-0.332221,-0.433154,-0.336696,188.13000,-0.22000
201125_15.30.05.924,-0.019829,-0.007167,1.004400,0.015390,-0.038000,0.009380,-0.328139,-0.429454,-0.324149,188.11000,-0.02000
201125_15.30.05.936,-0.019814,-0.007178,1.002398,0.015390,-0.021000,0.026380,-0.328488,-0.429450,-0.338672,188.33000,0.22000
201125_15.30.05.947,-0.019837,-0.007161,1.005401,0.050390,-0.038000,0.026380,-0.328591,-0.423841,-0.340749,188.43000,0.10000
201125_15.30.05.959,-0.019832,-0.008167,1.005395,0.032390,-0.021000,0.009380,-0.338348,-0.433096,-0.353444,188.59000,0.16000
201125_15.30.05.970,-0.019817,-0.008179,1.003393,0.032390,-0.021000,0.026380,-0.340328,-0.425601,-0.353495,188.46000,-0.13000
201125_15.30.05.981,-0.020831,-0.007162,1.004407,0.032390,-0.003000,0.009380,-0.341854,-0.429325,-0.339021,188.45000,-0.01000
201125_15.30.05.992,-0.018827,-0.007171,1.004392,0.032390,-0.021000,0.026380,-0.340406,-0.433076,-0.359718,187.56000,-0.89000
201125_15.30.06.003,-0.019814,-0.007178,1.002398,0.015390,-0.021000,0.044380,-0.340428,-0.425599,-0.357645,188.49000,0.93000
201125_15.30.06.015,-0.018835,-0.007165,1.005393,0.015390,-0.003000,0.044380,-0.338383,-0.429357,-0.353445,188.33000,-0.16000
201125_15.30.06.026,-0.018827,-0.007171,1.004392,0.015390,-0.038000,0.009380,-0.336410,-0.425637,-0.349246,188.21000,-0.12000
201125_15.30.06.037,-0.019829,-0.007167,1.004400,0.032390,-0.021000,0.009380,-0.338102,-0.427491,-0.340996,187.87000,-0.34000
201125_15.30.06.048,-0.019837,-0.007161,1.005401,-0.001610,-0.021000,0.009380,-0.344197,-0.425564,-0.355670,188.13000,0.26000
201125_15.30.06.060,-0.020807,-0.009186,1.002393,0.032390,0.015000,0.026380,-0.346085,-0.433023,-0.357792,187.94000,-0.19000
201125_15.30.06.071,-0.019834,-0.006160,1.004406,0.015390,-0.021000,0.009380,-0.342117,-0.433061,-0.351468,188.78000,0.84000
201125_15.30.06.083,-0.019841,-0.006154,1.005407,0.050390,-0.021000,0.009380,-0.340094,-0.429341,-0.345195,188.17000,-0.61000
201125_15.30.06.094,-0.019829,-0.007167,1.004400,0.050390,-0.003000,0.009380,-0.344183,-0.421826,-0.353596,188.56000,0.39000
201125_15.30.06.105,-0.019837,-0.007161,1.005401,0.015390,-0.038000,0.026380,-0.342025,-0.421847,-0.343172,188.66000,0.10000
201125_15.30.06.116,-0.019061,-0.006989,1.035427,0.015390,-0.021000,0.009380,-0.343731,-0.427438,-0.336996,188.49000,-0.17000
201125_15.30.06.128,-0.019829,-0.007167,1.004400,0.015390,-0.021000,0.009380,-0.344030,-0.427435,-0.349445,188.51000,0.02000
201125_15.30.06.139,-0.018827,-0.007171,1.004392,0.015390,-0.021000,0.009380,-0.338099,-0.433098,-0.343070,188.05000,-0.46000
201125_15.30.06.150,-0.018830,-0.008172,1.005388,0.015390,-0.021000,0.026380,-0.341917,-0.433063,-0.343169,188.11000,0.06000
201125_15.30.06.162,-0.019852,-0.007149,1.007403,0.015390,-0.021000,0.026380,-0.339841,-0.434951,-0.336895,188.62000,0.51000
201125_15.30.06.173,-0.019727,-0.008249,0.991379,0.068390,-0.021000,0.009380,-0.345761,-0.446111,-0.349490,188.13000,-0.49000
201125_15.30.06.185,-0.018933,-0.007089,1.018408,0.032390,-0.038000,0.044380,-0.344022,-0.438650,-0.353591,188.72000,0.59000
201125_15.30.06.196,-0.018820,-0.007177,1.003391,0.015390,-0.003000,0.026380,-0.343805,-0.440522,-0.345292,188.52000,-0.20000
201125_15.30.06.208,-0.019840,-0.008161,1.006396,0.032390,-0.038000,0.026380,-0.341768,-0.433064,-0.336945,188.39000,-0.13000
201125_15.30.06.219,-0.019807,-0.007184,1.001396,-0.001610,-0.003000,0.009380,-0.339727,-0.431214,-0.330671,188.29000,-0.10000
201125_15.30.06.230,-0.019835,-0.009168,1.006390,0.015390,-0.038000,0.044380,-0.332416,-0.438759,-0.347068,188.46000,0.17000
201125_15.30.06.242,-0.018835,-0.007165,1.005393,0.015390,-0.003000,0.026380,-0.338031,-0.434968,-0.340994,188.60000,0.14000
201125_15.30.06.253,-0.020831,-0.007162,1.004407,0.015390,-0.021000,0.009380,-0.339873,-0.436820,-0.338969,188.86000,0.26000
201125_15.30.06.265,-0.019837,-0.007161,1.005401,-0.001610,-0.021000,0.026380,-0.336239,-0.433116,-0.345095,188.73000,-0.13000
201125_15.30.06.276,-0.019822,-0.007172,1.003399,0.032390,-0.021000,0.026380,-0.336267,-0.440592,-0.349242,188.25000,-0.48000
201125_15.30.06.287,-0.019829,-0.007167,1.004400,0.032390,-0.038000,0.026380,-0.337917,-0.431231,-0.334771,188.24000,-0.01000
201125_15.30.06.298,-0.019817,-0.008179,1.003393,0.015390,-0.021000,0.026380,-0.336157,-0.431247,-0.340946,188.00000,-0.24000
201125_15.30.06.309,-0.019799,-0.007190,1.000395,0.015390,-0.003000,0.026380,-0.349722,-0.431120,-0.349593,188.76000,0.76000
201125_15.30.06.321,-0.018850,-0.007154,1.007396,0.015390,-0.055000,0.009380,-0.336122,-0.434986,-0.340945,188.69000,-0.07000
201125_15.30.06.333,-0.019822,-0.007172,1.003399,0.050390,-0.003000,0.026380,-0.338031,-0.434968,-0.340994,188.30000,-0.39000
201125_15.30.06.344,-0.019832,-0.008167,1.005395,0.032390,-0.021000,0.026380,-0.341864,-0.438671,-0.343168,188.44000,0.14000
201125_15.30.06.356,-0.018853,-0.008154,1.008391,0.032390,-0.021000,0.026380,-0.347496,-0.433011,-0.337094,188.28000,-0.16000
201125_15.30.06.367,-0.018812,-0.007183,1.002390,0.015390,-0.021000,0.044380,-0.345619,-0.434897,-0.339119,188.70000,0.42000
201125_15.30.06.379,-0.020831,-0.007162,1.004407,0.032390,-0.055000,0.009380,-0.341547,-0.440543,-0.330718,188.13000,-0.57000
201125_15.30.06.390,-0.018847,-0.006153,1.006400,0.015390,-0.021000,0.026380,-0.341814,-0.438671,-0.341093,188.17000,0.04000
201125_15.30.06.401,-0.018827,-0.007171,1.004392,0.032390,-0.021000,0.044380,-0.343674,-0.438654,-0.339068,188.50000,0.33000
201125_15.30.06.412,-0.019829,-0.007167,1.004400,-0.001610,-0.021000,0.009380,-0.347646,-0.433009,-0.343319,187.94000,-0.56000
201125_15.30.06.424,-0.020831,-0.007162,1.004407,0.015390,-0.003000,0.026380,-0.353274,-0.432957,-0.339318,188.89000,0.95000
201125_15.30.06.435,-0.019826,-0.006166,1.003405,0.032390,-0.003000,0.026380,-0.347446,-0.433011,-0.335019,188.30000,-0.59000
201125_15.30.06.446,-0.018830,-0.008172,1.005388,0.015390,-0.021000,0.026380,-0.356794,-0.432924,-0.326969,188.84000,0.54000
201125_15.30.06.457,-0.018839,-0.006159,1.005399,0.032390,-0.021000,0.044380,-0.349235,-0.440471,-0.332992,188.14000,-0.70000
201125_15.30.06.469,-0.019826,-0.006166,1.003405,0.015390,-0.003000,0.026380,-0.349089,-0.434865,-0.324695,188.52000,0.38000
201125_15.30.06.480,-0.018823,-0.008178,1.004386,0.015390,-0.003000,0.026380,-0.343524,-0.438656,-0.332844,188.54000,0.02000
201125_15.30.06.491,-0.020839,-0.007156,1.005409,0.032390,-0.003000,0.026380,-0.343379,-0.433050,-0.324546,188.91000,0.37000
201125_15.30.06.502,-0.018824,-0.006171,1.003397,0.032390,-0.021000,0.009380,-0.341864,-0.438671,-0.343168,187.86000,-1.05000
201125_15.30.06.514,-0.020839,-0.007156,1.005409,0.015390,-0.038000,0.009380,-0.345469,-0.434899,-0.332894,188.21000,0.35000
201125_15.30.06.525,-0.019826,-0.006166,1.003405,0.032390,-0.021000,0.026380,-0.353097,-0.425482,-0.328947,188.64000,0.43000
201125_15.30.06.536,-0.019822,-0.007172,1.003399,0.032390,-0.003000,0.026380,-0.347361,-0.436750,-0.332944,188.08000,-0.56000
201125_15.30.06.548,-0.018823,-0.008178,1.004386,0.050390,-0.021000,0.026380,-0.353047,-0.425482,-0.326872,188.49000,0.41000
201125_15.30.06.559,-0.020827,-0.008168,1.004402,0.015390,-0.038000,0.009380,-0.347347,-0.433012,-0.330870,187.94000,-0.55000
201125_15.30.06.571,-0.019829,-0.007167,1.004400,0.015390,-0.038000,0.009380,-0.337619,-0.431234,-0.322322,188.16000,0.22000
201125_15.30.06.583,-0.018835,-0.007165,1.005393,0.050390,-0.021000,0.026380,-0.347180,-0.434883,-0.324645,188.45000,0.29000
201125_15.30.06.594,-0.018824,-0.006171,1.003397,0.015390,-0.003000,0.009380,-0.343514,-0.429310,-0.328697,188.29000,-0.16000
201125_15.30.06.605,-0.018835,-0.007165,1.005393,0.032390,-0.021000,0.009380,-0.347379,-0.434881,-0.332944,189.17000,0.88000
201125_15.30.06.617,-0.019841,-0.006154,1.005407,0.032390,-0.003000,0.026380,-0.347564,-0.431141,-0.339170,189.20000,0.03000
201125_15.30.06.629,-0.019829,-0.007167,1.004400,0.015390,-0.003000,0.026380,-0.340008,-0.433081,-0.343119,188.13000,-1.07000
201125_15.30.06.640,-0.019829,-0.007167,1.004400,0.015390,-0.021000,0.009380,-0.345505,-0.431160,-0.332895,188.11000,-0.02000
201125_15.30.06.651,-0.019837,-0.007161,1.005401,0.032390,-0.003000,0.026380,-0.338053,-0.427491,-0.338922,188.05000,-0.06000
201125_15.30.06.663,-0.019834,-0.006160,1.004406,0.015390,-0.021000,0.044380,-0.332026,-0.427548,-0.326324,188.19000,0.14000
201125_15.30.06.674,-0.020831,-0.007162,1.004407,0.032390,-0.038000,0.026380,-0.336111,-0.425640,-0.336798,188.15000,-0.04000
201125_15.30.06.686,-0.019837,-0.007161,1.005401,0.032390,-0.038000,0.009380,-0.339709,-0.433084,-0.330671,188.37000,0.22000
201125_15.30.06.698,-0.018832,-0.006165,1.004398,0.015390,-0.003000,0.009380,-0.345608,-0.425552,-0.334972,188.18000,-0.19000
201125_15.30.06.709,-0.019822,-0.007172,1.003399,-0.019610,-0.021000,0.026380,-0.337971,-0.425623,-0.334773,188.41000,0.23000
201125_15.30.06.720,-0.018827,-0.007171,1.004392,0.032390,-0.021000,0.026380,-0.345704,-0.431158,-0.341195,187.61000,-0.80000
201125_15.30.06.732,-0.019837,-0.007161,1.005401,0.032390,-0.003000,0.009380,-0.339976,-0.431212,-0.341045,188.33000,0.72000
201125_15.30.06.743,-0.019822,-0.007172,1.003399,0.032390,-0.038000,0.009380,-0.347297,-0.433013,-0.328795,188.70000,0.37000
201125_15.30.06.755,-0.019834,-0.006160,1.004406,0.050390,-0.021000,0.009380,-0.341388,-0.431199,-0.320347,188.45000,-0.25000
201125_15.30.06.766,-0.020828,-0.006161,1.003412,0.032390,-0.003000,0.009380,-0.357065,-0.425444,-0.335271,188.23000,-0.22000
201125_15.30.06.777,-0.019825,-0.008173,1.004394,0.015390,-0.003000,0.026380,-0.355020,-0.429202,-0.331070,188.40000,0.17000
201125_15.30.06.789,-0.019822,-0.007172,1.003399,0.015390,-0.021000,0.009380,-0.349463,-0.421777,-0.335072,188.52000,0.12000
201125_15.30.06.800,-0.018835,-0.007165,1.005393,0.032390,-0.003000,0.009380,-0.343336,-0.421835,-0.318325,188.53000,0.01000
201125_15.30.06.811,-0.018824,-0.006171,1.003397,0.050390,-0.003000,0.044380,-0.345541,-0.427421,-0.332896,187.87000,-0.66000
201125_15.30.06.823,-0.018812,-0.007183,1.002390,0.015390,-0.038000,0.026380,-0.351070,-0.427370,-0.324747,188.14000,0.27000
201125_15.30.06.834,-0.019829,-0.007167,1.004400,0.050390,-0.038000,0.009380,-0.345352,-0.436769,-0.328744,188.55000,0.41000
201125_15.30.06.846,-0.017800,-0.006193,1.000386,-0.001610,-0.003000,0.009380,-0.347361,-0.436750,-0.332944,188.38000,-0.17000
201125_15.30.06.857,-0.018839,-0.006159,1.005399,0.015390,-0.021000,0.026380,-0.351166,-0.432977,-0.330970,189.04000,0.66000
201125_15.30.06.868,-0.019811,-0.006178,1.001402,0.015390,0.015000,0.026380,-0.347329,-0.434882,-0.330869,188.83000,-0.21000
201125_15.30.06.879,-0.018805,-0.007189,1.001389,0.032390,-0.003000,0.026380,-0.354767,-0.434812,-0.322769,188.93000,0.10000
201125_15.30.06.891,-0.018805,-0.007189,1.001389,0.015390,-0.021000,0.026380,-0.354704,-0.431075,-0.318621,188.18000,-0.75000
201125_15.30.06.902,-0.018820,-0.007177,1.003391,-0.001610,-0.021000,0.026380,-0.350984,-0.431109,-0.322671,188.49000,0.31000
201125_15.30.06.914,-0.019814,-0.007178,1.002398,-0.001610,-0.021000,0.009380,-0.353057,-0.434828,-0.331019,188.57000,0.08000
201125_15.30.06.925,-0.018835,-0.007165,1.005393,0.032390,-0.021000,-0.008620,-0.347098,-0.433015,-0.320496,188.02000,-0.55000
201125_15.30.06.937,-0.020843,-0.006150,1.005414,0.015390,-0.003000,0.009380,-0.349075,-0.431127,-0.322621,187.38000,-0.64000
201125_15.30.06.948,-0.019810,-0.008185,1.002392,0.015390,-0.003000,0.026380,-0.344989,-0.433035,-0.312147,188.40000,1.02000
201125_15.30.06.960,-0.020839,-0.007156,1.005409,-0.001610,-0.003000,0.009380,-0.343247,-0.431182,-0.318322,188.57000,0.17000
201125_15.30.06.972,-0.019837,-0.007161,1.005401,0.015390,-0.021000,0.009380,-0.348908,-0.432998,-0.316396,188.62000,0.05000
201125_15.30.06.983,-0.017825,-0.007176,1.004385,-0.001610,-0.003000,0.026380,-0.345501,-0.436768,-0.334969,188.57000,-0.05000
201125_15.30.06.994,-0.020824,-0.007168,1.003406,0.032390,-0.021000,0.026380,-0.343428,-0.433049,-0.326621,188.12000,-0.45000
201125_15.30.07.005,-0.018835,-0.007165,1.005393,0.015390,-0.003000,0.009380,-0.341356,-0.429330,-0.318273,188.90000,0.78000
201125_15.30.07.017,-0.020834,-0.008162,1.005403,0.015390,-0.003000,0.009380,-0.346917,-0.431148,-0.312197,188.18000,-0.72000
201125_15.30.07.028,-0.018832,-0.006165,1.004398,0.015390,-0.021000,0.026380,-0.341619,-0.433066,-0.330721,188.44000,0.26000
201125_15.30.07.039,-0.019829,-0.007167,1.004400,0.015390,-0.038000,0.026380,-0.347432,-0.429273,-0.332946,188.28000,-0.16000
201125_15.30.07.051,-0.018832,-0.006165,1.004398,0.015390,-0.021000,0.026380,-0.341708,-0.423719,-0.330723,187.78000,-0.50000
201125_15.30.07.062,-0.019829,-0.007167,1.004400,0.032390,-0.038000,0.009380,-0.345374,-0.429292,-0.326672,188.29000,0.51000
201125_15.30.07.074,-0.018823,-0.008178,1.004386,0.015390,-0.021000,0.009380,-0.352922,-0.438568,-0.326868,188.31000,0.02000
201125_15.30.07.085,-0.017833,-0.007170,1.005386,-0.001610,-0.003000,0.009380,-0.351194,-0.440453,-0.335117,188.85000,0.54000
201125_15.30.07.097,-0.019834,-0.006160,1.004406,0.015390,-0.003000,0.026380,-0.347116,-0.431145,-0.320497,188.60000,-0.25000
201125_15.30.07.108,-0.020831,-0.007162,1.004407,0.015390,-0.021000,0.026380,-0.347176,-0.440491,-0.326718,188.27000,-0.33000
201125_15.30.07.120,-0.018824,-0.006171,1.003397,0.032390,-0.021000,0.026380,-0.349175,-0.431126,-0.326771,187.88000,-0.39000
201125_15.30.07.131,-0.019825,-0.008173,1.004394,0.050390,-0.021000,0.026380,-0.345220,-0.434902,-0.322520,188.35000,0.47000
201125_15.30.07.143,-0.017837,-0.006164,1.005392,0.032390,-0.003000,0.026380,-0.343414,-0.429311,-0.324547,188.04000,-0.31000
201125_15.30.07.154,-0.018832,-0.006165,1.004398,0.015390,-0.021000,0.026380,-0.341437,-0.431199,-0.322422,188.94000,0.90000
201125_15.30.07.165,-0.020824,-0.007168,1.003406,0.015390,-0.021000,0.009380,-0.351130,-0.436715,-0.330968,188.23000,-0.71000
201125_15.30.07.177,-0.018812,-0.007183,1.002390,0.015390,-0.038000,0.026380,-0.349356,-0.432993,-0.335069,188.18000,-0.05000
201125_15.30.07.189,-0.017833,-0.007170,1.005386,0.032390,-0.021000,0.026380,-0.349081,-0.446080,-0.328841,188.42000,0.24000
201125_15.30.07.200,-0.020824,-0.007168,1.003406,0.015390,-0.038000,0.026380,-0.347275,-0.440490,-0.330868,188.05000,-0.37000
201125_15.30.07.212,-0.018838,-0.008166,1.006389,0.032390,-0.003000,0.026380,-0.348890,-0.434867,-0.316396,187.72000,-0.33000
201125_15.30.07.223,-0.018823,-0.008178,1.004386,-0.001610,-0.021000,0.009380,-0.351269,-0.427368,-0.333046,188.50000,0.78000
201125_15.30.07.235,-0.019834,-0.006160,1.004406,0.015390,-0.021000,0.026380,-0.347084,-0.429277,-0.318422,188.68000,0.18000
201125_15.30.07.246,-0.018832,-0.006165,1.004398,0.015390,-0.021000,0.026380,-0.345487,-0.433030,-0.332895,188.85000,0.17000
201125_15.30.07.257,-0.018827,-0.007171,1.004392,0.015390,-0.038000,0.026380,-0.353097,-0.425482,-0.328947,188.99000,0.14000
201125_15.30.07.269,-0.019834,-0.006160,1.004406,0.032390,-0.021000,0.026380,-0.346966,-0.431147,-0.314272,188.58000,-0.41000
201125_15.30.07.280,-0.019829,-0.007167,1.004400,0.032390,-0.003000,0.026380,-0.349196,-0.423649,-0.324698,188.21000,-0.37000
201125_15.30.07.291,-0.019825,-0.008173,1.004394,0.015390,-0.003000,0.026380,-0.349477,-0.425515,-0.337146,188.18000,-0.03000
201125_15.30.07.302,-0.019832,-0.008167,1.005395,0.015390,-0.021000,0.026380,-0.347532,-0.429272,-0.337095,188.52000,0.34000
201125_15.30.07.313,-0.018827,-0.007171,1.004392,0.015390,-0.021000,0.026380,-0.343500,-0.425572,-0.326623,188.33000,-0.19000
201125_15.30.07.325,-0.019829,-0.007167,1.004400,0.015390,-0.021000,0.026380,-0.343446,-0.431180,-0.326621,188.62000,0.29000
201125_15.30.07.336,-0.019837,-0.007161,1.005401,0.015390,-0.003000,0.009380,-0.347251,-0.427406,-0.324647,188.55000,-0.07000
201125_15.30.07.348,-0.019834,-0.006160,1.004406,-0.001610,-0.003000,0.009380,-0.351120,-0.427369,-0.326822,188.69000,0.14000
201125_15.30.07.359,-0.019829,-0.007167,1.004400,0.015390,-0.021000,0.009380,-0.351237,-0.425499,-0.330972,188.47000,-0.22000
201125_15.30.07.370,-0.019829,-0.007167,1.004400,0.015390,-0.003000,0.026380,-0.355052,-0.431071,-0.333144,188.69000,0.22000
201125_15.30.07.382,-0.018835,-0.007165,1.005393,0.032390,-0.003000,0.026380,-0.343496,-0.431179,-0.328696,188.59000,-0.10000
201125_15.30.07.393,-0.019822,-0.007172,1.003399,0.015390,-0.038000,0.026380,-0.333949,-0.431268,-0.328447,188.28000,-0.31000
201125_15.30.07.405,-0.019822,-0.007172,1.003399,0.032390,-0.038000,0.009380,-0.349274,-0.431125,-0.330920,188.12000,-0.16000
201125_15.30.07.416,-0.019837,-0.007161,1.005401,-0.001610,-0.003000,0.009380,-0.341772,-0.427457,-0.334872,187.61000,-0.51000
201125_15.30.07.427,-0.019817,-0.008179,1.003393,-0.001610,-0.038000,0.009380,-0.351048,-0.434847,-0.326819,188.12000,0.51000
201125_15.30.07.438,-0.018830,-0.008172,1.005388,0.015390,-0.003000,-0.008620,-0.349143,-0.429257,-0.324696,188.42000,0.30000
201125_15.30.07.450,-0.018835,-0.007165,1.005393,0.015390,-0.021000,0.044380,-0.339937,-0.440558,-0.343117,188.76000,0.34000
201125_15.30.07.461,-0.018832,-0.006165,1.004398,0.015390,-0.021000,0.009380,-0.343777,-0.433045,-0.341144,188.30000,-0.46000
201125_15.30.07.473,-0.018835,-0.007165,1.005393,-0.001610,-0.003000,0.009380,-0.343610,-0.434916,-0.334919,188.40000,0.10000
201125_15.30.07.484,-0.020839,-0.007156,1.005409,0.015390,-0.021000,0.026380,-0.337868,-0.431232,-0.332696,187.95000,-0.45000
201125_15.30.07.496,-0.019829,-0.007167,1.004400,0.032390,-0.021000,0.026380,-0.338099,-0.433098,-0.343070,187.87000,-0.08000
201125_15.30.07.507,-0.020831,-0.007162,1.004407,0.015390,-0.021000,0.009380,-0.336012,-0.425641,-0.332648,188.98000,1.11000
201125_15.30.07.518,-0.020831,-0.007162,1.004407,0.032390,-0.003000,0.009380,-0.347632,-0.429271,-0.341245,188.09000,-0.89000
201125_15.30.07.529,-0.018830,-0.008172,1.005388,0.032390,-0.003000,0.026380,-0.341754,-0.429326,-0.334871,188.63000,0.54000
201125_15.30.07.540,-0.018824,-0.006171,1.003397,0.032390,-0.021000,-0.008620,-0.359277,-0.419816,-0.345696,188.54000,-0.09000
201125_15.30.07.552,-0.018832,-0.006165,1.004398,0.032390,-0.003000,0.026380,-0.345886,-0.433025,-0.349493,187.67000,-0.87000
201125_15.30.07.563,-0.018815,-0.008183,1.003385,0.032390,-0.021000,0.009380,-0.347685,-0.423663,-0.341246,187.86000,0.19000
201125_15.30.07.575,-0.019829,-0.007167,1.004400,0.015390,-0.021000,0.026380,-0.347351,-0.427405,-0.328797,188.78000,0.92000
201125_15.30.07.586,-0.019825,-0.008173,1.004394,0.015390,-0.021000,0.026380,-0.345672,-0.429289,-0.339120,187.90000,-0.88000
201125_15.30.07.597,-0.019817,-0.008179,1.003393,0.032390,-0.021000,0.026380,-0.343564,-0.429309,-0.330771,188.60000,0.70000
201125_15.30.07.608,-0.018835,-0.007165,1.005393,0.032390,-0.038000,0.026380,-0.339432,-0.425610,-0.316149,188.67000,0.07000
201125_15.30.07.620,-0.019829,-0.007167,1.004400,0.015390,-0.038000,0.009380,-0.339695,-0.429345,-0.328597,188.60000,-0.07000
201125_15.30.07.631,-0.018839,-0.006159,1.005399,0.015390,-0.003000,0.026380,-0.337832,-0.434970,-0.332695,188.12000,-0.48000
201125_15.30.07.642,-0.020819,-0.008174,1.003400,0.015390,-0.003000,0.026380,-0.341822,-0.427456,-0.336946,188.07000,-0.05000
201125_15.30.07.653,-0.019814,-0.007178,1.002398,0.050390,-0.021000,0.026380,-0.347183,-0.429276,-0.322572,188.50000,0.43000
201125_15.30.07.664,-0.020821,-0.006167,1.002411,0.050390,-0.021000,0.009380,-0.341637,-0.431196,-0.330721,188.10000,-0.40000
201125_15.30.07.676,-0.019807,-0.007184,1.001396,0.032390,-0.038000,-0.008620,-0.351066,-0.432978,-0.326820,188.75000,0.65000
201125_15.30.07.687,-0.018835,-0.007165,1.005393,0.015390,-0.003000,0.009380,-0.341903,-0.429324,-0.341095,188.18000,-0.57000
201125_15.30.07.699,-0.018809,-0.006182,1.001395,-0.001610,-0.038000,0.009380,-0.341939,-0.425586,-0.341097,188.47000,0.29000
201125_15.30.07.710,-0.019834,-0.006160,1.004406,0.015390,-0.021000,0.044380,-0.349505,-0.432992,-0.341294,188.66000,0.19000
201125_15.30.07.721,-0.020824,-0.007168,1.003406,0.015390,-0.021000,0.044380,-0.341722,-0.427457,-0.332797,187.73000,-0.93000
201125_15.30.07.733,-0.020827,-0.008168,1.004402,0.015390,-0.003000,0.044380,-0.351454,-0.423628,-0.339271,187.92000,0.19000
201125_15.30.07.744,-0.018824,-0.006171,1.003397,-0.001610,0.015000,0.009380,-0.353164,-0.423612,-0.331022,188.13000,0.21000
201125_15.30.07.755,-0.019822,-0.007172,1.003399,0.032390,-0.003000,0.009380,-0.345818,-0.434895,-0.347418,187.92000,-0.21000
201125_15.30.07.767,-0.019817,-0.008179,1.003393,0.015390,-0.038000,0.026380,-0.355223,-0.423592,-0.337296,188.23000,0.31000
201125_15.30.07.778,-0.018823,-0.008178,1.004386,0.015390,-0.003000,0.009380,-0.349473,-0.431123,-0.339219,188.44000,0.21000
201125_15.30.07.789,-0.019837,-0.007161,1.005401,0.015390,-0.021000,0.026380,-0.343709,-0.434915,-0.339069,188.17000,-0.27000
201125_15.30.07.800,-0.019837,-0.007161,1.005401,0.015390,-0.021000,0.009380,-0.339674,-0.436822,-0.330670,188.58000,0.41000
201125_15.30.07.812,-0.019826,-0.006166,1.003405,0.015390,-0.003000,0.009380,-0.345473,-0.429291,-0.330821,188.92000,0.34000
201125_15.30.07.823,-0.018827,-0.007171,1.004392,0.032390,-0.003000,0.009380,-0.339845,-0.429344,-0.334821,188.70000,-0.22000
201125_15.30.07.834,-0.018815,-0.008183,1.003385,0.015390,-0.021000,0.026380,-0.334049,-0.431267,-0.332597,187.83000,-0.87000
201125_15.30.07.846,-0.020836,-0.006156,1.004413,-0.001610,-0.021000,0.009380,-0.340261,-0.427470,-0.351420,188.46000,0.63000
201125_15.30.07.857,-0.019826,-0.006166,1.003405,0.015390,-0.003000,0.026380,-0.341839,-0.425587,-0.336947,187.92000,-0.54000
201125_15.30.07.868,-0.019829,-0.007167,1.004400,0.032390,-0.038000,0.026380,-0.347482,-0.429272,-0.335021,187.90000,-0.02000
201125_15.30.07.879,-0.019822,-0.007172,1.003399,0.050390,-0.021000,0.009380,-0.343144,-0.436790,-0.316246,188.15000,0.25000
201125_15.30.07.891,-0.019837,-0.007161,1.005401,0.032390,-0.021000,0.026380,-0.345302,-0.436770,-0.326670,188.93000,0.78000
201125_15.30.07.902,-0.017818,-0.007182,1.003384,0.015390,-0.003000,0.009380,-0.335556,-0.436861,-0.318121,188.53000,-0.40000
201125_15.30.07.913,-0.018812,-0.007183,1.002390,0.032390,-0.021000,0.009380,-0.347062,-0.436754,-0.320495,188.52000,-0.01000
201125_15.30.07.925,-0.019844,-0.007155,1.006402,0.050390,-0.038000,0.026380,-0.343709,-0.434915,-0.339069,188.31000,-0.21000
201125_15.30.07.936,-0.017818,-0.007182,1.003384,0.032390,-0.021000,0.026380,-0.345356,-0.431162,-0.326671,188.26000,-0.05000
201125_15.30.07.947,-0.019832,-0.008167,1.005395,0.032390,-0.021000,0.026380,-0.347212,-0.436752,-0.326719,188.70000,0.44000
201125_15.30.07.959,-0.020828,-0.006161,1.003412,0.032390,-0.003000,0.009380,-0.345121,-0.434903,-0.318371,188.47000,-0.23000
201125_15.30.07.970,-0.019832,-0.008167,1.005395,0.015390,-0.021000,0.009380,-0.343222,-0.444266,-0.322468,188.45000,-0.02000
201125_15.30.07.982,-0.019834,-0.006160,1.004406,0.015390,-0.021000,0.009380,-0.339859,-0.433082,-0.336895,188.22000,-0.23000
201125_15.30.07.993,-0.018835,-0.007165,1.005393,0.015390,-0.021000,0.009380,-0.343261,-0.434920,-0.320396,188.82000,0.60000
201125_15.30.08.005,-0.020816,-0.007174,1.002405,0.015390,-0.021000,-0.008620,-0.348840,-0.434868,-0.314321,188.52000,-0.30000
201125_15.30.08.016,-0.019829,-0.007167,1.004400,-0.001610,-0.021000,0.026380,-0.345388,-0.433031,-0.328745,187.80000,-0.72000
201125_15.30.08.027,-0.019837,-0.007161,1.005401,0.015390,-0.021000,0.009380,-0.339891,-0.434951,-0.338969,188.33000,0.53000
201125_15.30.08.038,-0.018827,-0.007171,1.004392,0.015390,-0.021000,-0.008620,-0.343727,-0.433046,-0.339069,188.60000,0.27000
201125_15.30.08.049,-0.018827,-0.007171,1.004392,0.032390,-0.003000,0.026380,-0.348876,-0.431129,-0.314322,188.60000,0.00000
201125_15.30.08.061,-0.019829,-0.007167,1.004400,0.050390,-0.021000,0.026380,-0.354700,-0.436682,-0.320694,188.16000,-0.44000
201125_15.30.08.072,-0.018835,-0.007165,1.005393,0.015390,-0.038000,0.009380,-0.354867,-0.434811,-0.326919,187.88000,-0.28000
201125_15.30.08.083,-0.019829,-0.007167,1.004400,0.032390,-0.021000,0.009380,-0.346945,-0.438624,-0.316345,188.55000,0.67000
201125_15.30.08.095,-0.019814,-0.007178,1.002398,0.032390,-0.021000,0.026380,-0.343375,-0.438657,-0.326619,187.71000,-0.84000
201125_15.30.08.106,-0.019837,-0.007161,1.005401,0.032390,-0.038000,0.026380,-0.341366,-0.438676,-0.322420,188.03000,0.32000
201125_15.30.08.117,-0.019837,-0.007161,1.005401,0.032390,-0.021000,0.009380,-0.341469,-0.433067,-0.324496,188.11000,0.08000
201125_15.30.08.129,-0.019837,-0.007161,1.005401,0.015390,-0.021000,0.026380,-0.345135,-0.438641,-0.320445,188.32000,0.21000
201125_15.30.08.140,-0.019837,-0.007161,1.005401,0.015390,-0.003000,0.026380,-0.341188,-0.431201,-0.312048,188.30000,-0.02000
201125_15.30.08.152,-0.019826,-0.006166,1.003405,0.032390,-0.021000,0.009380,-0.347116,-0.431145,-0.320497,187.89000,-0.41000
201125_15.30.08.163,-0.018820,-0.007177,1.003391,0.032390,-0.021000,0.026380,-0.343681,-0.427439,-0.334921,187.86000,-0.03000
201125_15.30.08.174,-0.019837,-0.007161,1.005401,0.032390,-0.021000,0.026380,-0.339425,-0.436825,-0.320296,188.65000,0.79000
201125_15.30.08.186,-0.019817,-0.008179,1.003393,0.015390,-0.021000,0.009380,-0.343492,-0.436787,-0.330769,188.14000,-0.51000
201125_15.30.08.197,-0.018823,-0.008178,1.004386,0.050390,-0.021000,0.009380,-0.347197,-0.433014,-0.324646,188.22000,0.08000
201125_15.30.08.208,-0.020834,-0.008162,1.005403,0.032390,-0.038000,0.026380,-0.337868,-0.431232,-0.332696,188.07000,-0.15000
201125_15.30.08.220,-0.018824,-0.006171,1.003397,-0.001610,-0.021000,0.009380,-0.345469,-0.434899,-0.332894,188.74000,0.67000
201125_15.30.08.231,-0.019825,-0.008173,1.004394,0.015390,-0.021000,0.009380,-0.339193,-0.434958,-0.309922,188.16000,-0.58000
201125_15.30.08.243,-0.020824,-0.007168,1.003406,0.032390,-0.038000,0.009380,-0.345067,-0.440511,-0.318369,187.85000,-0.31000
201125_15.30.08.254,-0.020834,-0.008162,1.005403,0.032390,-0.021000,0.026380,-0.337714,-0.436841,-0.328545,189.22000,1.37000
201125_15.30.08.266,-0.019822,-0.007172,1.003399,0.015390,-0.003000,0.009380,-0.345370,-0.434900,-0.328745,188.00000,-1.22000
201125_15.30.08.278,-0.018835,-0.007165,1.005393,0.032390,0.015000,0.026380,-0.339628,-0.431215,-0.326522,188.57000,0.57000
201125_15.30.08.289,-0.019837,-0.007161,1.005401,-0.001610,-0.038000,0.026380,-0.339379,-0.431218,-0.316148,188.49000,-0.08000
201125_15.30.08.300,-0.018835,-0.007165,1.005393,-0.001610,-0.021000,0.026380,-0.347148,-0.433014,-0.322571,187.98000,-0.51000
201125_15.30.08.311,-0.018835,-0.007165,1.005393,0.015390,-0.003000,0.026380,-0.341324,-0.427461,-0.316199,188.51000,0.53000
201125_15.30.08.323,-0.019829,-0.007167,1.004400,0.032390,-0.003000,0.009380,-0.349007,-0.432997,-0.320546,188.47000,-0.04000
201125_15.30.08.334,-0.019829,-0.007167,1.004400,0.032390,-0.021000,0.009380,-0.343478,-0.433048,-0.328696,188.62000,0.15000
201125_15.30.08.345,-0.019829,-0.007167,1.004400,0.015390,-0.021000,0.026380,-0.341370,-0.433068,-0.320347,187.79000,-0.83000
201125_15.30.08.356,-0.020834,-0.008162,1.005403,-0.001610,-0.021000,0.009380,-0.339663,-0.427477,-0.326523,188.35000,0.56000
201125_15.30.08.368,-0.019826,-0.006166,1.003405,0.032390,-0.003000,0.009380,-0.351233,-0.431107,-0.333045,187.94000,-0.41000
201125_15.30.08.380,-0.019837,-0.007161,1.005401,0.050390,-0.021000,0.009380,-0.341686,-0.431196,-0.332796,188.40000,0.46000
201125_15.30.08.391,-0.019841,-0.006154,1.005407,0.032390,-0.055000,0.026380,-0.339727,-0.431214,-0.330671,188.37000,-0.03000
201125_15.30.08.403,-0.018827,-0.007171,1.004392,0.032390,-0.038000,0.026380,-0.339876,-0.431213,-0.336896,188.53000,0.16000
201125_15.30.08.414,-0.019829,-0.007167,1.004400,0.015390,-0.038000,0.009380,-0.337928,-0.440577,-0.338918,188.73000,0.20000
201125_15.30.08.425,-0.018815,-0.008183,1.003385,0.015390,-0.021000,0.044380,-0.328349,-0.438797,-0.336595,188.78000,0.05000
201125_15.30.08.437,-0.019829,-0.007167,1.004400,0.015390,-0.003000,0.009380,-0.333935,-0.427530,-0.326373,188.07000,-0.71000
201125_15.30.08.448,-0.020836,-0.006156,1.004413,0.015390,-0.003000,0.009380,-0.330190,-0.440649,-0.334569,188.60000,0.53000
201125_15.30.08.459,-0.018830,-0.008172,1.005388,-0.001610,-0.021000,0.009380,-0.339773,-0.436821,-0.334819,188.46000,-0.14000
201125_15.30.08.471,-0.019817,-0.008179,1.003393,0.015390,-0.021000,-0.008620,-0.343564,-0.429309,-0.330771,188.06000,-0.40000
201125_15.30.08.482,-0.019829,-0.007167,1.004400,-0.001610,-0.003000,0.009380,-0.341686,-0.431196,-0.332796,188.64000,0.58000
201125_15.30.08.494,-0.018827,-0.007171,1.004392,0.015390,-0.003000,0.009380,-0.333999,-0.431268,-0.330522,187.91000,-0.73000
201125_15.30.08.505,-0.019837,-0.007161,1.005401,0.015390,-0.038000,0.009380,-0.340012,-0.427473,-0.341046,188.58000,0.67000
201125_15.30.08.516,-0.019817,-0.008179,1.003393,0.032390,-0.038000,0.026380,-0.343428,-0.433049,-0.326621,188.93000,0.35000
201125_15.30.08.527,-0.019829,-0.007167,1.004400,0.032390,-0.021000,0.026380,-0.337505,-0.427497,-0.316099,188.39000,-0.54000
201125_15.30.08.538,-0.019829,-0.007167,1.004400,0.050390,-0.003000,0.044380,-0.336030,-0.423772,-0.332649,188.05000,-0.34000
201125_15.30.08.549,-0.019829,-0.007167,1.004400,0.032390,-0.021000,0.026380,-0.337853,-0.427493,-0.330623,188.35000,0.30000
201125_15.30.08.560,-0.018827,-0.007171,1.004392,0.015390,-0.021000,0.026380,-0.339610,-0.433085,-0.326521,188.13000,-0.22000
201125_15.30.08.572,-0.019829,-0.007167,1.004400,0.032390,-0.038000,0.009380,-0.339830,-0.425606,-0.332748,187.98000,-0.15000
201125_15.30.08.583,-0.018827,-0.007171,1.004392,0.015390,-0.003000,0.009380,-0.345409,-0.425554,-0.326673,188.11000,0.13000
201125_15.30.08.595,-0.018827,-0.007171,1.004392,0.050390,-0.003000,0.009380,-0.335699,-0.421906,-0.318126,187.92000,-0.19000
201125_15.30.08.606,-0.019825,-0.008173,1.004394,0.015390,-0.021000,0.009380,-0.343450,-0.425572,-0.324548,188.70000,0.78000
201125_15.30.08.617,-0.019829,-0.007167,1.004400,0.015390,-0.038000,0.009380,-0.337871,-0.425624,-0.330623,188.27000,-0.43000
201125_15.30.08.629,-0.019829,-0.007167,1.004400,0.015390,-0.021000,0.009380,-0.339695,-0.429345,-0.328597,188.24000,-0.03000
201125_15.30.08.640,-0.019829,-0.007167,1.004400,0.032390,-0.003000,0.044380,-0.341637,-0.431196,-0.330721,187.88000,-0.36000
201125_15.30.08.651,-0.018827,-0.007171,1.004392,0.032390,-0.021000,0.009380,-0.347397,-0.433012,-0.332945,188.31000,0.43000
201125_15.30.08.663,-0.020831,-0.007162,1.004407,0.032390,-0.038000,0.026380,-0.343496,-0.431179,-0.328696,187.98000,-0.33000
201125_15.30.08.675,-0.018827,-0.007171,1.004392,0.032390,-0.038000,0.009380,-0.341085,-0.436810,-0.309972,188.66000,0.68000
201125_15.30.08.686,-0.020827,-0.008168,1.004402,0.015390,-0.003000,0.009380,-0.349057,-0.432996,-0.322621,188.05000,-0.61000
201125_15.30.08.697,-0.018827,-0.007171,1.004392,0.015390,-0.038000,0.026380,-0.335574,-0.434992,-0.318122,188.65000,0.60000
201125_15.30.08.708,-0.019834,-0.006160,1.004406,0.015390,-0.021000,0.026380,-0.335755,-0.436859,-0.326421,188.53000,-0.12000
201125_15.30.08.719,-0.019844,-0.007155,1.006402,0.015390,-0.021000,0.009380,-0.337714,-0.436841,-0.328545,188.64000,0.11000
201125_15.30.08.730,-0.020821,-0.006167,1.002411,0.015390,-0.003000,0.009380,-0.341103,-0.434940,-0.309972,188.54000,-0.10000
201125_15.30.08.742,-0.018830,-0.008172,1.005388,0.015390,-0.021000,0.026380,-0.347116,-0.431145,-0.320497,188.56000,0.02000
201125_15.30.08.754,-0.019829,-0.007167,1.004400,-0.001610,-0.021000,0.009380,-0.341416,-0.438675,-0.324495,188.62000,0.06000
201125_15.30.08.765,-0.019837,-0.007161,1.005401,0.015390,-0.021000,0.009380,-0.341370,-0.433068,-0.320347,188.40000,-0.22000
201125_15.30.08.776,-0.018827,-0.007171,1.004392,0.015390,-0.021000,0.026380,-0.333896,-0.436876,-0.328446,188.40000,0.00000
201125_15.30.08.788,-0.019834,-0.006160,1.004406,0.015390,-0.003000,0.026380,-0.341434,-0.436806,-0.324495,188.34000,-0.06000
201125_15.30.08.799,-0.020824,-0.007168,1.003406,0.015390,-0.003000,0.026380,-0.339560,-0.433085,-0.324446,188.17000,-0.17000
201125_15.30.08.810,-0.018820,-0.007177,1.003391,0.015390,-0.038000,0.026380,-0.343560,-0.434917,-0.332845,187.78000,-0.39000
201125_15.30.08.821,-0.019837,-0.007161,1.005401,0.015390,-0.021000,0.026380,-0.343482,-0.427441,-0.326622,188.36000,0.58000
201125_15.30.08.832,-0.019831,-0.005160,1.003410,0.032390,-0.003000,0.009380,-0.339934,-0.419997,-0.334824,188.14000,-0.22000
201125_15.30.08.844,-0.018815,-0.008183,1.003385,0.032390,-0.003000,0.009380,-0.347166,-0.431145,-0.322571,188.05000,-0.09000
201125_15.30.08.855,-0.019837,-0.007161,1.005401,0.032390,-0.021000,0.026380,-0.351301,-0.429237,-0.335120,188.38000,0.33000
201125_15.30.08.866,-0.018827,-0.007171,1.004392,0.015390,-0.038000,0.026380,-0.349175,-0.431126,-0.326771,188.96000,0.58000
201125_15.30.08.877,-0.019825,-0.008173,1.004394,0.032390,-0.021000,0.009380,-0.339179,-0.431220,-0.307849,188.40000,-0.56000
201125_15.30.08.888,-0.019829,-0.007167,1.004400,0.015390,-0.021000,0.026380,-0.343116,-0.429314,-0.312098,187.98000,-0.42000
201125_15.30.08.899,-0.019829,-0.007167,1.004400,-0.001610,-0.003000,0.026380,-0.347062,-0.436754,-0.320495,188.30000,0.32000
201125_15.30.08.910,-0.019837,-0.007161,1.005401,0.032390,-0.021000,0.026380,-0.337832,-0.434970,-0.332695,188.55000,0.25000
201125_15.30.08.922,-0.019822,-0.007172,1.003399,0.015390,-0.003000,0.009380,-0.347496,-0.433011,-0.337094,188.29000,-0.26000
201125_15.30.08.933,-0.019832,-0.008167,1.005395,0.015390,-0.021000,0.009380,-0.341672,-0.427458,-0.330722,188.03000,-0.26000
201125_15.30.08.945,-0.019829,-0.007167,1.004400,-0.001610,-0.021000,0.009380,-0.339894,-0.429343,-0.336896,187.86000,-0.17000
201125_15.30.08.957,-0.018827,-0.007171,1.004392,-0.001610,-0.003000,0.009380,-0.350984,-0.431109,-0.322671,188.18000,0.32000
201125_15.30.08.968,-0.020824,-0.007168,1.003406,0.032390,-0.021000,-0.008620,-0.345939,-0.427417,-0.349495,188.67000,0.49000
201125_15.30.08.979,-0.019837,-0.007161,1.005401,0.032390,-0.021000,0.026380,-0.347582,-0.429271,-0.339170,188.23000,-0.44000
201125_15.30.08.991,-0.018832,-0.006165,1.004398,0.015390,-0.003000,-0.008620,-0.354693,-0.421729,-0.314474,187.83000,-0.40000
201125_15.30.09.002,-0.018832,-0.006165,1.004398,-0.001610,-0.021000,0.009380,-0.343428,-0.433049,-0.326621,188.59000,0.76000
201125_15.30.09.013,-0.019822,-0.007172,1.003399,-0.001610,-0.021000,-0.008620,-0.343116,-0.429314,-0.312098,188.18000,-0.41000
201125_15.30.09.024,-0.019777,-0.007208,0.997392,0.015390,-0.038000,0.009380,-0.346799,-0.433018,-0.308047,187.61000,-0.57000
201125_15.30.09.036,-0.019905,-0.007108,1.014411,0.032390,-0.090000,-0.008620,-0.339147,-0.429351,-0.305774,188.20000,0.59000
201125_15.30.09.047,-0.019661,-0.006295,0.981380,0.015390,0.067000,0.026380,-0.345039,-0.433034,-0.314222,187.90000,-0.30000
201125_15.30.09.058,-0.018857,-0.007148,1.008397,0.015390,0.032000,-0.008620,-0.351056,-0.423632,-0.322673,188.40000,0.50000
201125_15.30.09.069,-0.019784,-0.007202,0.998393,-0.001610,-0.003000,0.026380,-0.341555,-0.429328,-0.326572,189.39000,0.99000
201125_15.30.09.081,-0.019778,-0.005201,0.996403,0.015390,-0.003000,0.026380,-0.347255,-0.421798,-0.322574,187.60000,-1.79000
201125_15.30.09.092,-0.017875,-0.006134,1.010397,0.015390,0.015000,0.026380,-0.352929,-0.427353,-0.322722,187.87000,0.27000
201125_15.30.09.103,-0.021657,-0.006292,0.980394,0.032390,-0.073000,0.009380,-0.349252,-0.438602,-0.332993,188.01000,0.14000
201125_15.30.09.114,-0.020081,-0.007973,1.038432,0.068390,-0.108000,0.009380,-0.341348,-0.440545,-0.322419,188.13000,0.12000
201125_15.30.09.126,-0.020563,-0.008374,0.969362,0.015390,0.049000,0.009380,-0.343279,-0.433051,-0.320396,187.78000,-0.35000
201125_15.30.09.137,-0.018910,-0.007107,1.015405,0.015390,0.015000,0.009380,-0.341587,-0.431197,-0.328646,188.16000,0.38000
201125_15.30.09.148,-0.018772,-0.006212,0.996389,0.015390,0.015000,0.026380,-0.339823,-0.436821,-0.336894,188.27000,0.11000
201125_15.30.09.160,-0.020849,-0.008151,1.007405,0.032390,-0.038000,0.009380,-0.341434,-0.436806,-0.324495,188.41000,0.14000
201125_15.30.09.171,-0.017807,-0.006187,1.001387,0.015390,-0.038000,0.026380,-0.352744,-0.431093,-0.316496,188.28000,-0.13000
201125_15.30.09.182,-0.020846,-0.007150,1.006410,0.015390,0.015000,0.009380,-0.354636,-0.432944,-0.316546,187.65000,-0.63000
201125_15.30.09.193,-0.018784,-0.005200,0.997396,0.015390,-0.021000,0.026380,-0.353292,-0.431087,-0.339319,188.36000,0.71000
201125_15.30.09.205,-0.019987,-0.007043,1.025424,0.050390,-0.073000,0.044380,-0.347337,-0.423666,-0.326723,188.33000,-0.03000
201125_15.30.09.216,-0.019668,-0.006289,0.982381,0.050390,0.015000,0.026380,-0.353342,-0.431087,-0.341394,188.06000,-0.27000
201125_15.30.09.227,-0.020907,-0.007103,1.014419,0.050390,-0.108000,0.026380,-0.349595,-0.423645,-0.341296,188.02000,-0.04000
201125_15.30.09.238,-0.018787,-0.006200,0.998391,0.015390,0.015000,0.009380,-0.341993,-0.419978,-0.341098,189.09000,1.07000
201125_15.30.09.250,-0.019852,-0.007149,1.007403,0.032390,-0.055000,0.009380,-0.347422,-0.419927,-0.328799,188.21000,-0.88000
201125_15.30.09.261,-0.019862,-0.008144,1.009400,0.015390,-0.038000,0.009380,-0.339767,-0.421868,-0.328599,188.01000,-0.20000
201125_15.30.09.272,-0.019804,-0.006184,1.000401,0.015390,0.015000,0.026380,-0.343671,-0.418093,-0.330775,188.45000,0.44000
201125_15.30.09.284,-0.018955,-0.007071,1.021412,0.015390,-0.055000,0.009380,-0.345893,-0.421810,-0.345347,188.40000,-0.05000
201125_15.30.09.295,-0.019736,-0.006236,0.991391,0.015390,0.015000,0.009380,-0.341744,-0.419980,-0.330724,187.92000,-0.48000
201125_15.30.09.307,-0.019905,-0.007108,1.014411,0.032390,-0.055000,0.026380,-0.341861,-0.418110,-0.334874,188.60000,0.68000
201125_15.30.09.318,-0.018809,-0.006182,1.001395,0.032390,-0.003000,0.009380,-0.341459,-0.423722,-0.320349,188.61000,0.01000
201125_15.30.09.329,-0.020866,-0.006132,1.008418,0.015390,-0.021000,0.009380,-0.341391,-0.425591,-0.318274,188.16000,-0.45000
201125_15.30.09.340,-0.020831,-0.007162,1.004407,0.015390,-0.021000,0.009380,-0.351152,-0.429238,-0.328896,188.05000,-0.11000
201125_15.30.09.351,-0.020020,-0.008020,1.030423,0.015390,-0.126000,0.026380,-0.343695,-0.431177,-0.336995,188.20000,0.15000
201125_15.30.09.362,-0.019695,-0.005265,0.985390,-0.001610,0.015000,0.026380,-0.355074,-0.423594,-0.331072,187.98000,-0.22000
201125_15.30.09.373,-0.019882,-0.007125,1.011408,0.032390,-0.003000,0.009380,-0.339695,-0.429345,-0.328597,188.50000,0.52000
201125_15.30.09.385,-0.018794,-0.006194,0.999393,0.032390,0.015000,0.026380,-0.345363,-0.419947,-0.322525,188.35000,-0.15000
201125_15.30.09.396,-0.019882,-0.007125,1.011408,0.032390,-0.021000,0.009380,-0.336076,-0.429379,-0.336797,188.13000,-0.22000
201125_15.30.09.408,-0.019814,-0.007178,1.002398,0.015390,-0.038000,-0.008620,-0.343599,-0.425571,-0.330772,188.12000,-0.01000
201125_15.30.09.420,-0.019831,-0.005160,1.003410,0.015390,-0.021000,0.009380,-0.345374,-0.429292,-0.326672,188.65000,0.53000
201125_15.30.09.431,-0.018973,-0.008060,1.024409,0.015390,-0.073000,0.009380,-0.341622,-0.427458,-0.328647,188.41000,-0.24000
201125_15.30.09.442,-0.020779,-0.007203,0.997400,0.032390,-0.038000,0.009380,-0.353061,-0.429220,-0.328946,188.57000,0.16000
201125_15.30.09.453,-0.020894,-0.008115,1.013412,0.032390,-0.055000,0.009380,-0.347255,-0.421798,-0.322574,188.52000,-0.05000
201125_15.30.09.464,-0.019792,-0.007196,0.999394,0.015390,0.015000,0.026380,-0.351269,-0.427368,-0.333046,188.58000,0.06000
201125_15.30.09.476,-0.019807,-0.007184,1.001396,0.015390,-0.021000,0.009380,-0.353161,-0.429219,-0.333095,188.53000,-0.05000
201125_15.30.09.487,-0.018812,-0.007183,1.002390,-0.001610,0.015000,0.026380,-0.349445,-0.423647,-0.335072,188.55000,0.02000
201125_15.30.09.498,-0.018787,-0.006200,0.998391,-0.001610,-0.003000,0.009380,-0.349463,-0.421777,-0.335072,187.36000,-1.19000
201125_15.30.09.509,-0.019832,-0.008167,1.005395,0.015390,-0.038000,0.009380,-0.350998,-0.434847,-0.324745,188.57000,1.21000
201125_15.30.09.521,-0.018853,-0.008154,1.008391,0.032390,-0.038000,0.026380,-0.351251,-0.429237,-0.333045,188.26000,-0.31000
201125_15.30.09.532,-0.018824,-0.006171,1.003397,0.015390,-0.003000,0.026380,-0.349392,-0.429255,-0.335070,188.10000,-0.16000
201125_15.30.09.543,-0.018838,-0.008166,1.006389,-0.001610,-0.003000,-0.008620,-0.351504,-0.423627,-0.341346,188.60000,0.50000
201125_15.30.09.555,-0.020867,-0.009139,1.010402,0.050390,-0.021000,0.026380,-0.353278,-0.427349,-0.337245,188.38000,-0.22000
201125_15.30.09.566,-0.018933,-0.007089,1.018408,-0.001610,0.032000,0.009380,-0.349342,-0.429255,-0.332996,188.30000,-0.08000
201125_15.30.09.578,-0.020799,-0.009192,1.001392,0.032390,-0.038000,0.009380,-0.351152,-0.429238,-0.328896,188.30000,0.00000
201125_15.30.09.589,-0.018839,-0.006159,1.005399,0.015390,-0.021000,0.009380,-0.351219,-0.427368,-0.330971,187.76000,-0.54000
201125_15.30.09.600,-0.019864,-0.006137,1.008410,0.032390,-0.021000,0.009380,-0.349274,-0.431125,-0.330920,188.07000,0.31000
201125_15.30.09.611,-0.020812,-0.008180,1.002399,-0.001610,-0.003000,0.009380,-0.343550,-0.425571,-0.328698,188.99000,0.92000
201125_15.30.09.622,-0.018809,-0.006182,1.001395,0.032390,-0.003000,0.026380,-0.341690,-0.425588,-0.330723,188.39000,-0.60000
201125_15.30.09.633,-0.018976,-0.009061,1.025404,0.032390,-0.090000,0.009380,-0.345551,-0.436767,-0.337043,188.88000,0.49000
201125_15.30.09.645,-0.018817,-0.006177,1.002396,0.015390,-0.003000,0.009380,-0.345654,-0.431159,-0.339120,188.41000,-0.47000
201125_15.30.09.656,-0.020879,-0.008127,1.011409,0.015390,-0.055000,0.009380,-0.345569,-0.434898,-0.337044,188.10000,-0.31000
201125_15.30.09.667,-0.018794,-0.006194,0.999393,0.015390,-0.021000,0.009380,-0.339809,-0.433083,-0.334820,188.42000,0.32000
201125_15.30.09.679,-0.018865,-0.007142,1.009398,0.050390,-0.021000,0.026380,-0.339656,-0.438692,-0.330669,188.44000,0.02000
201125_15.30.09.690,-0.019799,-0.007190,1.000395,0.032390,-0.021000,0.026380,-0.347880,-0.429268,-0.351619,188.47000,0.03000
201125_15.30.09.702,-0.018842,-0.007159,1.006395,0.032390,-0.021000,0.026380,-0.341921,-0.427455,-0.341096,188.20000,-0.27000
201125_15.30.09.713,-0.019819,-0.006172,1.002403,-0.001610,-0.021000,0.026380,-0.342102,-0.429322,-0.349395,188.54000,0.34000
201125_15.30.09.724,-0.019822,-0.007172,1.003399,-0.019610,-0.021000,0.026380,-0.351518,-0.427365,-0.343420,188.17000,-0.37000
201125_15.30.09.736,-0.020899,-0.007109,1.013418,0.032390,-0.038000,0.009380,-0.341857,-0.423717,-0.336947,188.16000,-0.01000
201125_15.30.09.747,-0.020748,-0.007226,0.993395,0.015390,-0.021000,0.009380,-0.339731,-0.425607,-0.328598,188.49000,0.33000
201125_15.30.09.758,-0.018868,-0.008142,1.010393,0.032390,-0.021000,0.026380,-0.347596,-0.433010,-0.341244,188.05000,-0.44000
201125_15.30.09.770,-0.018714,-0.007259,0.989375,0.015390,0.032000,0.009380,-0.345121,-0.434903,-0.318371,187.70000,-0.35000
201125_15.30.09.781,-0.019882,-0.007125,1.011408,0.015390,0.015000,0.026380,-0.349648,-0.418037,-0.341298,188.02000,0.32000
201125_15.30.09.792,-0.018790,-0.007201,0.999387,0.050390,-0.055000,0.026380,-0.343667,-0.423701,-0.332848,188.25000,0.23000
201125_15.30.09.804,-0.019909,-0.006101,1.014417,0.032390,-0.038000,0.009380,-0.351120,-0.427369,-0.326822,188.68000,0.43000
201125_15.30.09.815,-0.019790,-0.009203,1.000384,0.015390,-0.021000,0.026380,-0.349413,-0.421778,-0.332998,188.20000,-0.48000
201125_15.30.09.827,-0.020849,-0.008151,1.007405,0.015390,-0.038000,0.009380,-0.347518,-0.425534,-0.335022,188.02000,-0.18000
201125_15.30.09.838,-0.018832,-0.006165,1.004398,0.032390,-0.021000,0.044380,-0.347301,-0.427405,-0.326722,188.62000,0.60000
201125_15.30.09.850,-0.019849,-0.006148,1.006408,0.050390,-0.038000,0.009380,-0.349296,-0.423648,-0.328848,187.92000,-0.70000
201125_15.30.09.861,-0.019804,-0.006184,1.000401,0.032390,-0.021000,0.026380,-0.345278,-0.423686,-0.320449,188.08000,0.16000
201125_15.30.09.872,-0.019840,-0.008161,1.006396,0.015390,-0.021000,0.009380,-0.343382,-0.427442,-0.322473,188.41000,0.33000
201125_15.30.09.883,-0.019826,-0.006166,1.003405,0.015390,-0.021000,0.009380,-0.343785,-0.421830,-0.336998,188.43000,0.02000
201125_15.30.09.894,-0.019825,-0.008173,1.004394,0.032390,-0.003000,0.026380,-0.347166,-0.431145,-0.322571,188.56000,0.13000
201125_15.30.09.905,-0.018820,-0.007177,1.003391,0.015390,-0.021000,0.009380,-0.352802,-0.419877,-0.314425,188.07000,-0.49000
201125_15.30.09.916,-0.019814,-0.007178,1.002398,0.015390,-0.021000,0.026380,-0.351454,-0.423628,-0.339271,188.29000,0.22000
201125_15.30.09.927,-0.019829,-0.007167,1.004400,0.015390,-0.038000,0.044380,-0.347617,-0.425533,-0.339171,188.53000,0.24000
201125_15.30.09.938,-0.019837,-0.007161,1.005401,0.050390,-0.021000,0.026380,-0.345573,-0.429290,-0.334971,188.43000,-0.10000
201125_15.30.09.950,-0.018820,-0.007177,1.003391,0.032390,-0.003000,0.044380,-0.345822,-0.429288,-0.345345,188.45000,0.02000
201125_15.30.09.961,-0.019825,-0.008173,1.004394,-0.001610,-0.003000,0.026380,-0.349513,-0.421777,-0.337147,188.61000,0.16000
201125_15.30.09.973,-0.018827,-0.007171,1.004392,0.015390,-0.021000,0.026380,-0.341658,-0.423720,-0.328648,188.18000,-0.43000
201125_15.30.09.984,-0.018827,-0.007171,1.004392,0.015390,-0.021000,0.009380,-0.347333,-0.429274,-0.328796,188.28000,0.10000
201125_15.30.09.995,-0.020843,-0.006150,1.005414,0.015390,-0.038000,0.026380,-0.352862,-0.429223,-0.320646,188.24000,-0.04000
201125_15.30.10.006,-0.019840,-0.008161,1.006396,-0.001610,-0.003000,0.009380,-0.351187,-0.425500,-0.328897,187.91000,-0.33000
201125_15.30.10.018,-0.018805,-0.007189,1.001389,0.032390,-0.003000,0.044380,-0.347617,-0.425533,-0.339171,188.49000,0.58000
201125_15.30.10.029,-0.019817,-0.008179,1.003393,0.032390,-0.055000,0.044380,-0.349260,-0.427387,-0.328846,187.91000,-0.58000
201125_15.30.10.040,-0.019811,-0.006178,1.001402,0.015390,-0.021000,0.009380,-0.349260,-0.427387,-0.328846,188.18000,0.27000
201125_15.30.10.051,-0.019814,-0.007178,1.002398,0.015390,0.032000,0.026380,-0.353246,-0.425480,-0.335171,188.06000,-0.12000
201125_15.30.10.062,-0.019855,-0.008149,1.008399,0.015390,-0.038000,0.026380,-0.349296,-0.423648,-0.328848,188.70000,0.64000
201125_15.30.10.074,-0.018820,-0.007177,1.003391,0.032390,-0.003000,0.009380,-0.349238,-0.434864,-0.330919,188.64000,-0.06000
201125_15.30.10.085,-0.019822,-0.007172,1.003399,0.050390,-0.003000,0.009380,-0.355255,-0.425461,-0.339370,188.32000,-0.32000
201125_15.30.10.096,-0.019829,-0.007167,1.004400,0.015390,0.015000,0.009380,-0.354988,-0.427333,-0.328996,188.52000,0.20000
201125_15.30.10.107,-0.019827,-0.009173,1.005389,0.032390,-0.021000,0.009380,-0.347400,-0.427404,-0.330871,188.24000,-0.28000
201125_15.30.10.119,-0.019829,-0.007167,1.004400,0.032390,-0.038000,0.009380,-0.349125,-0.431127,-0.324696,188.50000,0.26000
