timestamp,ax,ay,az,gx,gy,gz,mx,my,mz,altitude,relative_altitude
041225_03.43.45.470,0.97300,0.41400,0.43400,24.27300,3.62200,-85.05000,-0.34700,-0.06000,-0.49900,83.26000,0.00000
041225_03.43.45.481,0.90100,0.31200,0.48600,20.75500,-3.97300,-77.70000,-0.34700,-0.06000,-0.49900,83.77000,0.51000
041225_03.43.45.493,0.81700,0.31900,0.56700,22.68000,-8.47000,-71.80200,-0.32900,-0.05800,-0.49800,83.36000,-0.41000
041225_03.43.45.505,0.71600,0.32800,0.67500,26.67000,-7.12200,-70.56000,-0.31600,-0.05700,-0.49600,83.76000,0.40000
041225_03.43.45.516,0.60300,0.37400,0.77700,27.12500,-0.43700,-73.32500,-0.29600,-0.05900,-0.48900,83.98000,0.22000
041225_03.43.45.528,0.51800,0.42700,0.81300,23.22200,7.73500,-78.89000,-0.28200,-0.05400,-0.49100,83.80000,-0.18000
041225_03.43.45.540,0.49500,0.50600,0.82100,16.20500,16.71200,-84.91000,-0.28200,-0.05400,-0.49100,82.94000,-0.86000
041225_03.43.45.551,0.50500,0.55200,0.82600,9.74800,24.48300,-90.58000,-0.26000,-0.05100,-0.49000,83.65000,0.71000
041225_03.43.45.563,0.50400,0.60400,0.79200,3.44700,29.10300,-97.09000,-0.24700,-0.04900,-0.48700,83.28000,-0.37000
041225_03.43.45.574,0.49500,0.65600,0.78000,-10.86800,46.77800,-111.49300,-0.22400,-0.03500,-0.49500,84.15000,0.87000
041225_03.43.45.586,0.44600,0.85100,0.79600,-23.43300,52.85000,-119.15800,-0.20300,-0.03300,-0.49500,83.33000,-0.82000
041225_03.43.45.597,0.29900,0.86600,0.83000,-37.94000,58.80000,-128.31000,-0.20300,-0.03300,-0.49500,83.38000,0.05000
041225_03.43.45.609,0.28900,0.80700,0.87500,-45.09700,66.50000,-141.27700,-0.17900,-0.02700,-0.49600,83.51000,0.13000
041225_03.43.45.620,0.30500,0.68500,0.89700,-40.05700,73.48200,-154.85700,-0.15000,-0.01300,-0.50000,83.62000,0.11000
041225_03.43.45.632,0.30000,0.65400,0.89100,-28.45500,77.26200,-163.18700,-0.11700,-0.00300,-0.49500,83.50000,-0.12000
041225_03.43.45.643,0.29000,0.59600,0.85700,-13.17700,76.54500,-163.29200,-0.08100,0.01800,-0.48700,83.77000,0.27000
041225_03.43.45.655,0.32200,0.56800,0.81500,-3.97300,76.09000,-159.72300,-0.08100,0.01800,-0.48700,83.86000,0.09000
041225_03.43.45.666,0.24600,0.62300,0.76100,-3.16800,77.78700,-157.55300,-0.05000,0.03100,-0.47900,83.62000,-0.24000
041225_03.43.45.678,0.32000,0.78100,0.45400,-1.89000,78.96000,-155.47000,-0.02900,0.04800,-0.46900,83.31000,-0.31000
041225_03.43.45.689,0.55700,0.86100,0.42300,20.49300,84.54300,-150.46500,-0.01100,0.06400,-0.45200,83.46000,0.15000
041225_03.43.45.701,0.08600,0.77000,0.81600,57.13800,64.71500,-144.56800,-0.01100,0.06400,-0.45200,83.82000,0.36000
041225_03.43.45.712,-0.23300,0.86000,0.91700,72.01200,35.92800,-141.78500,0.01800,0.08600,-0.44300,83.39000,-0.43000
041225_03.43.45.724,-0.05500,0.85500,0.81000,56.78700,52.65800,-141.66300,0.03000,0.10700,-0.42900,83.70000,0.31000
041225_03.43.45.735,-0.42800,0.92600,0.89500,42.08800,56.17500,-159.88000,0.05300,0.12800,-0.41400,84.13000,0.43000
041225_03.43.45.746,-0.37300,1.00800,0.87400,26.49500,49.38500,-184.53800,0.07100,0.15900,-0.40400,84.18000,0.05000
041225_03.43.45.758,-0.40400,0.98600,0.89600,11.48000,49.66500,-203.92800,0.07100,0.15900,-0.40400,83.65000,-0.53000
041225_03.43.45.769,-0.43400,0.90400,0.91900,2.17000,51.64300,-221.72500,0.09200,0.19600,-0.39600,83.85000,0.20000
041225_03.43.45.781,-0.49400,0.80600,0.78000,-9.92200,58.38000,-239.52300,0.11200,0.24000,-0.38600,83.41000,-0.44000
041225_03.43.45.792,-0.48300,0.92400,0.85800,-21.33300,69.09000,-259.01700,0.12200,0.28900,-0.37700,83.69000,0.28000
041225_03.43.45.804,-0.38300,0.90500,0.90800,-35.19300,69.16000,-269.71000,0.14600,0.32600,-0.37200,84.58000,0.89000
041225_03.43.45.816,-0.18600,0.84000,0.48600,-54.40800,54.09200,-265.23000,0.14600,0.32600,-0.37200,83.86000,-0.72000
041225_03.43.45.827,-0.11300,0.65800,0.50300,-48.21300,22.22500,-241.50000,0.15000,0.36800,-0.37100,84.07000,0.21000
041225_03.43.45.839,-0.21500,0.55900,0.56400,-38.90300,14.82300,-210.99700,0.14700,0.40800,-0.36200,83.96000,-0.11000
041225_03.43.45.850,-0.26100,0.48800,0.55300,-43.78500,18.65500,-179.35700,0.14500,0.44200,-0.35700,83.79000,-0.17000
041225_03.43.45.862,-0.39200,0.38500,0.43300,-46.91700,10.48300,-108.62200,0.13500,0.45600,-0.35900,83.69000,-0.10000
041225_03.43.45.874,-0.45200,0.33000,0.44500,-27.86000,13.09000,-97.00300,0.13500,0.45600,-0.35900,84.01000,0.32000
041225_03.43.45.886,-0.54400,0.23700,0.51500,-22.78500,14.82300,-96.26800,0.13100,0.47500,-0.34800,83.86000,-0.15000
041225_03.43.45.897,-0.55800,0.19500,0.53200,-16.41500,17.29000,-98.56000,0.12600,0.49400,-0.34300,83.86000,0.00000
041225_03.43.45.909,-0.65700,0.19500,0.46300,-7.14000,21.75300,-104.24700,0.11700,0.51500,-0.33600,84.47000,0.61000
041225_03.43.45.920,-0.83600,0.14200,0.23900,11.37500,32.79500,-119.47300,0.11700,0.51500,-0.33800,83.46000,-1.01000
041225_03.43.45.932,-0.82800,0.05500,0.42700,32.95200,44.52000,-142.08300,0.10400,0.53700,-0.33800,84.09000,0.63000
041225_03.43.45.943,-0.71300,0.07500,0.50300,38.48300,46.18200,-162.80300,0.08500,0.56900,-0.32700,84.66000,0.57000
041225_03.43.45.955,-0.57000,0.21500,0.68200,22.89000,43.22500,-165.14800,0.06600,0.59600,-0.32200,83.17000,-1.49000
041225_03.43.45.967,-0.59000,0.35700,0.38900,12.40800,40.42500,-143.36000,0.04800,0.61800,-0.31200,83.88000,0.71000
041225_03.43.45.978,-0.30300,-0.11200,0.63200,15.90800,35.26300,-118.66800,0.04800,0.61800,-0.31200,83.44000,-0.44000
041225_03.43.45.990,-0.54600,-0.15600,0.56700,14.94500,18.28800,-103.09200,0.03100,0.63100,-0.30900,84.04000,0.60000
041225_03.43.46.001,-0.64900,-0.17000,0.45800,10.29000,17.57000,-92.97800,0.01600,0.64700,-0.30800,84.22000,0.18000
041225_03.43.46.013,-0.63100,-0.16300,0.42700,0.64700,11.07800,-79.74700,-0.00000,0.65700,-0.30600,83.67000,-0.55000
041225_03.43.46.024,-0.56300,-0.14300,0.35600,-2.36200,5.49500,-72.88700,-0.01400,0.66000,-0.31100,83.68000,0.01000
041225_03.43.46.036,-0.78100,0.05200,0.26900,0.68300,6.42300,-68.77500,-0.01400,0.66000,-0.31100,83.48000,-0.20000
041225_03.43.46.048,-0.71900,-0.10600,0.35100,10.50000,13.03800,-66.20200,-0.02300,0.66900,-0.30500,84.47000,0.99000
041225_03.43.46.059,-0.68200,-0.24600,0.51400,14.19300,12.39000,-69.54500,-0.04000,0.67600,-0.30100,83.55000,-0.92000
041225_03.43.46.071,-0.70700,-0.19800,0.50700,13.00200,8.61000,-71.87200,-0.05600,0.67700,-0.30600,84.35000,0.80000
041225_03.43.46.082,-0.79700,-0.21000,0.47700,10.72700,11.21700,-70.24500,-0.06400,0.68100,-0.29900,83.94000,-0.41000
041225_03.43.46.094,-0.90200,-0.17300,0.44900,16.29200,14.73500,-69.56300,-0.06400,0.68100,-0.29900,83.62000,-0.32000
041225_03.43.46.106,-0.95500,-0.16000,0.44500,26.58300,16.36200,-67.98800,-0.07600,0.68600,-0.30700,83.36000,-0.26000
041225_03.43.46.118,-0.94600,-0.20300,0.48400,32.90000,11.02500,-62.21300,-0.09100,0.69300,-0.30500,83.67000,0.31000
041225_03.43.46.130,-0.90100,-0.32900,0.51300,32.98700,0.99800,-59.09700,-0.10000,0.70000,-0.30100,84.22000,0.55000
041225_03.43.46.141,-0.84100,-0.39800,0.47900,31.16700,-1.80300,-68.63500,-0.10000,0.70400,-0.30000,83.92000,-0.30000
041225_03.43.46.153,-0.79400,-0.46600,0.47100,30.24000,2.03000,-76.10700,-0.11900,0.70400,-0.30000,83.67000,-0.25000
041225_03.43.46.164,-0.76700,-0.47800,0.45100,23.62500,-3.76300,-77.08800,-0.13300,0.70800,-0.30400,83.92000,0.25000
041225_03.43.46.176,-0.68600,-0.43000,0.55000,20.00300,-11.41000,-72.67700,-0.14900,0.70800,-0.30600,83.84000,-0.08000
041225_03.43.46.187,-0.70100,-0.42800,0.53800,16.85300,-17.65700,-68.28500,-0.15900,0.71100,-0.31100,83.84000,0.00000
041225_03.43.46.199,-0.69500,-0.51700,0.52300,17.36000,-23.25700,-63.70000,-0.15900,0.71100,-0.31100,83.63000,-0.21000
041225_03.43.46.210,-0.76500,-0.70600,0.56700,13.91300,-23.67700,-64.89000,-0.16700,0.71400,-0.31100,83.61000,-0.02000
041225_03.43.46.222,-0.52700,-0.49400,0.62400,3.22000,-6.84300,-78.22500,-0.17700,0.71500,-0.30700,83.18000,-0.43000
041225_03.43.46.233,-0.57300,-0.35700,0.64200,-8.52300,35.59500,-89.79300,-0.19000,0.71000,-0.30500,83.57000,0.39000
041225_03.43.46.245,-0.77200,-0.71500,0.53800,-21.29800,43.75000,-81.34000,-0.20700,0.71700,-0.28900,83.90000,0.33000
041225_03.43.46.256,-0.79700,-0.55600,0.42900,-27.65000,31.01000,-76.45700,-0.20700,0.71700,-0.28900,83.94000,0.04000
041225_03.43.46.268,-0.76300,-0.29900,0.40700,-18.04200,8.64500,-69.07300,-0.22800,0.71700,-0.28400,84.23000,0.29000
041225_03.43.46.279,-0.71600,-0.38000,0.39500,-7.00000,-16.57300,-57.36500,-0.23500,0.71500,-0.28100,83.73000,-0.50000
041225_03.43.46.291,-0.64100,-0.53600,0.32200,-3.13200,-29.19000,-51.81800,-0.24300,0.71600,-0.27600,83.08000,-0.65000
041225_03.43.46.302,-0.53700,-0.55500,0.27200,-2.62500,-28.66500,-58.57300,-0.24900,0.71400,-0.27000,83.65000,0.57000
041225_03.43.46.314,-0.46200,-0.50700,0.21200,6.56200,-21.03500,-59.37700,-0.24900,0.71400,-0.27000,83.95000,0.30000
041225_03.43.46.325,-0.45600,-0.23200,0.13000,23.03000,-30.46800,-59.08000,-0.25700,0.71600,-0.26900,83.74000,-0.21000
041225_03.43.46.337,-0.62100,-0.18700,0.28700,48.38800,-54.07500,-62.44000,-0.26300,0.72100,-0.27500,82.94000,-0.80000
041225_03.43.46.348,-0.71200,-0.25000,0.33400,76.73800,-89.58200,-68.89700,-0.26500,0.71600,-0.27600,83.51000,0.57000
041225_03.43.46.360,-0.71700,-0.45800,0.38100,93.83500,-108.65800,-79.52000,-0.26400,0.71900,-0.28600,83.65000,0.14000
041225_03.43.46.371,-0.64600,-0.73400,0.41400,92.33000,-90.63200,-96.58200,-0.26400,0.71900,-0.28600,83.51000,-0.14000
041225_03.43.46.383,-0.49100,-0.95100,0.66600,78.73200,-51.90500,-109.74300,-0.27000,0.72000,-0.29400,83.89000,0.38000
041225_03.43.46.394,-0.29500,-1.03800,0.83200,56.31500,-15.54000,-107.55500,-0.27700,0.71800,-0.29500,83.20000,-0.69000
041225_03.43.46.406,-0.12200,-0.99400,0.87500,31.23700,2.60800,-91.22800,-0.28300,0.71400,-0.29100,83.44000,0.24000
041225_03.43.46.417,-0.02900,-0.92000,0.80000,12.07500,1.80300,-69.23000,-0.28300,0.71400,-0.29100,83.57000,0.13000
041225_03.43.46.429,-0.09600,-0.85900,0.73600,1.83700,-8.99500,-46.63800,-0.29100,0.70700,-0.28300,84.58000,1.01000
041225_03.43.46.440,-0.16900,-0.74500,0.70900,-7.14000,-18.30500,-26.81000,-0.28800,0.70600,-0.28600,84.10000,-0.48000
041225_03.43.46.452,-0.27100,-0.66300,0.69500,-24.43000,-13.17700,-3.85000,-0.28300,0.70200,-0.26800,83.78000,-0.32000
041225_03.43.46.463,-0.38400,-0.67400,0.58500,-25.23500,-6.72000,-6.87800,-0.27900,0.69600,-0.26500,83.41000,-0.37000
041225_03.43.46.475,-0.39500,-0.72600,0.61900,-21.17500,-1.10200,-13.82500,-0.27900,0.69600,-0.26500,83.97000,0.56000
041225_03.43.46.486,-0.32000,-0.80000,0.62500,-14.63000,1.31200,-21.73500,-0.27700,0.68900,-0.26200,84.18000,0.21000
041225_03.43.46.498,-0.23700,-0.80600,0.64000,-7.14000,0.19200,-27.07300,-0.27600,0.68900,-0.26500,83.69000,-0.49000
041225_03.43.46.509,-0.17500,-0.82100,0.65100,0.50700,-1.05000,-27.12500,-0.27000,0.68800,-0.26400,84.23000,0.54000
041225_03.43.46.521,-0.17300,-0.86100,0.62700,5.61700,-1.19000,-24.58700,-0.27200,0.68900,-0.26400,83.81000,-0.42000
041225_03.43.46.532,-0.25900,-0.80100,0.68300,6.44000,8.24300,-27.86000,-0.27200,0.68900,-0.26400,83.44000,-0.37000
041225_03.43.46.544,-0.30900,-0.69200,0.78900,5.40700,17.22000,-28.47200,-0.27400,0.68600,-0.25900,83.29000,-0.15000
041225_03.43.46.556,-0.39100,-0.64600,0.83700,5.42500,15.45300,-20.98300,-0.27600,0.69000,-0.27000,84.04000,0.75000
041225_03.43.46.567,-0.39800,-0.65600,0.86200,8.08500,1.15500,-8.55700,-0.27300,0.68800,-0.26900,83.97000,-0.07000
041225_03.43.46.579,-0.34900,-0.76800,0.84000,12.54700,-22.05000,3.20300,-0.26800,0.69000,-0.26300,83.87000,-0.10000
041225_03.43.46.590,-0.28200,-0.84000,0.74400,16.15300,-46.35800,10.04500,-0.26800,0.69000,-0.26300,83.95000,0.08000
041225_03.43.46.602,-0.25600,-0.82000,0.60900,25.34000,-71.13700,17.78000,-0.25800,0.68900,-0.26700,83.93000,-0.02000
041225_03.43.46.613,0.11200,-0.59600,0.30300,40.81000,-61.35500,27.00300,-0.24500,0.69500,-0.27700,83.68000,-0.25000
041225_03.43.46.625,0.23500,-0.51200,0.40100,82.28500,-35.59500,21.63000,-0.24100,0.70300,-0.29000,83.60000,-0.08000
041225_03.43.46.636,0.25200,-0.14200,0.94200,128.01200,-2.06500,21.94500,-0.24100,0.70300,-0.31800,83.32000,-0.28000
041225_03.43.46.648,0.16500,0.27100,1.37900,139.44000,22.94200,51.97500,-0.22900,0.71300,-0.31800,83.81000,0.49000
041225_03.43.46.659,-0.13900,-0.22800,0.45300,106.96000,47.39000,106.76800,-0.21500,0.72100,-0.33100,83.60000,-0.21000
041225_03.43.46.671,-0.32500,-0.06100,0.59300,87.13200,92.85500,153.66700,-0.19100,0.72200,-0.35100,83.72000,0.12000
041225_03.43.46.682,-0.53500,-0.00900,0.82600,78.69800,118.09000,196.21000,-0.15800,0.71600,-0.34900,83.03000,-0.69000
041225_03.43.46.694,-0.68400,-0.05000,0.85000,67.21700,120.26000,230.02000,-0.15800,0.71600,-0.34900,83.81000,0.78000
041225_03.43.46.705,-0.83500,-0.05700,0.86800,50.62700,116.56700,243.89800,-0.12100,0.70900,-0.35100,84.12000,0.31000
041225_03.43.46.717,-0.96700,-0.12800,0.95600,32.72500,104.56300,243.16300,-0.09000,0.68900,-0.35300,84.11000,-0.01000
041225_03.43.46.729,-2.63700,-0.84400,0.46200,10.71000,100.66000,204.31200,-0.06000,0.67200,-0.33500,83.33000,-0.78000
041225_03.43.46.740,-1.50100,-0.46800,1.30900,-10.65800,116.09500,18.74300,-0.05700,0.66700,-0.33600,84.01000,0.68000
041225_03.43.46.752,-1.24600,0.03600,0.93500,-31.90300,12.89800,-27.59700,-0.05700,0.66700,-0.33600,84.40000,0.39000
041225_03.43.46.763,-0.87700,-0.12600,0.98500,-35.31500,-37.99300,-59.83300,-0.06000,0.66800,-0.33300,84.01000,-0.39000
041225_03.43.46.775,-0.63000,-0.28300,0.92600,-47.81000,-61.44300,-71.68000,-0.07000,0.67700,-0.33100,84.06000,0.05000
041225_03.43.46.786,-0.56100,-0.42300,0.90800,-62.47500,-63.45500,-68.54800,-0.07500,0.68100,-0.32500,83.64000,-0.42000
041225_03.43.46.798,-0.52800,-0.57000,0.81900,-71.73200,-60.07700,-58.38000,-0.08300,0.68500,-0.32900,83.39000,-0.25000
041225_03.43.46.809,-0.40500,-0.66000,0.71200,-75.09200,-57.08500,-54.32000,-0.08300,0.68500,-0.32900,83.55000,0.16000
041225_03.43.46.821,-0.28900,-0.74400,0.64000,-74.88200,-49.19300,-50.50500,-0.08800,0.69100,-0.32100,83.34000,-0.21000
041225_03.43.46.832,-0.32700,-0.66500,0.33100,-72.87000,-29.71500,-51.20500,-0.09400,0.69900,-0.32200,83.30000,-0.04000
041225_03.43.46.844,-0.37600,-0.70000,0.39200,-63.84000,-0.92800,-59.46500,-0.11300,0.70300,-0.31000,83.48000,0.18000
041225_03.43.46.855,-0.60500,-0.61000,0.59100,-62.37000,13.73800,-76.40500,-0.13100,0.70900,-0.30700,83.79000,0.31000
041225_03.43.46.867,-0.81200,-0.42800,0.70800,-68.42500,9.60800,-101.62200,-0.13100,0.70900,-0.30700,83.84000,0.05000
041225_03.43.46.878,-0.90500,-0.32400,0.77200,-68.37200,-5.72200,-127.62800,-0.15000,0.72100,-0.29900,83.01000,-0.83000
041225_03.43.46.890,-0.84800,-0.39300,0.79900,-60.93500,-45.27200,-144.83000,-0.16800,0.72800,-0.29300,84.27000,1.26000
041225_03.43.46.901,-0.70500,-0.47700,0.71900,-47.12700,-61.35500,-143.62200,-0.19600,0.73500,-0.29300,83.58000,-0.69000
041225_03.43.46.913,-0.38800,-0.76600,0.77800,-51.36200,-84.96300,-142.92300,-0.19600,0.73500,-0.29300,83.45000,-0.13000
041225_03.43.46.925,-0.22000,-0.76300,0.79200,-66.41200,-113.06700,-138.68700,-0.21100,0.73600,-0.29900,83.83000,0.38000
041225_03.43.46.936,0.04300,-0.46800,0.64100,-78.19000,-142.73000,-116.42700,-0.22700,0.73400,-0.28900,82.98000,-0.85000
041225_03.43.46.948,0.04100,-0.32700,0.39800,-70.38500,-152.77500,-54.81000,-0.23000,0.73300,-0.28500,84.37000,1.39000
041225_03.43.46.959,0.00200,-0.56800,0.46700,-52.36000,-138.72300,12.58300,-0.20900,0.72400,-0.27800,84.39000,0.02000
041225_03.43.46.971,-0.84800,-0.35800,0.46000,-27.35300,-119.43800,48.21300,-0.20900,0.72400,-0.27800,83.55000,-0.84000
041225_03.43.46.982,-0.61400,-1.11200,0.63500,-3.15000,-66.13200,55.94800,-0.19600,0.72000,-0.28300,83.86000,0.31000
041225_03.43.46.994,-0.66800,-0.94300,0.65500,-35.19300,-24.44800,24.79800,-0.19100,0.71600,-0.27600,83.48000,-0.38000
041225_03.43.47.005,-0.50500,-0.76400,0.51700,-49.26300,2.71300,-1.90800,-0.19700,0.71600,-0.26500,83.58000,0.10000
041225_03.43.47.017,-0.08600,-0.58000,0.54000,-41.65000,19.89800,-9.57300,-0.19900,0.71300,-0.26300,83.95000,0.37000
041225_03.43.47.028,-0.07900,-0.66900,0.60400,-26.11000,21.01700,2.18800,-0.19900,0.71300,-0.26300,83.79000,-0.16000
041225_03.43.47.039,-0.22000,-0.80400,0.57700,-22.50500,15.36500,1.76800,-0.19700,0.70700,-0.26000,83.61000,-0.18000
041225_03.43.47.051,-0.04600,-0.84300,0.63200,-25.41000,11.11300,-3.65800,-0.20100,0.70300,-0.25200,83.88000,0.27000
041225_03.43.47.062,-0.04100,-0.87200,0.67600,-25.02500,4.55000,-4.02500,-0.20500,0.70100,-0.25000,84.15000,0.27000
041225_03.43.47.074,-0.15600,-0.88000,0.68100,-25.02500,-0.80500,-2.73000,-0.20700,0.70700,-0.24500,84.25000,0.10000
041225_03.43.47.085,-0.26700,-0.84900,0.64200,-28.92700,-2.45000,-5.07500,-0.20700,0.70700,-0.24500,83.72000,-0.53000
041225_03.43.47.097,-0.36500,-0.79000,0.63900,-32.53300,2.20500,-11.06000,-0.21300,0.71100,-0.24900,84.14000,0.42000
041225_03.43.47.108,-0.40700,-0.65900,0.58400,-36.76800,3.93800,-21.56000,-0.22100,0.70500,-0.24300,83.79000,-0.35000
041225_03.43.47.120,-0.35800,-0.64000,0.56400,-45.53500,3.88500,-33.49500,-0.22600,0.70300,-0.23900,83.44000,-0.35000
041225_03.43.47.131,-0.23700,-0.57000,0.54000,-63.98000,1.12000,-46.44500,-0.22600,0.70300,-0.22100,83.56000,0.12000
041225_03.43.47.143,-0.12700,-0.42200,0.43500,-79.04800,-9.46700,-60.70800,-0.23500,0.69800,-0.22100,83.61000,0.05000
041225_03.43.47.154,-0.08900,-0.39600,0.25000,-70.61300,-8.54000,-73.78000,-0.24200,0.69500,-0.21300,83.54000,-0.07000
041225_03.43.47.166,-0.09200,-0.69600,0.21800,-36.83800,3.90200,-82.86300,-0.25300,0.69800,-0.21400,83.92000,0.38000
041225_03.43.47.177,0.10800,-1.47700,0.50700,-13.79000,14.14000,-68.39000,-0.26700,0.69800,-0.20700,84.01000,0.09000
041225_03.43.47.189,0.35900,-1.57500,0.58700,-43.92500,30.57300,-49.35000,-0.26700,0.69800,-0.20700,83.39000,-0.62000
041225_03.43.47.200,-0.24400,-1.07400,0.74200,-46.48000,21.14000,-18.18300,-0.28200,0.69500,-0.19400,83.57000,0.18000
041225_03.43.47.212,-0.19100,-1.22400,0.52900,-12.56500,27.49300,34.91200,-0.28700,0.69300,-0.19800,83.75000,0.18000
041225_03.43.47.223,-0.06300,-0.95700,0.47500,-21.99700,25.95200,61.39000,-0.29100,0.69400,-0.19800,84.19000,0.44000
041225_03.43.47.235,-0.05000,-0.88800,0.33900,-27.77300,21.61200,51.99300,-0.29100,0.69200,-0.19500,83.71000,-0.48000
041225_03.43.47.246,-0.13300,-0.92700,0.44000,-22.80200,9.27500,33.30300,-0.29100,0.69200,-0.19500,84.09000,0.38000
041225_03.43.47.258,-0.16700,-0.90700,0.46500,-19.12800,-3.72700,16.74700,-0.28600,0.69400,-0.18500,84.18000,0.09000
041225_03.43.47.269,-0.07300,-0.85800,0.38800,-16.64200,-13.31800,4.86500,-0.28700,0.68800,-0.19200,83.89000,-0.29000
041225_03.43.47.281,-0.04400,-0.85700,0.39600,-15.64500,-20.35300,2.08200,-0.29200,0.69100,-0.18900,83.74000,-0.15000
041225_03.43.47.292,-0.06400,-0.87300,0.43000,-11.00700,-28.82300,2.06500,-0.28900,0.69200,-0.18300,84.46000,0.72000
041225_03.43.47.303,-0.11000,-0.91600,0.48100,-3.76300,-36.68000,-0.98000,-0.28900,0.69200,-0.18300,83.96000,-0.50000
041225_03.43.47.315,-0.15300,-0.89100,0.49800,-1.89000,-42.84000,-9.15300,-0.28700,0.68900,-0.19000,83.56000,-0.40000
041225_03.43.47.326,-0.15100,-0.82500,0.45800,-3.81500,-56.17500,-21.49000,-0.28500,0.69300,-0.19100,84.08000,0.52000
041225_03.43.47.338,-0.13300,-0.79400,0.39100,-9.10000,-63.64700,-26.93300,-0.28700,0.68700,-0.18600,84.05000,-0.03000
041225_03.43.47.349,-0.23700,-0.81300,0.48700,-22.20800,-58.52000,-32.97000,-0.28700,0.68700,-0.18300,83.55000,-0.50000
041225_03.43.47.361,-0.31800,-0.88300,0.53700,-33.98500,-41.47500,-32.13000,-0.28400,0.68700,-0.18300,84.07000,0.52000
041225_03.43.47.372,-0.28500,-1.01200,0.54400,-38.76300,-31.50000,-26.86200,-0.28000,0.67900,-0.17900,84.31000,0.24000
041225_03.43.47.384,-0.16200,-0.90200,0.42000,-49.96300,-26.14500,-36.50500,-0.28000,0.67300,-0.17800,83.63000,-0.68000
041225_03.43.47.396,-0.09300,-0.81000,0.32900,-56.70000,-23.71200,-47.84500,-0.29100,0.66800,-0.16200,83.16000,-0.47000
041225_03.43.47.407,-0.03200,-0.89600,0.31300,-49.33300,-22.68000,-50.83800,-0.29100,0.66800,-0.16200,83.70000,0.54000
041225_03.43.47.419,-0.06700,-1.04100,0.37200,-40.11000,-20.12500,-48.94700,-0.29300,0.66200,-0.15800,84.55000,0.85000
041225_03.43.47.430,-0.08500,-1.07600,0.41500,-34.19500,-14.19300,-47.18000,-0.29700,0.65600,-0.16400,83.36000,-1.19000
041225_03.43.47.442,-0.07600,-1.04900,0.43700,-31.69300,-3.64000,-42.45500,-0.30300,0.65200,-0.15800,84.35000,0.99000
041225_03.43.47.453,-0.06900,-1.03700,0.48000,-35.21000,10.02800,-36.54000,-0.31100,0.64500,-0.16000,83.83000,-0.52000
041225_03.43.47.464,-0.08800,-1.08700,0.55100,-45.51800,21.80500,-34.24800,-0.31100,0.64500,-0.16000,83.62000,-0.21000
041225_03.43.47.476,-0.10600,-1.15400,0.59500,-77.15800,19.07500,-52.20200,-0.31700,0.63600,-0.14800,83.61000,-0.01000
041225_03.43.47.488,-0.06600,-1.10100,0.52100,-100.25700,18.09500,-66.09800,-0.33000,0.61700,-0.13200,83.28000,-0.33000
041225_03.43.47.499,0.08100,-1.04000,0.40300,-121.10000,20.12500,-78.89000,-0.34200,0.59700,-0.11800,84.30000,1.02000
041225_03.43.47.511,0.12900,-0.98700,0.26300,-128.53800,20.17700,-90.70200,-0.35400,0.57300,-0.11400,84.09000,-0.21000
041225_03.43.47.522,0.15600,-0.98700,0.20100,-126.94500,19.23300,-98.82300,-0.35400,0.57300,-0.11400,83.61000,-0.48000
041225_03.43.47.534,0.13600,-0.97500,0.15700,-123.91800,20.82500,-103.89700,-0.36600,0.54500,-0.09800,82.65000,-0.96000
041225_03.43.47.545,0.12000,-0.91200,0.08800,-117.61800,27.19500,-107.39700,-0.38200,0.51700,-0.08900,84.27000,1.62000
041225_03.43.47.557,0.13300,-0.87400,0.03900,-106.12000,38.06300,-109.58500,-0.39400,0.49800,-0.08900,83.48000,-0.79000
041225_03.43.47.568,0.16300,-0.83600,-0.00900,-94.06300,50.01500,-109.60300,-0.40600,0.47000,-0.09000,84.09000,0.61000
041225_03.43.47.580,0.16500,-0.83100,-0.01900,-85.89000,64.52200,-108.32500,-0.40600,0.47000,-0.09000,83.45000,-0.64000
041225_03.43.47.592,0.29900,-0.93700,0.05100,-80.88500,76.10700,-107.73000,-0.42300,0.45100,-0.08800,83.67000,0.22000
041225_03.43.47.603,0.33700,-0.83900,0.02900,-81.07700,81.90000,-110.25000,-0.44400,0.42500,-0.09400,83.84000,0.17000
041225_03.43.47.615,0.41700,-0.76200,0.00700,-82.25000,83.87800,-99.76800,-0.45100,0.40200,-0.10000,83.94000,0.10000
041225_03.43.47.626,0.49700,-0.80700,-0.05500,-78.27800,63.98000,-97.52800,-0.45100,0.40200,-0.10000,84.25000,0.31000
041225_03.43.47.638,0.65000,-0.35700,-0.44400,-68.16200,50.05000,-84.38500,-0.46600,0.37900,-0.09900,83.30000,-0.95000
041225_03.43.47.649,0.61100,-0.75800,-0.07900,-56.22800,45.55300,-67.37500,-0.47600,0.36400,-0.09800,83.63000,0.33000
041225_03.43.47.661,0.60900,-0.59800,-0.20900,-61.32000,35.45500,-72.18800,-0.48500,0.34600,-0.10100,83.50000,-0.13000
041225_03.43.47.672,0.65100,-0.47100,-0.35500,-53.62000,22.22500,-66.78000,-0.48500,0.33200,-0.10500,83.42000,-0.08000
041225_03.43.47.684,0.95100,-0.16700,-0.63600,-40.11000,3.43000,-59.41200,-0.48500,0.33200,-0.10500,84.22000,0.80000
041225_03.43.47.695,0.86100,0.58000,-0.87400,-0.66500,-34.45800,-56.28000,-0.48700,0.32600,-0.10700,84.14000,-0.08000
041225_03.43.47.707,0.47100,-0.86300,-0.08200,46.62000,-33.96700,-32.18200,-0.47900,0.33400,-0.09800,83.81000,-0.33000
041225_03.43.47.718,0.75300,-1.07600,-0.03200,11.35800,-21.99700,-51.36200,-0.47600,0.32900,-0.09600,82.96000,-0.85000
041225_03.43.47.730,0.71000,-0.30900,-0.48800,-20.30000,-6.33500,-56.28000,-0.47100,0.32500,-0.09300,83.19000,0.23000
041225_03.43.47.742,0.54300,-0.45000,-0.39100,-1.62800,10.44800,-38.57000,-0.47100,0.32500,-0.09300,84.04000,0.85000
041225_03.43.47.753,0.56900,-0.68700,-0.22900,4.74200,21.33300,-36.75000,-0.47600,0.32100,-0.09900,85.19000,1.15000
041225_03.43.47.765,0.66200,-0.76700,-0.18100,-1.89000,40.21500,-38.06300,-0.48000,0.31800,-0.10900,84.18000,-1.01000
041225_03.43.47.776,0.70100,-0.76900,-0.10300,-10.32500,38.34200,-29.66300,-0.47900,0.31700,-0.10800,83.75000,-0.43000
041225_03.43.47.788,0.71000,-0.82100,-0.07900,-8.59200,38.25500,-22.87200,-0.48800,0.31300,-0.11000,83.91000,0.16000
041225_03.43.47.799,0.77100,-0.81300,-0.05900,-8.62700,31.86800,-21.42000,-0.48800,0.31300,-0.11000,83.81000,-0.10000
041225_03.43.47.811,0.78900,-0.80400,-0.00100,-7.59500,20.00300,-21.80500,-0.49100,0.31100,-0.11300,83.66000,-0.15000
041225_03.43.47.822,0.81400,-0.79400,0.02100,-5.75800,8.62700,-22.55800,-0.49000,0.31200,-0.11500,83.53000,-0.13000
041225_03.43.47.833,0.84800,-0.76200,-0.01600,-3.36000,0.49000,-22.03200,-0.48900,0.30700,-0.10900,83.31000,-0.22000
041225_03.43.47.845,0.84200,-0.79800,-0.04100,-1.50500,-1.36500,-20.96500,-0.48900,0.30700,-0.11300,83.67000,0.36000
041225_03.43.47.856,0.89100,-0.88600,-0.14200,0.47200,2.90500,-21.38500,-0.48900,0.30600,-0.11300,83.45000,-0.22000
041225_03.43.47.868,0.59400,-0.70100,0.07800,0.28000,17.60500,-26.86200,-0.49000,0.30100,-0.11100,83.39000,-0.06000
041225_03.43.47.879,0.42900,-0.61200,0.00100,-10.04500,30.62500,-34.87700,-0.49200,0.29900,-0.11400,82.76000,-0.63000
041225_03.43.47.891,0.08000,-1.12200,-0.38800,-19.56500,41.47500,-48.31800,-0.49700,0.29100,-0.12300,83.83000,1.07000
041225_03.43.47.902,0.59000,-0.69700,-0.19900,-9.95800,38.34200,-76.03700,-0.49700,0.29100,-0.12300,83.79000,-0.04000
041225_03.43.47.914,0.73000,-0.53500,0.14200,-24.60500,57.41700,-67.41000,-0.49100,0.28100,-0.12100,83.64000,-0.15000
041225_03.43.47.925,0.80500,-0.51500,-0.14200,-30.69500,47.81000,-59.81500,-0.49800,0.27400,-0.11900,83.61000,-0.03000
041225_03.43.47.937,0.88900,-0.49700,-0.06000,-33.04000,35.00000,-51.94000,-0.49400,0.26100,-0.12400,83.86000,0.25000
041225_03.43.47.948,0.93700,-0.59800,-0.03000,-34.19500,27.98300,-44.48500,-0.49300,0.25100,-0.13300,83.43000,-0.43000
041225_03.43.47.960,1.00200,-0.43900,-0.13000,-38.71000,21.24500,-41.10800,-0.49300,0.25100,-0.13300,84.07000,0.64000
041225_03.43.47.972,0.98100,-0.44700,-0.13700,-37.17000,14.57800,-32.93500,-0.49200,0.23900,-0.12800,84.12000,0.05000
041225_03.43.47.983,0.86200,-0.59600,-0.08700,-37.71300,10.83300,-22.31200,-0.49000,0.23200,-0.13500,83.97000,-0.15000
041225_03.43.47.995,0.79600,-0.52900,-0.11600,-45.71000,14.28000,-15.50500,-0.48600,0.22500,-0.13800,83.77000,-0.20000
041225_03.43.48.006,0.72100,-0.48200,-0.07800,-53.62000,25.91700,-14.33300,-0.49000,0.21600,-0.14600,83.42000,-0.35000
041225_03.43.48.018,0.72400,-0.40200,-0.08500,-57.34700,41.23000,-16.20500,-0.49000,0.21600,-0.14600,84.29000,0.87000
041225_03.43.48.029,0.65900,-0.43700,-0.03200,-64.29500,58.53700,-15.52300,-0.49200,0.20500,-0.15400,83.51000,-0.78000
041225_03.43.48.041,0.69600,-0.23200,0.03300,-69.59800,77.59500,-9.13500,-0.50000,0.19700,-0.16800,83.34000,-0.17000
041225_03.43.48.052,0.77800,-0.23900,-0.01100,-49.91000,84.31500,1.38300,-0.51200,0.19700,-0.16500,83.48000,0.14000
041225_03.43.48.064,0.87800,-0.32100,-0.06200,-20.33500,71.19000,9.88700,-0.51600,0.19400,-0.17700,83.91000,0.43000
041225_03.43.48.075,0.94000,-0.27700,-0.06700,-19.30200,57.80300,11.95300,-0.51600,0.19400,-0.17700,83.91000,0.00000
041225_03.43.48.087,0.95100,-0.35800,-0.00500,-20.10800,44.29200,18.20000,-0.52200,0.19700,-0.17500,84.23000,0.32000
041225_03.43.48.098,0.94000,-0.51800,0.05000,-22.01500,33.04000,24.58700,-0.52300,0.20000,-0.17900,83.37000,-0.86000
041225_03.43.48.110,0.90000,-0.64600,0.03100,-26.77500,25.98700,26.81000,-0.53100,0.20100,-0.17600,83.04000,-0.33000
041225_03.43.48.121,0.88900,-0.68800,0.01500,-32.83000,23.45000,24.16700,-0.53100,0.20100,-0.17600,83.95000,0.91000
041225_03.43.48.133,0.85300,-0.63900,0.02300,-37.11800,24.48300,20.91300,-0.53700,0.20200,-0.17600,83.50000,-0.45000
041225_03.43.48.144,0.88300,-0.49800,0.01700,-43.10300,25.49700,22.64500,-0.54400,0.19900,-0.18500,83.84000,0.34000
041225_03.43.48.156,0.89400,-0.60000,0.01400,-47.11000,21.50700,29.99500,-0.53800,0.19500,-0.18300,83.44000,-0.40000
041225_03.43.48.167,1.08400,-0.45800,0.06400,-52.53500,11.83000,39.86500,-0.54000,0.19500,-0.18800,84.17000,0.73000
041225_03.43.48.179,1.08500,-0.46500,-0.00800,-52.44700,1.43500,49.21000,-0.54000,0.19500,-0.18800,83.76000,-0.41000
041225_03.43.48.190,1.14700,-0.46800,-0.01700,-51.18800,-7.71800,56.54200,-0.54000,0.19100,-0.18800,83.42000,-0.34000
041225_03.43.48.202,1.21900,-0.48000,-0.00100,-48.19500,-30.85300,57.22500,-0.54000,0.18700,-0.18900,84.25000,0.83000
041225_03.43.48.213,1.24000,-0.49800,0.05500,-45.74500,-40.72200,54.00500,-0.54200,0.19000,-0.19400,83.77000,-0.48000
041225_03.43.48.225,1.16500,-0.29000,0.02800,-43.97800,-50.55700,54.65300,-0.54000,0.19300,-0.19200,83.57000,-0.20000
041225_03.43.48.236,1.01800,-0.66400,0.00500,-36.19000,-57.73300,59.51800,-0.54000,0.19300,-0.19200,83.62000,0.05000
041225_03.43.48.248,0.91000,-0.83400,-0.04800,-36.62700,-61.42500,50.34700,-0.53700,0.19400,-0.19000,83.95000,0.33000
041225_03.43.48.259,0.88100,-0.71200,-0.04600,-44.04800,-61.61800,38.01000,-0.53700,0.19200,-0.18700,84.01000,0.06000
041225_03.43.48.271,0.83300,-0.66300,-0.06200,-49.80500,-60.77800,34.12500,-0.52900,0.18400,-0.19000,83.76000,-0.25000
041225_03.43.48.282,0.76000,-0.75500,-0.11700,-52.25500,-58.06500,33.53000,-0.52700,0.18200,-0.19400,84.07000,0.31000
041225_03.43.48.294,0.73800,-0.75300,-0.11900,-55.98300,-51.13500,29.82000,-0.52700,0.18200,-0.19400,83.82000,-0.25000
041225_03.43.48.305,0.72100,-0.70600,-0.13300,-63.43800,-40.42500,23.18700,-0.52400,0.17000,-0.19400,83.77000,-0.05000
041225_03.43.48.317,0.69300,-0.59000,-0.16700,-64.85500,-33.82700,15.54000,-0.52000,0.16400,-0.19700,84.22000,0.45000
041225_03.43.48.328,0.72000,-0.50000,-0.11600,-59.57000,-27.52800,6.24700,-0.51700,0.16300,-0.20600,84.21000,-0.01000
041225_03.43.48.340,0.76600,-0.40800,-0.12600,-52.55300,-23.25700,1.75000,-0.51700,0.16300,-0.21700,84.71000,0.50000
041225_03.43.48.351,0.77200,-0.40700,-0.16400,-29.94300,-15.57500,-7.45500,-0.51900,0.15000,-0.21700,83.88000,-0.83000
041225_03.43.48.363,0.75500,-0.47900,-0.24500,-14.24500,-7.24500,-16.60800,-0.51700,0.15500,-0.21300,84.50000,0.62000
041225_03.43.48.374,0.77400,-0.53300,-0.26200,-1.31200,-0.40300,-27.96500,-0.52100,0.15800,-0.21600,83.94000,-0.56000
041225_03.43.48.386,0.79100,-0.57600,-0.29000,8.13700,5.19800,-40.79200,-0.52600,0.16200,-0.21200,83.11000,-0.83000
041225_03.43.48.397,0.80300,-0.66000,-0.29000,13.40500,8.12000,-52.18500,-0.52600,0.16200,-0.21200,83.33000,0.22000
041225_03.43.48.409,0.75800,-0.65700,-0.26500,14.80500,10.37700,-62.70200,-0.52600,0.16000,-0.21900,83.61000,0.28000
041225_03.43.48.420,0.69600,-0.69100,-0.23100,14.03500,15.50500,-73.16800,-0.52700,0.16400,-0.21000,83.08000,-0.53000
041225_03.43.48.432,0.72600,-0.62000,-0.23500,12.30200,21.19200,-80.64000,-0.52100,0.15400,-0.22000,84.02000,0.94000
041225_03.43.48.443,0.75200,-0.57300,-0.23200,14.10500,22.62800,-83.63200,-0.52000,0.14900,-0.21800,83.71000,-0.31000
041225_03.43.48.455,0.77100,-0.57900,-0.19100,17.43000,19.61800,-83.87800,-0.52000,0.14900,-0.21800,83.12000,-0.59000
041225_03.43.48.466,0.79100,-0.58500,-0.15700,18.69000,12.89800,-81.41000,-0.51300,0.14600,-0.22100,83.47000,0.35000
041225_03.43.48.478,0.84000,-0.67200,-0.25400,15.27800,4.77800,-75.98500,-0.50800,0.14000,-0.21700,83.63000,0.16000
041225_03.43.48.489,0.84400,-0.74800,-0.30700,14.42000,-11.91800,-73.50000,-0.50100,0.13800,-0.22500,83.23000,-0.40000
041225_03.43.48.501,0.78200,-0.73500,-0.29400,-1.59200,-21.73500,-82.75700,-0.49300,0.12600,-0.21800,83.79000,0.56000
041225_03.43.48.512,0.71000,-0.56800,-0.19300,-12.35500,-13.82500,-86.38000,-0.49300,0.12600,-0.21800,83.44000,-0.35000
041225_03.43.48.524,0.65100,-0.47200,-0.16900,-17.95500,-1.99500,-84.70000,-0.48300,0.11800,-0.22200,83.28000,-0.16000
041225_03.43.48.535,0.72500,-0.36000,-0.13200,-14.26200,7.94500,-80.29000,-0.47100,0.10300,-0.21600,83.81000,0.53000
041225_03.43.48.547,0.79900,-0.33200,-0.15000,-7.64800,14.89200,-73.69200,-0.46500,0.09700,-0.22400,83.69000,-0.12000
041225_03.43.48.558,0.85900,-0.37800,-0.18600,-2.80000,25.14800,-68.56500,-0.46500,0.09500,-0.23000,83.47000,-0.22000
041225_03.43.48.570,0.94700,-0.38400,-0.20900,0.56000,36.55700,-69.17700,-0.46200,0.09500,-0.23000,83.65000,0.18000
041225_03.43.48.581,1.00800,-0.38800,-0.21800,5.79300,43.43500,-74.63700,-0.45700,0.09500,-0.23000,83.88000,0.23000
041225_03.43.48.593,0.99300,-0.41400,-0.19500,8.29500,46.34000,-83.79000,-0.45300,0.08600,-0.22800,83.61000,-0.27000
041225_03.43.48.604,0.93300,-0.37600,-0.17400,10.60500,49.33300,-95.32300,-0.44700,0.08000,-0.22700,83.89000,0.28000
041225_03.43.48.616,0.89200,-0.29200,-0.17200,13.93000,57.45200,-105.36800,-0.44700,0.08000,-0.22700,84.10000,0.21000
041225_03.43.48.628,0.94100,-0.22100,-0.18500,16.76500,63.40300,-110.33800,-0.44000,0.07500,-0.22400,83.92000,-0.18000
041225_03.43.48.639,1.01000,-0.21900,-0.19900,18.09500,63.50700,-113.59200,-0.43200,0.07100,-0.22700,83.84000,-0.08000
041225_03.43.48.651,1.03200,-0.22200,-0.19800,18.93500,58.15300,-112.07000,-0.41700,0.06700,-0.22900,83.32000,-0.52000
041225_03.43.48.662,1.10300,-0.17000,-0.15100,19.11000,55.23000,-109.98800,-0.41200,0.06300,-0.22800,84.00000,0.68000
041225_03.43.48.674,1.11500,-0.13100,-0.13100,21.92700,51.08300,-109.14700,-0.41200,0.06300,-0.22800,83.70000,-0.30000
041225_03.43.48.685,1.12000,-0.11000,-0.10500,25.91700,46.83000,-109.84800,-0.40500,0.06200,-0.22500,83.66000,-0.04000
041225_03.43.48.697,1.06000,-0.10100,-0.09300,30.27500,43.24300,-114.29300,-0.39000,0.06100,-0.23300,83.44000,-0.22000
041225_03.43.48.708,1.06700,-0.06400,-0.08600,33.12700,42.73500,-119.36800,-0.37400,0.05500,-0.22300,84.15000,0.71000
041225_03.43.48.720,1.16200,-0.05300,-0.06800,33.98500,42.84000,-118.49300,-0.36200,0.05800,-0.22000,83.14000,-1.01000
041225_03.43.48.731,1.19100,-0.03400,0.00700,34.10800,40.86200,-115.41200,-0.36200,0.05800,-0.22000,83.94000,0.80000
041225_03.43.48.743,0.97600,0.04600,-0.08400,33.16200,38.08000,-112.36800,-0.35100,0.06300,-0.20700,84.23000,0.29000
041225_03.43.48.755,0.88400,0.16000,-0.03000,36.17300,28.14000,-110.89700,-0.33300,0.06100,-0.20600,84.23000,0.00000
041225_03.43.48.766,0.79000,0.18600,0.01000,31.58700,25.62000,-105.28000,-0.31600,0.06500,-0.20700,83.83000,-0.40000
041225_03.43.48.778,0.77500,0.16100,-0.00500,24.95500,25.93500,-99.50500,-0.30300,0.06700,-0.19400,84.06000,0.23000
041225_03.43.48.789,0.76200,0.17400,0.00300,4.65500,20.80800,-92.76800,-0.30300,0.06700,-0.19400,84.08000,0.02000
041225_03.43.48.801,0.73800,0.24300,0.02000,-6.89500,18.06000,-90.59800,-0.29000,0.06900,-0.20100,84.32000,0.24000
041225_03.43.48.812,0.68700,0.36900,0.00000,-15.13700,14.57800,-89.11000,-0.27800,0.06700,-0.19900,83.52000,-0.80000
041225_03.43.48.824,0.70900,0.33400,0.02000,-21.40300,14.80500,-88.39300,-0.26700,0.06700,-0.20400,83.72000,0.20000
041225_03.43.48.835,0.74900,0.40200,0.04600,-28.19300,15.20800,-90.84200,-0.26700,0.06700,-0.20400,83.64000,-0.08000
041225_03.43.48.846,0.78000,0.46500,0.09800,-32.53300,17.08000,-94.13200,-0.25500,0.06900,-0.20300,83.66000,0.02000
041225_03.43.48.858,0.78000,0.48000,0.03200,-32.70800,22.85500,-97.80800,-0.23800,0.06700,-0.19600,84.26000,0.60000
041225_03.43.48.869,0.82500,0.50900,0.07600,-27.66700,24.09700,-100.59000,-0.22400,0.06900,-0.19600,83.44000,-0.82000
041225_03.43.48.881,0.76200,0.55500,0.08200,-22.83700,22.83700,-102.18300,-0.21200,0.07500,-0.19800,83.03000,-0.41000
041225_03.43.48.892,0.72700,0.64300,0.09100,-16.25700,20.94800,-104.17700,-0.21200,0.07500,-0.19800,83.48000,0.45000
041225_03.43.48.904,0.67100,0.74200,0.10900,-10.02800,17.32500,-103.86300,-0.19500,0.07700,-0.19600,83.74000,0.26000
041225_03.43.48.915,0.59700,0.83300,0.10300,-5.39000,15.82000,-99.50500,-0.18800,0.08800,-0.19500,84.22000,0.48000
041225_03.43.48.927,0.52900,0.83400,0.14000,1.64500,15.68000,-91.99700,-0.17900,0.09200,-0.19100,84.50000,0.28000
041225_03.43.48.938,0.46900,0.76600,0.05600,-1.66300,21.68300,-82.86300,-0.16400,0.09300,-0.18800,83.46000,-1.04000
041225_03.43.48.950,0.55500,0.76200,0.07700,2.97500,18.76000,-64.66200,-0.16400,0.09300,-0.18800,83.48000,0.02000
041225_03.43.48.961,0.47700,0.83100,0.08200,1.52300,19.44200,-53.58500,-0.16300,0.10200,-0.18500,84.09000,0.61000
041225_03.43.48.973,0.45300,0.87100,0.07900,3.16800,19.58300,-48.75500,-0.16100,0.10800,-0.18000,83.21000,-0.88000
041225_03.43.48.984,0.37500,0.90400,0.11100,2.31000,23.46800,-53.53300,-0.15600,0.10900,-0.17400,83.27000,0.06000
041225_03.43.48.996,0.35700,1.01800,0.10400,-3.34200,31.81500,-71.90800,-0.15600,0.11700,-0.17000,83.76000,0.49000
041225_03.43.49.007,0.33000,1.00400,0.10200,-0.57700,40.96700,-84.19200,-0.15600,0.11700,-0.17000,83.74000,-0.02000
041225_03.43.49.018,0.37000,0.99900,0.11000,5.02300,48.03700,-87.92000,-0.15000,0.12500,-0.17300,83.37000,-0.37000
041225_03.43.49.030,0.44000,0.92100,0.16700,11.69000,47.00500,-88.48000,-0.15100,0.13300,-0.15700,83.20000,-0.17000
041225_03.43.49.041,0.43900,1.05500,0.17800,14.03500,41.26500,-83.02000,-0.15000,0.14500,-0.15400,83.74000,0.54000
041225_03.43.49.053,0.40700,0.92400,0.15900,19.42500,37.71300,-73.57000,-0.15000,0.14500,-0.15000,84.30000,0.56000
041225_03.43.49.064,0.40500,0.86600,0.13800,22.75000,36.03300,-71.85500,-0.15200,0.15200,-0.15000,83.35000,-0.95000
041225_03.43.49.076,0.36100,0.82600,0.11100,23.92300,35.59500,-77.68300,-0.14900,0.16500,-0.14600,84.48000,1.13000
041225_03.43.49.087,0.34600,0.85600,0.10300,30.11800,37.83500,-84.82300,-0.14900,0.17900,-0.14100,83.93000,-0.55000
041225_03.43.49.099,0.34500,0.77900,0.14100,33.98500,38.01000,-88.28700,-0.14600,0.18500,-0.13500,83.66000,-0.27000
041225_03.43.49.110,0.16700,0.84300,0.05300,33.26800,43.34700,-94.85000,-0.14600,0.18500,-0.13500,83.49000,-0.17000
041225_03.43.49.122,0.23400,1.01200,0.14600,35.10500,48.40500,-91.54300,-0.14700,0.20100,-0.12400,83.41000,-0.08000
041225_03.43.49.133,0.09800,1.13400,-0.00500,38.81500,53.35800,-75.53000,-0.15000,0.20900,-0.12400,83.72000,0.31000
041225_03.43.49.145,-0.07800,1.12700,-0.09100,45.62300,71.12000,-57.76800,-0.16200,0.22300,-0.10900,83.48000,-0.24000
041225_03.43.49.156,-0.04200,0.92200,0.10300,56.24500,83.19500,-53.25200,-0.17200,0.23500,-0.10100,83.34000,-0.14000
041225_03.43.49.168,0.09400,0.84600,0.09800,48.03700,80.65800,-59.83300,-0.17200,0.23500,-0.10100,83.67000,0.33000
041225_03.43.49.179,0.18000,0.82900,0.06100,33.00500,75.32000,-62.79000,-0.18900,0.24600,-0.10000,83.89000,0.22000
041225_03.43.49.191,0.26900,0.84700,0.07500,26.42500,70.26200,-59.01000,-0.19900,0.24900,-0.09800,83.66000,-0.23000
041225_03.43.49.202,0.26000,0.82400,0.04600,27.70200,65.31000,-54.77500,-0.20700,0.26000,-0.08600,83.37000,-0.29000
041225_03.43.49.213,0.18300,0.73100,-0.00500,33.12700,62.51000,-57.80300,-0.21900,0.26800,-0.08700,83.97000,0.60000
041225_03.43.49.225,0.08600,0.69400,0.01400,35.87500,62.70200,-83.54500,-0.21900,0.26800,-0.08700,83.81000,-0.16000
041225_03.43.49.236,-0.01500,0.77200,0.00700,31.36000,64.87200,-90.77200,-0.23400,0.27800,-0.08100,83.35000,-0.46000
041225_03.43.49.248,0.14700,1.01800,0.53100,29.10300,63.07000,-92.76800,-0.24400,0.28600,-0.08000,83.91000,0.56000
041225_03.43.49.259,0.11000,1.34400,0.07800,10.06300,28.59500,-66.90300,-0.25100,0.29000,-0.07800,84.13000,0.22000
041225_03.43.49.271,-0.42500,0.60500,-0.20600,6.63300,40.46000,-57.59200,-0.25100,0.29700,-0.07700,83.46000,-0.67000
041225_03.43.49.282,-0.20400,0.77700,-0.10700,12.51200,56.78700,-95.39300,-0.26400,0.29700,-0.07700,83.92000,0.46000
041225_03.43.49.294,-0.10700,0.87100,-0.01200,11.69000,58.32700,-108.85000,-0.27600,0.29300,-0.07300,83.37000,-0.55000
041225_03.43.49.305,-0.07000,0.73000,0.10800,1.83700,55.70200,-105.14000,-0.28700,0.29300,-0.07000,84.14000,0.77000
041225_03.43.49.317,0.01900,0.71400,0.11200,-14.84000,49.45500,-105.52500,-0.29500,0.28700,-0.07600,83.44000,-0.70000
041225_03.43.49.328,0.03400,0.73200,0.13400,-31.65700,43.61000,-111.56300,-0.29500,0.28700,-0.07600,82.91000,-0.53000
041225_03.43.49.340,0.00500,0.75100,0.10100,-41.45800,40.09200,-121.81700,-0.30300,0.27100,-0.07800,83.24000,0.33000
041225_03.43.49.351,-0.07200,0.79500,0.11400,-37.62500,39.93500,-132.93000,-0.31000,0.26400,-0.07300,83.28000,0.04000
041225_03.43.49.363,-0.15900,0.93400,0.12000,-21.24500,42.08800,-142.10000,-0.32000,0.25600,-0.07200,83.03000,-0.25000
041225_03.43.49.374,-0.19400,1.01500,0.22300,9.85200,32.91700,-137.06000,-0.32300,0.24600,-0.06800,83.54000,0.51000
041225_03.43.49.385,-0.44000,0.81300,0.21200,0.57700,25.46200,-136.72700,-0.32300,0.24600,-0.06800,83.16000,-0.38000
041225_03.43.49.397,-0.68100,0.74500,0.15500,-18.32300,22.59300,-143.15000,-0.32600,0.24500,-0.07100,83.07000,-0.09000
041225_03.43.49.409,-0.84300,0.80700,0.14300,-36.08500,26.18000,-156.10000,-0.32400,0.22900,-0.06900,83.27000,0.20000
041225_03.43.49.420,-0.98700,0.89200,0.15200,-42.52500,32.13000,-172.63700,-0.32200,0.21100,-0.06800,83.15000,-0.12000
041225_03.43.49.432,-1.02500,1.06000,0.13800,-34.03700,34.93000,-184.06500,-0.31400,0.20100,-0.06800,83.18000,0.03000
041225_03.43.49.443,-1.01500,1.01100,0.17100,-17.72800,33.09200,-187.70500,-0.31400,0.20100,-0.06800,82.76000,-0.42000
041225_03.43.49.455,-0.97700,0.98400,0.07800,-3.41200,20.89500,-175.19300,-0.30300,0.19300,-0.06400,83.47000,0.71000
041225_03.43.49.466,-1.04300,1.08500,0.07300,0.59500,2.24000,-137.69000,-0.29000,0.18900,-0.06100,83.45000,-0.02000
041225_03.43.49.478,-0.99100,0.99200,0.11200,-5.14500,-4.07700,-88.00700,-0.28400,0.18500,-0.06100,83.96000,0.51000
041225_03.43.49.489,-1.03000,0.77700,0.19700,-11.32300,-4.48000,-53.41000,-0.28200,0.18300,-0.06800,84.04000,0.08000
041225_03.43.49.501,-1.02100,0.58600,0.18500,-18.53200,-8.05000,-49.80500,-0.28200,0.18300,-0.06800,83.87000,-0.17000
041225_03.43.49.512,-0.97300,0.49700,0.20000,-29.06800,-10.41300,-75.46000,-0.27100,0.17400,-0.06400,83.04000,-0.83000
041225_03.43.49.524,-0.93900,0.42600,0.23600,-51.66000,-14.14000,-78.89000,-0.25900,0.16500,-0.06900,83.50000,0.46000
041225_03.43.49.535,-0.98200,0.30200,0.21100,-57.71500,-17.71000,-89.09200,-0.24800,0.15600,-0.07200,83.54000,0.04000
041225_03.43.49.547,-0.94500,0.32900,0.08100,-59.43000,-19.33700,-103.47800,-0.24800,0.15600,-0.07200,83.22000,-0.32000
041225_03.43.49.558,-0.90400,0.32500,0.00100,-55.31800,-13.84200,-114.27500,-0.23100,0.15500,-0.07200,83.22000,0.00000
041225_03.43.49.570,-0.90200,0.33900,-0.01800,-48.24800,-4.95200,-121.03000,-0.21300,0.14900,-0.07900,83.69000,0.47000
041225_03.43.49.582,-0.91000,0.38600,-0.05100,-39.53300,5.40700,-125.52800,-0.19400,0.15100,-0.07700,83.75000,0.06000
041225_03.43.49.593,-0.93300,0.40800,-0.07800,-28.80500,16.87000,-126.36800,-0.18400,0.15300,-0.07400,82.85000,-0.90000
041225_03.43.49.605,-0.97200,0.39400,-0.06300,-18.04200,28.85800,-122.25500,-0.18400,0.15300,-0.07400,83.19000,0.34000
041225_03.43.49.616,-1.03900,0.34500,-0.02600,-10.02800,37.50200,-114.97500,-0.18000,0.16100,-0.07000,83.98000,0.79000
041225_03.43.49.628,-1.14900,0.24300,-0.02200,-5.86300,41.00200,-105.98000,-0.17300,0.16700,-0.06900,83.31000,-0.67000
041225_03.43.49.640,-1.25700,0.14800,-0.05100,-6.66800,43.55700,-100.41500,-0.17100,0.17200,-0.07100,83.26000,-0.05000
041225_03.43.49.651,-1.26100,0.07100,-0.11200,-9.25700,47.47800,-101.86800,-0.17000,0.18200,-0.06700,83.39000,0.13000
041225_03.43.49.663,-1.19900,-0.02100,-0.16200,-13.89500,58.39700,-110.23200,-0.17000,0.18200,-0.06700,83.39000,0.00000
041225_03.43.49.674,-1.08600,-0.07800,-0.33900,-26.93300,72.97500,-116.39300,-0.17100,0.19100,-0.06400,83.13000,-0.26000
041225_03.43.49.686,-0.94300,-0.14600,-0.39600,-33.47800,97.84200,-123.09500,-0.17400,0.19600,-0.06500,83.77000,0.64000
041225_03.43.49.697,-0.96900,-0.15000,-0.38600,-37.45000,128.22300,-132.38700,-0.18600,0.20400,-0.05600,83.79000,0.02000
041225_03.43.49.709,-0.70900,0.11000,-0.46100,-35.56000,150.62200,-139.98200,-0.20400,0.21300,-0.04900,83.27000,-0.52000
041225_03.43.49.721,-0.61000,0.60200,-0.56900,-12.00500,154.87500,-118.80800,-0.20400,0.21300,-0.04900,83.29000,0.02000
041225_03.43.49.732,-0.99900,0.09600,0.12100,11.79500,126.85700,-70.71700,-0.22600,0.22100,-0.04700,83.75000,0.46000
041225_03.43.49.744,-1.20200,-0.05400,-0.11000,12.91500,82.25000,-30.71200,-0.24000,0.22700,-0.05000,82.89000,-0.86000
041225_03.43.49.755,-1.29900,-0.19900,-0.22100,20.05500,59.01000,-7.21000,-0.25700,0.23600,-0.04900,82.54000,-0.35000
041225_03.43.49.767,-1.33000,-0.05100,-0.24800,27.28200,45.99000,-2.06500,-0.25700,0.24000,-0.04800,83.21000,0.67000
041225_03.43.49.778,-1.23400,0.09400,-0.15700,35.99800,33.07500,5.89800,-0.26500,0.24000,-0.04800,83.58000,0.37000
041225_03.43.49.790,-1.05200,0.06400,-0.15600,46.74300,21.84000,22.27800,-0.27000,0.25300,-0.04300,84.09000,0.51000
041225_03.43.49.801,-0.95100,-0.03900,-0.20900,58.20500,15.20800,38.18500,-0.27900,0.26400,-0.03500,83.17000,-0.92000
041225_03.43.49.813,-0.92600,-0.10700,-0.19400,67.42700,9.08300,43.76800,-0.28600,0.27700,-0.03200,83.11000,-0.06000
041225_03.43.49.824,-0.91700,-0.30900,-0.27200,64.75000,13.93000,31.57000,-0.28600,0.27700,-0.03200,83.39000,0.28000
041225_03.43.49.836,-0.82900,-0.32800,-0.34200,58.99300,26.53000,10.06300,-0.29200,0.29300,-0.03100,82.84000,-0.55000
041225_03.43.49.847,-0.79600,-0.24900,-0.29800,51.85300,42.07000,-11.70800,-0.30500,0.29600,-0.02800,83.11000,0.27000
041225_03.43.49.859,-0.75800,-0.35600,-0.20800,43.47000,46.74300,-29.45200,-0.31100,0.30700,-0.02900,83.22000,0.11000
041225_03.43.49.870,-0.93200,-0.56000,-0.16800,36.87300,30.64200,-52.11500,-0.31800,0.31600,-0.02900,83.40000,0.18000
041225_03.43.49.882,-1.17900,-0.69900,-0.23100,26.91500,9.55500,-85.99500,-0.31800,0.31600,-0.02900,83.76000,0.36000
041225_03.43.49.893,-1.25400,-0.77200,-0.27300,13.68500,-4.58500,-129.09800,-0.31600,0.32800,-0.03500,83.56000,-0.20000
041225_03.43.49.905,-1.17500,-0.70900,-0.32300,-1.99500,-17.36000,-173.56500,-0.31000,0.33400,-0.03500,83.23000,-0.33000
041225_03.43.49.916,-0.97800,-0.66200,-0.33400,-13.19500,-25.93500,-205.04800,-0.30500,0.34200,-0.03800,83.31000,0.08000
041225_03.43.49.928,-0.93300,-0.51000,-0.36600,-20.14200,-27.28200,-227.72800,-0.30400,0.34600,-0.04100,83.37000,0.06000
041225_03.43.49.939,-1.04100,-0.37000,-0.54400,-29.26000,-15.82000,-236.65200,-0.30400,0.34600,-0.04100,83.38000,0.01000
041225_03.43.49.951,-0.97800,-0.34900,-0.58400,-30.01300,2.17000,-198.59000,-0.29700,0.34300,-0.03900,83.96000,0.58000
041225_03.43.49.962,-0.82300,-0.18900,-0.57000,-17.97200,40.05700,-158.62000,-0.30200,0.34200,-0.04300,83.21000,-0.75000
041225_03.43.49.974,-0.69600,-0.16200,-0.31500,-21.57700,56.00000,-107.10000,-0.31200,0.34400,-0.04200,83.37000,0.16000
041225_03.43.49.986,-0.65400,-0.32400,-0.15700,-23.13500,57.55700,-65.99300,-0.32800,0.33800,-0.04400,83.37000,0.00000
041225_03.43.49.997,-0.55700,-0.45000,-0.11500,-20.82500,48.31800,-37.53700,-0.32800,0.33800,-0.04400,83.82000,0.45000
041225_03.43.50.009,-0.50200,-0.59600,-0.17400,-17.95500,34.31800,-18.51500,-0.33500,0.32800,-0.04500,83.63000,-0.19000
041225_03.43.50.020,-0.53800,-0.61600,-0.27200,-17.18500,22.03200,-8.80200,-0.34200,0.33200,-0.04700,84.05000,0.42000
041225_03.43.50.032,-0.59600,-0.66000,-0.37700,-15.43500,13.80700,-7.08800,-0.34400,0.32400,-0.05100,83.19000,-0.86000
041225_03.43.50.043,-0.65000,-0.72600,-0.40800,-12.12700,10.04500,-11.81300,-0.34400,0.32400,-0.05100,83.26000,0.07000
041225_03.43.50.055,-0.66400,-0.76900,-0.44600,-10.60500,9.73000,-18.56700,-0.34800,0.32600,-0.04400,83.62000,0.36000
041225_03.43.50.066,-0.65200,-0.77900,-0.45600,-9.59000,11.14800,-26.32000,-0.35400,0.32800,-0.04500,83.65000,0.03000
041225_03.43.50.078,-0.65100,-0.77900,-0.46500,-9.80000,12.70500,-33.53000,-0.35300,0.32400,-0.04900,83.54000,-0.11000
041225_03.43.50.089,-0.59700,-0.54000,-0.20100,-8.38200,12.98500,-38.76300,-0.35700,0.32100,-0.05200,83.88000,0.34000
041225_03.43.50.101,-0.56100,-0.58100,-0.31300,-3.41200,1.03300,-24.29000,-0.35700,0.32100,-0.05200,82.86000,-1.02000
041225_03.43.50.112,-0.67300,-0.74400,-0.46500,-12.63500,14.59500,-29.47000,-0.35700,0.31800,-0.05500,83.56000,0.70000
041225_03.43.50.124,-0.51800,-0.67400,-0.40700,-13.17700,14.63000,-26.63500,-0.35900,0.31700,-0.05600,83.39000,-0.17000
041225_03.43.50.135,-0.53100,-0.68000,-0.45900,-16.73000,13.45800,-21.03500,-0.36600,0.31200,-0.05800,83.66000,0.27000
041225_03.43.50.147,-0.51400,-0.69400,-0.51200,-20.17700,15.71500,-19.44200,-0.36800,0.31200,-0.06100,84.26000,0.60000
041225_03.43.50.158,-0.49100,-0.67900,-0.51300,-21.49000,17.79800,-20.63200,-0.36800,0.31200,-0.06100,83.68000,-0.58000
041225_03.43.50.170,-0.47800,-0.63000,-0.49400,-20.44000,17.74500,-21.19200,-0.37100,0.30400,-0.06000,83.32000,-0.36000
041225_03.43.50.181,-0.45800,-0.58800,-0.47100,-17.67500,15.57500,-20.03800,-0.37100,0.30400,-0.06700,83.71000,0.39000
041225_03.43.50.193,-0.55500,-0.55300,-0.39900,-14.10500,11.02500,-15.20800,-0.38300,0.29500,-0.06000,84.14000,0.43000
041225_03.43.50.204,-0.47900,-0.70500,-0.69500,-12.89800,9.24000,-6.03700,-0.38400,0.29400,-0.05700,83.47000,-0.67000
041225_03.43.50.216,-0.43100,-0.60900,-0.55800,-16.78200,22.15500,-3.11500,-0.38400,0.29400,-0.05700,83.84000,0.37000
041225_03.43.50.227,-0.31600,-0.48900,-0.46900,-18.76000,24.41300,4.09500,-0.38600,0.28900,-0.05800,83.76000,-0.08000
041225_03.43.50.239,-0.33300,-0.53400,-0.48300,-14.59500,17.44800,13.98300,-0.38900,0.28700,-0.06000,83.74000,-0.02000
041225_03.43.50.250,-0.40500,-0.64300,-0.49300,-13.07300,8.59200,18.14800,-0.39200,0.28400,-0.05400,83.65000,-0.09000
041225_03.43.50.262,-0.47700,-0.77600,-0.61500,-24.79800,19.02300,13.19500,-0.39200,0.28400,-0.06100,83.61000,-0.04000
041225_03.43.50.273,-0.56400,-0.76300,-0.64200,-40.07500,35.78700,6.63300,-0.39100,0.27700,-0.06100,83.39000,-0.22000
041225_03.43.50.285,-0.54300,-0.71500,-0.61400,-48.40500,48.03700,2.41500,-0.40000,0.27000,-0.05900,84.04000,0.65000
041225_03.43.50.296,-0.55200,-0.77700,-0.56900,-51.01300,51.25700,1.57500,-0.41200,0.26800,-0.07200,84.13000,0.09000
041225_03.43.50.308,-0.56800,-0.81000,-0.67300,-58.62500,49.96300,1.85500,-0.41800,0.25700,-0.06700,83.48000,-0.65000
041225_03.43.50.319,-0.48000,-0.76600,-0.72900,-65.95700,54.09200,6.16000,-0.41800,0.25700,-0.06700,83.42000,-0.06000
041225_03.43.50.331,-0.45100,-0.73300,-0.77300,-69.21300,59.83300,7.00000,-0.43000,0.24100,-0.08700,83.27000,-0.15000
041225_03.43.50.342,-0.42400,-0.71700,-0.77500,-72.04800,66.34200,4.04300,-0.44600,0.23200,-0.09100,83.63000,0.36000
041225_03.43.50.354,-0.40200,-0.66700,-0.78400,-76.28300,72.27500,1.52300,-0.45300,0.22400,-0.10000,83.32000,-0.31000
041225_03.43.50.365,-0.37300,-0.68900,-0.81300,-79.20500,79.31000,-0.78800,-0.46900,0.21400,-0.10900,84.58000,1.26000
041225_03.43.50.377,-0.33600,-0.73200,-0.90900,-85.24300,85.76800,-2.27500,-0.46900,0.21400,-0.10900,83.87000,-0.71000
041225_03.43.50.388,-0.30600,-0.73200,-0.86500,-91.22800,93.80000,-5.79300,-0.48600,0.19900,-0.13200,83.27000,-0.60000
041225_03.43.50.400,-0.34000,-0.70900,-0.83700,-98.66500,95.32300,-21.24500,-0.49900,0.18400,-0.14400,83.73000,0.46000
041225_03.43.50.411,-0.35500,-0.55400,-0.87200,-95.93500,92.24300,-28.52500,-0.51300,0.17500,-0.15400,83.79000,0.06000
041225_03.43.50.423,-0.38400,-0.41800,-0.78300,-91.19200,93.95700,-30.29200,-0.51900,0.15800,-0.17200,83.81000,0.02000
041225_03.43.50.434,-0.46900,-0.50700,-0.91800,-88.69000,100.10000,-27.80800,-0.51900,0.15800,-0.17200,83.56000,-0.25000
041225_03.43.50.446,-0.47300,-0.52900,-1.02800,-89.67000,113.15500,-32.93500,-0.53300,0.14600,-0.19100,83.42000,-0.14000
041225_03.43.50.458,-0.15300,-0.40100,-0.78200,-89.88000,124.93300,-42.92800,-0.54600,0.13100,-0.21200,84.08000,0.66000
041225_03.43.50.469,-0.12400,-0.30700,-0.72100,-87.53500,116.62000,-42.82200,-0.55900,0.12200,-0.23600,84.19000,0.11000
041225_03.43.50.481,-0.15600,-0.23400,-0.74300,-80.09800,94.30800,-26.61800,-0.57000,0.11100,-0.25100,83.43000,-0.76000
041225_03.43.50.492,-0.13600,-0.33600,-0.91500,-73.27200,66.50000,-5.16200,-0.57000,0.11100,-0.25100,83.64000,0.21000
041225_03.43.50.504,-0.26100,-0.29700,-1.05500,-65.62500,50.03300,0.24500,-0.57100,0.11800,-0.26300,83.62000,-0.02000
041225_03.43.50.515,-0.02200,-0.31700,-0.77900,-45.04500,31.32500,-22.62800,-0.57100,0.10700,-0.26900,84.14000,0.52000
041225_03.43.50.527,-0.00900,-0.19000,-0.83600,-41.21300,12.95000,-23.81700,-0.57200,0.10400,-0.27300,83.77000,-0.37000
041225_03.43.50.538,-0.06800,-0.24000,-0.93000,-40.72200,6.09000,-10.62300,-0.57200,0.10400,-0.27300,83.59000,-0.18000
041225_03.43.50.550,-0.13700,-0.28100,-0.92400,-36.99500,7.17500,-16.22200,-0.57400,0.10400,-0.28100,83.72000,0.13000
041225_03.43.50.561,-0.04700,-0.31500,-0.88300,-31.09700,-0.01800,-25.16500,-0.57500,0.09600,-0.28500,84.09000,0.37000
041225_03.43.50.573,0.10800,-0.24500,-0.96000,-22.45200,-11.21700,-47.88000,-0.56800,0.09100,-0.28300,83.99000,-0.10000
041225_03.43.50.584,0.11400,-0.13100,-1.06000,-19.79200,-15.66300,-59.62300,-0.55900,0.08500,-0.27600,83.56000,-0.43000
041225_03.43.50.596,0.09100,-0.12900,-1.12900,-22.83700,-6.42300,-53.41000,-0.55900,0.08500,-0.27600,83.30000,-0.26000
041225_03.43.50.607,0.09600,-0.12700,-1.07800,-28.80500,7.56000,-45.01000,-0.55400,0.08300,-0.28000,83.48000,0.18000
041225_03.43.50.619,0.09500,-0.04100,-0.96400,-34.96500,17.01000,-34.86000,-0.55900,0.07200,-0.29100,83.65000,0.17000
041225_03.43.50.630,-0.06400,-0.32300,-0.93700,-37.45000,17.69200,-21.47200,-0.55500,0.07100,-0.29500,83.81000,0.16000
041225_03.43.50.642,-0.00200,-0.01500,-1.05600,-49.40300,22.99500,-12.05700,-0.55900,0.06400,-0.30200,83.75000,-0.06000
041225_03.43.50.654,0.00600,0.06000,-0.87600,-46.86500,23.85300,-5.25000,-0.55900,0.06400,-0.30200,83.72000,-0.03000
041225_03.43.50.665,-0.04100,0.03600,-0.77800,-44.48500,28.40300,-0.28000,-0.56400,0.06000,-0.31400,84.21000,0.49000
041225_03.43.50.677,-0.01100,0.17000,-0.81800,-44.43200,36.03300,1.27800,-0.56200,0.06400,-0.31900,83.94000,-0.27000
041225_03.43.50.688,-0.04700,0.11000,-0.79500,-47.54800,61.00500,17.62200,-0.56800,0.06200,-0.33100,83.49000,-0.45000
041225_03.43.50.700,0.00400,0.02200,-0.94200,-45.29000,71.54000,22.22500,-0.57500,0.05900,-0.35200,83.68000,0.19000
041225_03.43.50.711,0.06400,-0.10400,-0.98000,-41.51000,74.02500,20.14200,-0.57500,0.05900,-0.35200,83.38000,-0.30000
041225_03.43.50.723,0.06100,-0.15100,-1.07200,-47.30300,85.31300,21.03500,-0.57900,0.06300,-0.37100,83.57000,0.19000
041225_03.43.50.734,0.17700,-0.03400,-0.91000,-58.74800,102.93500,26.68700,-0.58900,0.06300,-0.39200,84.05000,0.48000
041225_03.43.50.746,0.25600,-0.66400,-1.23100,-60.37500,110.72300,25.27000,-0.59400,0.07200,-0.41600,83.28000,-0.77000
041225_03.43.50.757,0.57200,0.02600,-1.15600,-70.85700,132.47500,-15.68000,-0.59400,0.07200,-0.44100,83.43000,0.15000
041225_03.43.50.769,0.22900,0.33400,-0.77200,-63.85800,119.08800,-16.20500,-0.59800,0.06300,-0.44100,83.80000,0.37000
041225_03.43.50.781,-0.02700,0.21800,-0.71900,-50.43500,73.25500,14.64800,-0.59500,0.07400,-0.44100,83.55000,-0.25000
041225_03.43.50.792,0.15800,0.05500,-0.98400,-32.27000,40.79200,23.11800,-0.59800,0.07400,-0.45600,83.33000,-0.22000
041225_03.43.50.804,0.38600,0.04200,-0.95200,-21.52500,32.23500,10.44800,-0.60000,0.07400,-0.46200,83.25000,-0.08000
041225_03.43.50.815,0.42100,0.04000,-0.92500,-15.87300,29.01500,0.15700,-0.60000,0.07400,-0.46200,83.77000,0.52000
041225_03.43.50.826,0.42500,0.01800,-0.94200,-16.83500,28.21000,-4.34000,-0.60000,0.08100,-0.46800,83.67000,-0.10000
041225_03.43.50.838,0.41200,0.04000,-0.94300,-21.94500,37.62500,-11.63700,-0.60000,0.07900,-0.47900,84.38000,0.71000
041225_03.43.50.849,0.49900,0.02200,-0.94200,-22.19000,46.46300,-18.72500,-0.59900,0.07700,-0.48400,83.85000,-0.53000
041225_03.43.50.861,0.41000,0.12600,-0.94200,-25.86500,63.50700,-26.21500,-0.59600,0.07400,-0.49300,83.87000,0.02000
041225_03.43.50.872,0.35900,0.14700,-0.97200,-33.54800,76.07300,-16.59000,-0.59600,0.07400,-0.49300,84.38000,0.51000
041225_03.43.50.884,0.35100,0.20700,-0.94200,-38.83300,83.73800,-1.90800,-0.59000,0.07400,-0.50900,84.46000,0.08000
041225_03.43.50.895,0.17300,0.33400,-0.82600,-45.36000,82.32000,6.00300,-0.59000,0.07900,-0.52100,83.41000,-1.05000
041225_03.43.50.907,0.44400,0.08400,-0.82200,-46.41000,79.18800,16.46800,-0.59300,0.08800,-0.53700,82.95000,-0.46000
041225_03.43.50.918,0.50300,-0.00100,-0.97500,-40.23300,76.96500,33.18000,-0.59000,0.09100,-0.55200,83.84000,0.89000
041225_03.43.50.930,0.46600,0.10600,-0.85300,-37.59000,71.26000,37.13500,-0.59000,0.09100,-0.55200,83.83000,-0.01000
041225_03.43.50.941,0.51500,0.14900,-0.80800,-31.36000,66.95500,38.06300,-0.59300,0.10100,-0.55800,83.48000,-0.35000
041225_03.43.50.953,0.58400,0.11300,-0.83700,-21.77000,60.48000,34.12500,-0.59500,0.10400,-0.57000,84.04000,0.56000
041225_03.43.50.964,0.64100,0.04400,-0.89800,-11.67200,49.66500,20.40500,-0.59700,0.10700,-0.57900,83.66000,-0.38000
041225_03.43.50.976,0.36100,0.01300,-0.91300,-7.01700,43.73300,-15.62800,-0.59700,0.10800,-0.58400,84.19000,0.53000
041225_03.43.50.987,0.26300,0.15900,-0.60700,-14.59500,85.54000,-36.97800,-0.59300,0.10800,-0.58400,83.24000,-0.95000
041225_03.43.50.998,0.55800,0.31200,-0.53500,-22.27800,70.07000,-27.77300,-0.58400,0.10600,-0.59800,83.54000,0.30000
041225_03.43.51.010,0.72700,0.17200,-0.57100,-23.71200,61.28500,-20.17700,-0.57300,0.10700,-0.60600,83.68000,0.14000
041225_03.43.51.021,0.48300,0.21000,-0.84100,-28.57700,57.06800,-12.81000,-0.57300,0.10400,-0.61700,83.82000,0.14000
041225_03.43.51.033,0.53600,0.14500,-0.84300,-33.49500,65.88700,-10.06300,-0.57300,0.10400,-0.61700,83.79000,-0.03000
041225_03.43.51.045,0.50800,0.19400,-0.79800,-32.56800,83.96500,-3.69300,-0.56400,0.10400,-0.63200,83.21000,-0.58000
041225_03.43.51.056,0.64900,0.17100,-0.72500,-29.66300,110.91500,6.09000,-0.55500,0.10900,-0.64700,82.79000,-0.42000
041225_03.43.51.067,0.87600,0.33900,-0.48500,-27.38800,118.77200,5.09300,-0.54200,0.11600,-0.66200,84.29000,1.50000
041225_03.43.51.079,0.83700,0.43300,-0.49800,-23.94000,99.10300,-8.99500,-0.52900,0.11500,-0.66800,83.41000,-0.88000
041225_03.43.51.090,0.62700,0.30000,-0.60300,-22.78500,83.87800,-21.75300,-0.52900,0.11500,-0.66800,83.62000,0.21000
041225_03.43.51.102,0.61400,0.21300,-0.60200,-29.45200,90.58000,-25.83000,-0.51800,0.11000,-0.68700,83.48000,-0.14000
041225_03.43.51.113,0.60600,0.23400,-0.56000,-30.06500,99.78500,-28.68300,-0.49700,0.11100,-0.69500,83.95000,0.47000
041225_03.43.51.125,0.66000,0.22400,-0.65400,-15.57500,117.93300,-34.68500,-0.48000,0.11400,-0.70800,84.10000,0.15000
041225_03.43.51.136,0.64000,0.24300,-0.37000,-17.76300,131.89800,-35.12300,-0.45700,0.11000,-0.71900,83.11000,-0.99000
041225_03.43.51.148,0.71700,0.30000,0.02000,-21.96200,120.80200,-36.50500,-0.45700,0.11000,-0.71900,84.50000,1.39000
041225_03.43.51.159,0.65600,0.36800,0.32000,-47.40800,92.69800,-46.70800,-0.43300,0.11100,-0.73100,83.92000,-0.58000
041225_03.43.51.171,1.00400,0.50700,-0.27800,-70.43800,69.42300,-43.87300,-0.41000,0.11300,-0.74600,84.48000,0.56000
041225_03.43.51.182,0.82000,0.50000,-0.31800,-67.06000,65.32700,-29.33000,-0.40100,0.12400,-0.75400,83.58000,-0.90000
041225_03.43.51.194,0.96500,0.58900,-0.14900,-89.35500,79.69500,-19.42500,-0.38600,0.13500,-0.76700,84.00000,0.42000
041225_03.43.51.205,1.00200,0.59100,0.04900,-107.66000,78.40000,-8.06800,-0.38600,0.13500,-0.76700,83.93000,-0.07000
041225_03.43.51.217,0.85400,0.47700,-0.09600,-109.63700,62.09000,1.96000,-0.37000,0.15200,-0.79000,83.99000,0.06000
041225_03.43.51.228,0.74200,0.37200,-0.29800,-92.59200,52.64000,3.76300,-0.35700,0.16200,-0.80200,83.90000,-0.09000
041225_03.43.51.240,0.78100,0.31100,-0.33000,-71.33000,54.02200,-3.53500,-0.34200,0.17500,-0.80900,83.36000,-0.54000
041225_03.43.51.251,0.88800,0.31200,-0.27100,-54.33800,58.99300,-10.83300,-0.34200,0.17500,-0.80900,83.79000,0.43000
041225_03.43.51.263,0.88000,0.30700,-0.19400,-47.09200,65.22300,-19.23300,-0.32500,0.18100,-0.80900,84.22000,0.43000
041225_03.43.51.274,0.82800,0.26700,-0.16900,-59.72800,88.79500,-47.16200,-0.31100,0.18300,-0.82000,83.80000,-0.42000
041225_03.43.51.286,0.68800,0.25600,-0.04500,-72.73000,104.73800,-68.00500,-0.28500,0.19700,-0.82500,83.63000,-0.17000
041225_03.43.51.297,0.82700,0.51100,0.10100,-65.80000,106.90800,-75.95000,-0.25500,0.20700,-0.82200,83.93000,0.30000
041225_03.43.51.309,0.90600,0.74300,0.17900,-41.77200,97.17700,-66.04500,-0.25500,0.20700,-0.82200,83.39000,-0.54000
041225_03.43.51.320,0.88700,0.74000,0.17500,-9.52000,84.91000,-45.08000,-0.23600,0.20900,-0.82100,83.98000,0.59000
041225_03.43.51.332,0.78800,0.62900,0.21200,5.26700,77.36800,-30.31000,-0.21800,0.20300,-0.81800,83.96000,-0.02000
041225_03.43.51.343,0.71700,0.52900,0.33800,3.57000,68.49500,-25.34000,-0.19200,0.20100,-0.81600,83.56000,-0.40000
041225_03.43.51.354,0.69900,0.52000,0.30100,3.90200,56.38500,-25.56700,-0.18700,0.20300,-0.81100,83.17000,-0.39000
041225_03.43.51.366,0.68900,0.51000,0.19300,12.89800,48.24800,-28.14000,-0.18700,0.20300,-0.81100,83.00000,-0.17000
041225_03.43.51.377,0.61100,0.37100,0.07900,20.37000,51.46700,-38.16700,-0.16700,0.20100,-0.80600,83.55000,0.55000
041225_03.43.51.389,0.67000,0.32600,0.11100,19.63500,68.79300,-56.84000,-0.14000,0.19300,-0.80000,83.90000,0.35000
041225_03.43.51.400,0.82800,0.49400,0.21300,38.01000,75.75700,-67.25300,-0.12200,0.18600,-0.78800,83.45000,-0.45000
041225_03.43.51.412,0.92500,0.56100,0.21700,67.84800,69.98200,-78.10300,-0.09600,0.17300,-0.77800,83.81000,0.36000
041225_03.43.51.423,0.96600,0.20000,0.24500,38.64000,87.18500,-70.50700,-0.09600,0.17300,-0.77800,84.29000,0.48000
041225_03.43.51.435,0.49500,0.66600,0.08700,-9.32800,116.18300,-69.16000,-0.07500,0.16600,-0.76900,84.72000,0.43000
041225_03.43.51.446,0.58800,0.84600,0.36900,-9.38000,128.38000,-76.63200,-0.05300,0.16900,-0.76000,83.83000,-0.89000
041225_03.43.51.458,0.56400,1.07800,0.51500,-10.18500,134.08500,-70.38500,-0.02200,0.17300,-0.74000,83.81000,-0.02000
041225_03.43.51.469,0.41800,1.03200,0.72900,-18.11200,133.99700,-55.33500,-0.02200,0.17600,-0.73000,83.80000,-0.01000
041225_03.43.51.481,0.36600,0.91700,0.75900,-22.20800,120.99500,-45.69300,0.00300,0.17600,-0.73000,83.36000,-0.44000
041225_03.43.51.492,0.36300,0.84400,0.86800,-21.94500,102.23500,-41.44000,0.02300,0.17700,-0.71700,83.94000,0.58000
041225_03.43.51.504,0.39200,0.79700,0.90000,-19.93300,76.61500,-40.16200,0.03700,0.18400,-0.70700,83.73000,-0.21000
041225_03.43.51.515,0.42300,0.81800,0.82500,-15.38200,49.24500,-40.26800,0.04900,0.18500,-0.70000,83.38000,-0.35000
041225_03.43.51.527,0.41200,0.76500,0.73700,-9.13500,28.43700,-38.46500,0.04900,0.18500,-0.70000,83.75000,0.37000
041225_03.43.51.538,0.42000,0.70100,0.58300,-2.43300,16.17000,-38.64000,0.04900,0.19100,-0.69700,83.72000,-0.03000
041225_03.43.51.549,0.41600,0.67100,0.50300,4.46300,14.45500,-38.22000,0.05400,0.19200,-0.69500,83.53000,-0.19000
041225_03.43.51.561,0.46300,0.76500,0.45700,10.79700,33.00500,-34.93000,0.06200,0.19200,-0.68700,83.49000,-0.04000
041225_03.43.51.572,0.50900,0.87100,0.66600,9.76500,39.27000,-29.29500,0.06700,0.19100,-0.68200,83.98000,0.49000
041225_03.43.51.584,0.41400,0.84200,0.57300,7.40300,37.97500,-26.14500,0.06700,0.19100,-0.68200,83.68000,-0.30000
041225_03.43.51.595,0.27200,0.76700,0.43200,16.32700,42.28000,-30.01300,0.07300,0.19200,-0.67700,83.46000,-0.22000
041225_03.43.51.606,0.30100,1.00600,0.76100,15.31300,46.37500,-32.34000,0.08000,0.19300,-0.66700,83.47000,0.01000
041225_03.43.51.618,0.30300,1.06000,0.63500,8.73300,36.83800,-38.83300,0.08400,0.19600,-0.66000,83.47000,0.00000
041225_03.43.51.630,0.47900,1.09900,0.73000,8.97700,31.69300,-39.18200,0.08900,0.19700,-0.65200,83.95000,0.48000
041225_03.43.51.641,0.42300,0.97000,0.94000,12.19800,18.63800,-36.43500,0.08900,0.19700,-0.65200,83.30000,-0.65000
041225_03.43.51.652,0.35900,0.80500,0.82400,18.42700,-4.28700,-41.24800,0.09000,0.21000,-0.65500,83.67000,0.37000
041225_03.43.51.664,0.32800,0.78200,0.45600,44.01300,-6.61500,-49.47200,0.09300,0.21100,-0.65800,82.97000,-0.70000
041225_03.43.51.675,0.45600,0.88100,0.64400,60.65500,10.90300,-57.71500,0.09800,0.21700,-0.65100,84.00000,1.03000
041225_03.43.51.687,0.25200,1.01900,0.55800,58.11800,10.92000,-65.01200,0.10300,0.22800,-0.64700,83.63000,-0.37000
041225_03.43.51.698,0.23700,1.06500,0.33000,49.87500,14.70000,-69.72000,0.10300,0.22800,-0.64700,84.61000,0.98000
041225_03.43.51.710,0.23200,0.92400,0.27100,34.84200,52.48300,-62.47500,0.10800,0.22700,-0.64200,83.30000,-1.31000
041225_03.43.51.721,0.12700,0.98000,0.29300,26.12800,60.67300,-56.85800,0.11800,0.24100,-0.63600,83.99000,0.69000
041225_03.43.51.733,0.14800,0.93100,0.35600,19.68700,62.37000,-52.20200,0.12600,0.24800,-0.62700,83.55000,-0.44000
041225_03.43.51.744,0.17600,0.93500,0.40500,17.37800,59.60500,-48.14300,0.12600,0.24800,-0.62700,83.52000,-0.03000
041225_03.43.51.756,0.18200,0.95600,0.43100,19.02300,53.70800,-46.00700,0.13300,0.25600,-0.61300,83.88000,0.36000
041225_03.43.51.767,0.13400,0.95000,0.40300,22.50500,47.39000,-46.53300,0.13600,0.26300,-0.61200,83.94000,0.06000
041225_03.43.51.779,0.07500,0.95300,0.34100,26.70500,43.73300,-47.16200,0.13900,0.27100,-0.60700,84.06000,0.12000
041225_03.43.51.790,0.06300,0.96700,0.31800,30.31000,43.31300,-46.56800,0.14600,0.27800,-0.60200,84.11000,0.05000
041225_03.43.51.802,0.05500,0.95800,0.34900,33.61800,42.24500,-44.50200,0.14600,0.27800,-0.60200,83.80000,-0.31000
041225_03.43.51.813,0.12300,0.92000,0.34300,36.92500,40.51300,-41.68500,0.15300,0.27900,-0.59400,83.76000,-0.04000
041225_03.43.51.824,0.18900,0.88100,0.35200,43.76800,37.94000,-48.05500,0.15500,0.29100,-0.58600,83.93000,0.17000
041225_03.43.51.836,0.01600,0.93600,0.31200,51.17000,35.50700,-56.24500,0.15700,0.29800,-0.59200,83.72000,-0.21000
041225_03.43.51.847,0.01300,0.92100,0.29300,54.25000,35.38500,-58.81800,0.16000,0.30700,-0.57800,83.69000,-0.03000
041225_03.43.51.859,-0.06800,0.95600,0.22700,58.83500,31.41300,-60.32300,0.16000,0.30700,-0.57800,83.79000,0.10000
041225_03.43.51.870,-0.13400,0.91300,0.13500,59.01000,33.26800,-55.89500,0.16000,0.31600,-0.57400,83.47000,-0.32000
041225_03.43.51.882,-0.16200,0.93100,0.13200,58.11800,36.76800,-50.62700,0.16200,0.32100,-0.57400,83.74000,0.27000
041225_03.43.51.893,-0.17000,0.93300,0.12200,56.56000,42.47200,-49.33300,0.16100,0.32600,-0.56700,84.14000,0.40000
041225_03.43.51.905,-0.13500,0.92700,0.14000,57.62700,45.71000,-51.97500,0.16800,0.33400,-0.56300,84.40000,0.26000
041225_03.43.51.916,-0.15800,0.90100,0.12200,65.13500,38.22000,-51.15300,0.16800,0.33400,-0.56300,83.42000,-0.98000
041225_03.43.51.928,-0.18500,0.93200,0.03300,68.21500,35.29800,-49.35000,0.16800,0.34500,-0.55800,84.03000,0.61000
041225_03.43.51.939,-0.18700,0.94700,0.00100,68.14500,39.58500,-46.60300,0.16900,0.34400,-0.55400,83.76000,-0.27000
041225_03.43.51.951,-0.23700,0.93000,-0.03800,68.53000,41.77200,-40.26800,0.16900,0.35100,-0.54800,83.89000,0.13000
041225_03.43.51.962,-0.22500,0.93100,-0.05900,67.13000,45.51800,-36.05000,0.16900,0.35100,-0.54300,84.27000,0.38000
041225_03.43.51.974,-0.22700,0.92500,-0.04000,68.63500,45.64000,-34.00200,0.16800,0.35900,-0.54300,83.36000,-0.91000
041225_03.43.51.985,-0.24400,0.93100,-0.05100,71.05000,43.76800,-32.86500,0.17100,0.36000,-0.53200,84.01000,0.65000
041225_03.43.51.997,-0.27300,0.91500,-0.09100,75.21500,40.30300,-24.44800,0.16900,0.36300,-0.52700,83.65000,-0.36000
041225_03.43.52.008,-0.26500,0.89600,-0.18800,80.83200,40.72200,-19.39000,0.16900,0.36700,-0.52300,83.86000,0.21000
041225_03.43.52.020,-0.26900,0.91100,-0.22200,79.95700,41.33500,-16.88800,0.16900,0.36700,-0.52300,83.44000,-0.42000
041225_03.43.52.031,-0.26500,0.88700,-0.25000,78.97800,42.36800,-14.57800,0.17200,0.36900,-0.51300,84.38000,0.94000
041225_03.43.52.042,-0.26900,0.87100,-0.28600,77.35000,45.23700,-12.19800,0.17300,0.36300,-0.50200,83.92000,-0.46000
041225_03.43.52.054,-0.27300,0.86800,-0.31200,75.32000,49.36800,-10.95500,0.17100,0.36900,-0.49600,83.75000,-0.17000
041225_03.43.52.065,-0.27000,0.85900,-0.32000,73.74500,51.78300,-7.17500,0.17500,0.36500,-0.49100,83.46000,-0.29000
041225_03.43.52.077,-0.26500,0.79400,-0.36800,74.88200,51.53700,-0.77000,0.17500,0.36500,-0.49100,83.39000,-0.07000
041225_03.43.52.088,-0.25100,0.78600,-0.39900,75.61800,54.16200,3.29000,0.17100,0.36400,-0.48100,83.81000,0.42000
041225_03.43.52.100,-0.26800,0.79500,-0.38100,76.54500,58.87000,5.98500,0.17400,0.36100,-0.46900,84.89000,1.08000
041225_03.43.52.111,-0.24700,0.78400,-0.31500,78.31300,64.31300,8.36500,0.17000,0.36200,-0.45700,83.96000,-0.93000
041225_03.43.52.123,-0.25900,0.78500,-0.27400,82.98500,68.21500,10.53500,0.16900,0.35400,-0.44500,83.37000,-0.59000
041225_03.43.52.134,-0.29100,0.78600,-0.25900,89.82700,70.75300,12.63500,0.16900,0.35400,-0.44500,84.24000,0.87000
041225_03.43.52.146,-0.29500,0.77300,-0.23700,106.61000,76.24700,23.25700,0.16800,0.35500,-0.43800,84.41000,0.17000
041225_03.43.52.157,-0.27500,0.77400,-0.49700,113.64500,73.71000,27.51000,0.17200,0.35000,-0.42400,84.15000,-0.26000
041225_03.43.52.169,-0.38600,0.72900,-0.73000,115.93800,73.51800,28.73500,0.16600,0.34300,-0.40500,84.00000,-0.15000
041225_03.43.52.180,-0.18800,0.84500,-0.47900,101.25500,92.12000,32.98700,0.16600,0.34100,-0.39100,83.98000,-0.02000
041225_03.43.52.191,-0.12400,0.77100,-0.44700,95.06000,99.82000,40.84500,0.16300,0.34100,-0.39100,83.46000,-0.52000
041225_03.43.52.203,-0.09400,0.73300,-0.48800,99.45200,92.80200,38.58800,0.16000,0.33900,-0.37700,83.98000,0.52000
041225_03.43.52.214,-0.08500,0.76200,-0.54800,104.26500,88.70700,34.02000,0.15600,0.33200,-0.35500,83.77000,-0.21000
041225_03.43.52.226,-0.06400,0.73900,-0.64500,103.84500,89.16200,33.32000,0.15000,0.33300,-0.33400,83.96000,0.19000
041225_03.43.52.237,0.03800,0.69900,-0.70200,101.13200,92.41800,32.67300,0.15000,0.33300,-0.33400,83.30000,-0.66000
041225_03.43.52.249,0.12500,0.68200,-0.75400,99.73200,93.66000,29.59300,0.14000,0.33100,-0.31800,83.64000,0.34000
041225_03.43.52.260,0.13100,0.68400,-0.79300,97.40500,93.08200,24.11500,0.13400,0.33100,-0.30600,83.71000,0.07000
041225_03.43.52.272,0.09000,0.68700,-0.81300,91.45500,95.88200,21.14000,0.12500,0.33300,-0.28400,84.18000,0.47000
041225_03.43.52.283,0.07300,0.66600,-0.81300,84.24500,99.64500,19.63500,0.11600,0.33800,-0.26300,83.91000,-0.27000
041225_03.43.52.295,0.07900,0.62600,-0.80000,77.49000,99.90800,22.90700,0.11600,0.33800,-0.26300,84.32000,0.41000
041225_03.43.52.306,0.04900,0.55000,-0.78900,77.85700,99.66200,28.59500,0.10600,0.33300,-0.25300,83.63000,-0.69000
041225_03.43.52.318,0.09300,0.47600,-0.76000,81.30500,96.56500,33.14500,0.09500,0.33500,-0.23100,83.67000,0.04000
041225_03.43.52.329,0.19700,0.43700,-0.71800,86.06500,92.55800,35.12300,0.08100,0.33800,-0.22400,84.11000,0.44000
041225_03.43.52.340,0.29900,0.39800,-0.69000,91.98000,87.78000,34.80700,0.06600,0.34100,-0.21300,84.81000,0.70000
041225_03.43.52.352,0.39300,0.34100,-0.70000,97.38700,83.80800,32.30500,0.06600,0.34100,-0.21300,84.24000,-0.57000
041225_03.43.52.363,0.35000,0.35700,-0.84000,98.92700,81.13000,29.19000,0.05900,0.34400,-0.19400,84.46000,0.22000
041225_03.43.52.375,0.37600,0.29800,-0.84500,95.90000,83.21300,26.98500,0.04600,0.35100,-0.17700,83.58000,-0.88000
041225_03.43.52.386,0.39100,0.28500,-0.84300,93.92300,85.90800,25.41000,0.03800,0.36000,-0.16700,83.72000,0.14000
041225_03.43.52.398,0.41800,0.23000,-0.83300,91.63000,87.22000,26.82700,0.02200,0.37200,-0.15600,84.06000,0.34000
041225_03.43.52.409,0.47500,0.20300,-0.76500,93.60700,86.76500,25.70800,0.02200,0.37200,-0.15600,84.18000,0.12000
041225_03.43.52.420,0.53200,0.20900,-0.76600,95.34000,83.07300,25.39200,0.00500,0.38000,-0.14600,83.53000,-0.65000
041225_03.43.52.432,0.50200,0.11600,-0.81100,94.36000,74.86500,20.70200,-0.01000,0.39400,-0.13400,84.06000,0.53000
041225_03.43.52.443,0.49300,0.12000,-0.90200,90.94800,71.12000,21.57700,-0.02000,0.40600,-0.12900,83.88000,-0.18000
041225_03.43.52.455,0.44900,0.07600,-0.81900,86.36300,74.00700,25.27000,-0.02000,0.40600,-0.12900,83.45000,-0.43000
041225_03.43.52.466,0.43400,0.03700,-0.73300,83.24700,76.70200,30.25700,-0.03400,0.41500,-0.12200,84.02000,0.57000
041225_03.43.52.478,0.46600,-0.00500,-0.66000,85.96000,76.82500,34.61500,-0.04100,0.43000,-0.11000,83.62000,-0.40000
041225_03.43.52.489,0.49500,-0.03100,-0.62700,91.80500,76.37000,38.06300,-0.06000,0.43700,-0.10800,83.67000,0.05000
041225_03.43.52.501,0.54200,-0.08000,-0.59400,98.47300,79.10000,41.09000,-0.07400,0.45400,-0.10400,83.71000,0.04000
041225_03.43.52.512,0.56400,-0.10800,-0.53100,106.41800,82.33800,45.74500,-0.07400,0.45400,-0.10400,84.14000,0.43000
041225_03.43.52.524,0.56500,-0.15000,-0.55300,114.48500,83.80800,51.88800,-0.08300,0.47000,-0.09700,84.06000,-0.08000
041225_03.43.52.535,0.57300,-0.20300,-0.55200,121.71300,86.29300,57.27800,-0.10000,0.48200,-0.09300,83.51000,-0.55000
041225_03.43.52.547,0.59500,-0.24200,-0.52000,127.36500,89.67000,61.86200,-0.10900,0.50500,-0.09500,83.68000,0.17000
041225_03.43.52.558,0.60600,-0.28700,-0.51400,130.72500,93.17000,65.52000,-0.12800,0.52100,-0.09100,84.51000,0.83000
041225_03.43.52.570,0.64900,-0.35200,-0.49900,132.40500,95.76000,67.27000,-0.12800,0.52100,-0.09100,84.44000,-0.07000
041225_03.43.52.581,0.70800,-0.42500,-0.46400,140.10500,97.30000,75.18000,-0.13900,0.55100,-0.09300,83.64000,-0.80000
041225_03.43.52.593,0.73200,-0.53200,-0.38700,143.74500,94.46500,78.45200,-0.15100,0.57100,-0.10200,84.43000,0.79000
041225_03.43.52.604,0.76800,-0.61800,-0.42900,144.34000,89.04000,76.96500,-0.15700,0.59700,-0.10500,83.77000,-0.66000
041225_03.43.52.616,0.79000,-0.64900,-0.43300,144.28800,87.27200,73.71000,-0.16900,0.61700,-0.11900,84.28000,0.51000
041225_03.43.52.627,0.77900,-0.67500,-0.39400,142.53800,85.76800,71.73200,-0.16900,0.61700,-0.11900,84.19000,-0.09000
041225_03.43.52.639,0.74200,-0.71200,-0.35100,137.88300,81.98800,69.86000,-0.17400,0.63500,-0.13200,83.90000,-0.29000
041225_03.43.52.650,0.73900,-0.70800,-0.33500,131.46000,76.17700,67.91800,-0.17500,0.65600,-0.14500,83.65000,-0.25000
041225_03.43.52.661,0.74000,-0.76200,-0.32900,124.32000,68.65300,64.48800,-0.17600,0.67400,-0.15700,83.45000,-0.20000
041225_03.43.52.673,0.81200,-0.81000,-0.31900,118.19500,61.75700,60.46300,-0.17600,0.67400,-0.16600,83.95000,0.50000
041225_03.43.52.684,0.97200,-0.76400,-0.31800,113.54000,55.31800,55.03700,-0.17300,0.69000,-0.16600,83.92000,-0.03000
041225_03.43.52.696,0.96000,-0.73000,-0.23500,110.39000,48.70200,47.02200,-0.17400,0.69800,-0.18400,83.74000,-0.18000
041225_03.43.52.707,0.83700,-0.74500,-0.25500,101.41200,45.41200,51.57200,-0.16800,0.71400,-0.19500,83.66000,-0.08000
041225_03.43.52.719,0.77300,-0.73900,-0.23000,89.88000,39.60300,52.51800,-0.16600,0.71700,-0.20400,83.76000,0.10000
041225_03.43.52.731,0.71400,-0.74600,-0.13200,67.20000,30.45000,42.56000,-0.16600,0.71700,-0.20400,84.30000,0.54000
041225_03.43.52.742,0.58700,-0.75700,-0.02100,58.59000,25.27000,33.67000,-0.16100,0.72800,-0.21100,84.10000,-0.20000
041225_03.43.52.754,0.62800,-0.85400,0.02800,55.30000,16.25700,27.03800,-0.15800,0.73100,-0.21600,83.86000,-0.24000
041225_03.43.52.765,0.61500,-0.87900,0.12600,54.53000,7.10500,29.06800,-0.14900,0.73500,-0.23100,84.56000,0.70000
041225_03.43.52.777,0.55700,-0.85100,0.14100,54.44300,-2.69500,32.48000,-0.14600,0.74200,-0.23900,84.11000,-0.45000
041225_03.43.52.788,0.54900,-0.88300,0.13100,54.07500,-9.31000,35.00000,-0.14600,0.74200,-0.23900,83.87000,-0.24000
041225_03.43.52.800,0.60200,-0.87700,0.14600,54.33800,-13.17700,35.66500,-0.13200,0.74100,-0.24700,83.89000,0.02000
041225_03.43.52.811,0.59800,-0.84200,0.17900,54.46000,-14.00000,33.79200,-0.12000,0.74600,-0.25400,83.59000,-0.30000
041225_03.43.52.823,0.65300,-0.84600,0.19800,57.06800,-16.66000,31.85000,-0.11500,0.74700,-0.26400,84.15000,0.56000
041225_03.43.52.834,0.67000,-0.80200,0.18200,61.30300,-18.97000,37.27500,-0.10500,0.75300,-0.28000,84.40000,0.25000
041225_03.43.52.846,0.65200,-0.79200,0.18000,61.81000,-19.47800,42.71700,-0.10500,0.75300,-0.28000,83.49000,-0.91000
041225_03.43.52.857,0.60000,-0.78600,0.15300,59.79800,-25.04200,43.80300,-0.08600,0.74800,-0.28600,83.76000,0.27000
041225_03.43.52.869,0.54000,-0.81300,0.13700,55.12500,-41.72000,42.57700,-0.07800,0.74800,-0.29400,84.14000,0.38000
041225_03.43.52.880,0.53100,-0.81000,0.02400,45.08000,-44.92300,40.74000,-0.06000,0.74600,-0.31200,84.01000,-0.13000
041225_03.43.52.892,0.51600,-0.79600,-0.03300,38.13200,-45.25500,35.03500,-0.05000,0.74500,-0.32100,84.18000,0.17000
041225_03.43.52.903,0.47300,-0.75600,0.03500,33.86200,-45.53500,31.46500,-0.05000,0.74500,-0.32100,83.24000,-0.94000
041225_03.43.52.915,0.45100,-0.74700,0.04400,32.30500,-52.74500,34.89500,-0.04200,0.74200,-0.32600,84.16000,0.92000
041225_03.43.52.926,0.59900,-0.69700,-0.21800,29.68000,-55.07300,41.72000,-0.02800,0.73700,-0.34200,83.97000,-0.19000
041225_03.43.52.938,0.61700,-0.93800,0.14400,24.71000,-40.02200,50.59200,-0.01800,0.73600,-0.34800,84.31000,0.34000
041225_03.43.52.949,0.65400,-0.98400,0.59300,46.91700,-59.97200,17.55200,-0.01800,0.73600,-0.34800,83.70000,-0.61000
041225_03.43.52.961,0.62100,-0.45300,0.21800,64.62800,-100.74700,-5.70500,0.00200,0.72900,-0.37200,84.23000,0.53000
041225_03.43.52.972,0.52200,-0.66700,-0.06700,61.18000,-102.14700,6.54500,0.01000,0.72200,-0.40300,84.01000,-0.22000
041225_03.43.52.984,0.31100,-0.67100,-0.52600,29.62800,-80.88500,28.89200,0.01800,0.72300,-0.41000,83.14000,-0.87000
041225_03.43.52.995,0.35600,-0.77800,-0.58800,-5.75800,-54.96700,52.69300,0.03300,0.71500,-0.41400,83.46000,0.32000
041225_03.43.53.007,0.58900,-1.03400,-0.15500,-24.46500,-21.31500,49.91000,0.03300,0.71500,-0.41400,83.95000,0.49000
041225_03.43.53.018,0.44200,-0.56400,-0.14700,-82.81000,17.15000,97.24700,0.03300,0.70600,-0.41300,83.97000,0.02000
041225_03.43.53.030,0.52700,-1.35700,0.24400,-80.22000,22.66300,94.46500,0.05100,0.69000,-0.39900,84.44000,0.47000
041225_03.43.53.041,0.72200,-1.17100,0.40000,-64.57500,24.95500,70.59500,0.06200,0.68000,-0.39200,83.12000,-1.32000
041225_03.43.53.053,0.73700,-1.16300,0.49400,-42.84000,17.09700,53.58500,0.06700,0.66900,-0.38700,83.80000,0.68000
041225_03.43.53.064,0.74500,-1.21200,0.44300,-18.00700,1.66300,31.32500,0.06700,0.66900,-0.38700,84.38000,0.58000
041225_03.43.53.075,0.69100,-1.08400,0.34400,7.56000,-15.10200,5.49500,0.06700,0.66900,-0.38100,84.55000,0.17000
041225_03.43.53.087,0.58600,-0.95300,0.21400,24.04500,-30.01300,-8.82000,0.06800,0.66900,-0.39800,84.06000,-0.49000
041225_03.43.53.098,0.45100,-0.95600,0.05500,28.68300,-37.69500,-11.41000,0.06700,0.66900,-0.40100,83.75000,-0.31000
041225_03.43.53.110,0.35900,-1.03000,-0.02800,26.47800,-32.69000,-12.26700,0.07200,0.67100,-0.40900,83.45000,-0.30000
041225_03.43.53.121,0.32800,-0.99100,-0.10900,18.69000,-19.93300,-13.89500,0.07200,0.67100,-0.40900,83.45000,0.00000
041225_03.43.53.133,0.20000,-1.00300,-0.00000,8.64500,-3.43000,-20.30000,0.07000,0.68000,-0.40900,84.04000,0.59000
041225_03.43.53.144,0.28400,-1.22600,-0.18000,2.01300,10.08000,-36.80300,0.06200,0.68300,-0.40500,83.75000,-0.29000
041225_03.43.53.156,0.43500,-1.01700,-0.02500,-3.29000,34.02000,-52.74500,0.05500,0.68500,-0.39800,84.02000,0.27000
041225_03.43.53.167,0.24200,-1.07200,0.31700,-2.32800,9.99300,-74.63700,0.05500,0.68500,-0.39600,83.51000,-0.51000
041225_03.43.53.179,0.28500,-1.06300,0.03200,2.11800,-5.42500,-89.96700,0.04900,0.69700,-0.39600,83.96000,0.45000
041225_03.43.53.190,0.33900,-1.03600,0.06100,0.64700,-5.96800,-100.78300,0.03600,0.70800,-0.39800,84.00000,0.04000
041225_03.43.53.202,0.40000,-1.04900,0.01600,2.04700,-11.76000,-109.02500,0.02500,0.71900,-0.39700,83.86000,-0.14000
041225_03.43.53.213,0.43700,-0.98000,-0.08800,4.51500,-14.03500,-113.34800,0.00500,0.73700,-0.39800,83.80000,-0.06000
041225_03.43.53.225,0.57700,-0.83800,0.03300,9.38000,-11.88200,-116.53300,0.00500,0.73700,-0.39800,83.96000,0.16000
041225_03.43.53.236,0.66400,-0.76000,0.00600,14.89200,-14.57800,-118.23000,-0.01800,0.75100,-0.40100,83.50000,-0.46000
041225_03.43.53.248,0.67000,-0.69400,0.00100,23.13500,-21.14000,-120.45200,-0.03700,0.76000,-0.41100,84.17000,0.67000
041225_03.43.53.259,0.66500,-0.66200,0.02600,30.48500,-26.51300,-122.50000,-0.05600,0.77700,-0.42100,83.18000,-0.99000
041225_03.43.53.271,0.75500,-0.61300,-0.03800,33.05700,-26.96800,-125.05500,-0.08200,0.79100,-0.42300,83.08000,-0.10000
041225_03.43.53.282,0.82400,-0.38500,0.02500,19.60000,-3.30800,-122.53500,-0.08200,0.79100,-0.42300,83.78000,0.70000
041225_03.43.53.294,0.80300,-0.42100,-0.02500,16.94000,-10.16800,-111.42300,-0.09800,0.80100,-0.43100,84.00000,0.22000
041225_03.43.53.305,0.73000,-0.64200,-0.03600,21.42000,-22.76700,-109.02500,-0.11400,0.80900,-0.43400,83.34000,-0.66000
041225_03.43.53.317,0.73500,-0.63400,0.03700,-5.40700,-11.56800,-112.42000,-0.13600,0.81600,-0.43800,84.18000,0.84000
041225_03.43.53.328,0.79800,-0.43400,-0.07700,-10.64000,-3.22000,-119.43800,-0.15600,0.81800,-0.43500,84.24000,0.06000
041225_03.43.53.340,0.88700,-0.12500,-0.07900,-1.41800,3.37800,-119.07000,-0.15600,0.81800,-0.43500,83.78000,-0.46000
041225_03.43.53.351,1.01500,-0.14900,0.00400,14.61300,2.74700,-104.80800,-0.18000,0.82100,-0.43700,83.99000,0.21000
041225_03.43.53.363,0.97500,-0.20700,0.02100,31.41300,-1.66300,-91.87500,-0.19600,0.82600,-0.44600,84.06000,0.07000
041225_03.43.53.374,1.00400,-0.17400,0.03200,40.46000,-2.17000,-76.82500,-0.21400,0.82900,-0.45400,83.28000,-0.78000
041225_03.43.53.386,1.07200,-0.13700,0.00800,46.53300,-1.19000,-61.12700,-0.21400,0.83400,-0.46400,83.72000,0.44000
041225_03.43.53.397,1.06200,-0.16800,-0.03700,48.84200,-1.08500,-43.40000,-0.22400,0.83400,-0.46400,84.04000,0.32000
041225_03.43.53.409,1.03900,-0.20700,-0.06500,47.54800,0.33300,-25.51500,-0.23300,0.83300,-0.47000,83.67000,-0.37000
041225_03.43.53.420,1.00500,-0.24900,-0.04000,47.04000,2.48500,-12.00500,-0.24200,0.83500,-0.47400,83.78000,0.11000
041225_03.43.53.432,0.95200,-0.28500,0.01100,47.11000,3.69300,-5.58200,-0.23800,0.83000,-0.48300,83.32000,-0.46000
041225_03.43.53.443,0.90500,-0.30500,0.07800,46.84700,3.64000,-3.43000,-0.23800,0.83000,-0.48300,83.09000,-0.23000
041225_03.43.53.455,0.89200,-0.34300,0.17200,47.60000,0.10500,-7.10500,-0.23700,0.83300,-0.48900,84.05000,0.96000
041225_03.43.53.466,0.87000,-0.35700,0.27200,45.43000,-2.90500,-10.72700,-0.24400,0.83100,-0.50100,83.95000,-0.10000
041225_03.43.53.478,0.84700,-0.32800,0.28500,43.62700,-8.26000,-16.20500,-0.24800,0.83200,-0.50800,84.08000,0.13000
041225_03.43.53.489,0.88700,-0.30600,0.28500,41.35300,-14.99800,-21.08700,-0.25200,0.82600,-0.51400,83.84000,-0.24000
041225_03.43.53.501,0.90700,-0.33000,0.30100,40.12700,-24.13200,-23.76500,-0.25200,0.82600,-0.51400,83.38000,-0.46000
041225_03.43.53.512,0.90700,-0.35600,0.26100,37.41500,-35.36800,-24.74500,-0.25800,0.82300,-0.52400,84.06000,0.68000
041225_03.43.53.524,0.97000,-0.42200,0.21500,35.43800,-43.85500,-26.28500,-0.26300,0.82000,-0.52800,83.66000,-0.40000
041225_03.43.53.535,0.85200,-0.37300,0.14100,28.89200,-47.72200,-26.25000,-0.26500,0.81700,-0.53700,83.52000,-0.14000
041225_03.43.53.547,0.84600,-0.37900,0.03000,14.85800,-55.10800,-23.88800,-0.27500,0.81900,-0.53800,83.79000,0.27000
041225_03.43.53.558,0.88600,-0.33800,-0.01900,5.79300,-51.90500,-24.27300,-0.27500,0.81900,-0.53800,84.35000,0.56000
041225_03.43.53.570,0.86600,-0.14600,-0.21400,-2.46700,-39.27000,-24.74500,-0.28000,0.81400,-0.53700,83.50000,-0.85000
041225_03.43.53.581,1.02000,-0.16600,0.01400,-11.74300,-22.48700,-19.70500,-0.29300,0.81300,-0.52900,84.30000,0.80000
041225_03.43.53.593,0.83300,-0.24300,0.04600,-10.25500,-16.53800,-19.40700,-0.29400,0.81000,-0.53200,84.15000,-0.15000
041225_03.43.53.604,0.89700,-0.30600,0.03500,-22.75000,-9.74800,-26.72200,-0.30200,0.81100,-0.52600,83.78000,-0.37000
041225_03.43.53.616,0.77300,-0.40900,-0.11600,-35.78700,-5.37200,-33.26800,-0.30200,0.81100,-0.52600,84.15000,0.37000
041225_03.43.53.627,0.76500,-0.22300,-0.22900,-45.90300,7.77000,-44.99300,-0.31100,0.80800,-0.52000,83.62000,-0.53000
041225_03.43.53.639,0.75100,-0.18700,-0.26300,-46.06000,24.04500,-54.37300,-0.32300,0.80100,-0.51300,83.80000,0.18000
041225_03.43.53.650,0.66600,-0.24000,-0.22900,-40.67000,41.37000,-65.38000,-0.33400,0.79600,-0.51700,84.31000,0.51000
041225_03.43.53.662,0.57000,0.03100,-0.46800,-30.45000,64.68000,-84.21000,-0.33400,0.79600,-0.51700,83.57000,-0.74000
041225_03.43.53.673,0.59400,0.08300,-0.37200,-4.14800,94.04500,-101.04500,-0.35100,0.80000,-0.51600,83.94000,0.37000
041225_03.43.53.685,0.74900,0.06300,0.15000,14.54300,109.98800,-105.26200,-0.37400,0.79400,-0.52300,83.13000,-0.81000
041225_03.43.53.696,0.68900,0.19200,0.24600,33.23300,93.80000,-102.81300,-0.39400,0.78400,-0.53900,83.30000,0.17000
041225_03.43.53.708,0.69100,0.16200,0.32100,55.89500,61.51300,-101.46500,-0.41200,0.77700,-0.55100,83.96000,0.66000
041225_03.43.53.720,0.72800,0.34800,0.19300,63.50700,21.96200,-101.27200,-0.41200,0.77700,-0.55100,84.27000,0.31000
041225_03.43.53.731,0.86300,0.43200,0.11900,69.37000,4.88300,-90.70200,-0.43300,0.76600,-0.56700,83.15000,-1.12000
041225_03.43.53.743,0.90300,0.33700,0.11100,70.36800,1.13800,-68.61800,-0.44300,0.75000,-0.58300,83.13000,-0.02000
041225_03.43.53.754,0.94500,0.25100,0.20600,65.97500,-4.09500,-67.60300,-0.45900,0.73900,-0.58800,84.04000,0.91000
041225_03.43.53.766,0.99400,0.18300,0.31500,62.63200,-9.90500,-70.52500,-0.47100,0.72500,-0.60100,83.14000,-0.90000
041225_03.43.53.777,0.84100,0.29000,0.23200,56.71700,-16.90500,-78.50500,-0.47100,0.72500,-0.60100,84.16000,1.02000
041225_03.43.53.789,0.96000,0.35100,0.23100,52.02800,-19.44200,-89.04000,-0.48900,0.70700,-0.61500,83.42000,-0.74000
041225_03.43.53.800,1.10200,0.41600,0.21200,45.90300,-21.03500,-87.02800,-0.50300,0.69100,-0.62200,83.63000,0.21000
041225_03.43.53.812,1.04800,0.29600,0.22700,43.69700,-25.30500,-79.32700,-0.52000,0.67600,-0.62700,83.85000,0.22000
041225_03.43.53.823,1.06700,0.30900,0.30800,43.36500,-36.15500,-82.16200,-0.53300,0.65800,-0.62500,84.18000,0.33000
041225_03.43.53.835,1.06800,0.36200,0.22000,41.51000,-50.20800,-90.44000,-0.53300,0.65800,-0.62500,84.08000,-0.10000
041225_03.43.53.846,1.04500,0.45900,0.15700,35.73500,-54.98500,-97.58000,-0.54600,0.63900,-0.62600,82.92000,-1.16000
041225_03.43.53.858,1.02700,0.56700,0.17400,27.61500,-55.12500,-101.53500,-0.56800,0.61800,-0.62400,83.61000,0.69000
041225_03.43.53.869,0.98600,0.54300,0.21900,19.35500,-60.13000,-104.30000,-0.57700,0.59700,-0.61800,83.52000,-0.09000
041225_03.43.53.881,0.94500,0.57400,0.11800,15.94300,-68.11000,-109.86500,-0.57700,0.58500,-0.60700,83.59000,0.07000
041225_03.43.53.892,0.87500,0.67600,-0.02400,13.56300,-62.42300,-112.87500,-0.59900,0.58500,-0.60700,84.27000,0.68000
041225_03.43.53.904,0.78900,0.75700,-0.36400,1.68000,-43.12000,-109.35700,-0.60700,0.56100,-0.61000,84.03000,-0.24000
041225_03.43.53.915,0.65200,0.76700,-0.24000,-8.99500,-18.27000,-106.13700,-0.61900,0.54300,-0.61200,83.39000,-0.64000
041225_03.43.53.927,0.80200,0.68300,-0.07400,-18.77800,-1.34700,-109.63700,-0.62400,0.52400,-0.60500,83.80000,0.41000
041225_03.43.53.938,0.79900,0.57100,-0.06600,-20.56200,-2.27500,-116.34000,-0.62400,0.52400,-0.60500,83.63000,-0.17000
041225_03.43.53.950,0.66400,0.38600,-0.18300,-26.19800,0.29800,-134.29500,-0.62800,0.50600,-0.60700,83.80000,0.17000
041225_03.43.53.961,0.44400,0.58700,-0.39900,-48.56300,21.68300,-171.43000,-0.63700,0.47900,-0.60600,83.00000,-0.80000
041225_03.43.53.973,0.31300,0.71200,-0.24500,-64.52200,53.27000,-215.26800,-0.64000,0.44900,-0.61900,83.84000,0.84000
041225_03.43.53.984,0.29700,0.94900,0.01200,-68.11000,73.04500,-246.12000,-0.63800,0.40800,-0.62200,83.32000,-0.52000
041225_03.43.53.996,0.07300,1.43500,0.18700,-44.88800,58.71300,-225.78500,-0.63800,0.40800,-0.62200,83.55000,0.23000
041225_03.43.54.007,0.43600,1.21500,0.17600,13.19500,33.75700,-123.02500,-0.64000,0.38600,-0.63000,83.56000,0.01000
041225_03.43.54.019,0.64800,0.95000,0.12900,56.70000,7.47200,-45.90300,-0.63700,0.36900,-0.63100,83.05000,-0.51000
041225_03.43.54.030,0.45100,0.85500,0.12600,54.86200,-13.28300,-36.69700,-0.64200,0.35500,-0.62900,83.65000,0.60000
041225_03.43.54.042,0.36700,0.85600,0.11200,17.74500,-15.08500,-54.35500,-0.64400,0.34400,-0.62800,83.21000,-0.44000
041225_03.43.54.053,0.43000,1.04400,0.08700,10.18500,-10.48300,-47.88000,-0.64400,0.34400,-0.62800,83.66000,0.45000
041225_03.43.54.065,0.37800,0.99500,-0.01200,9.78300,-13.45800,-43.94300,-0.64200,0.33000,-0.62700,83.77000,0.11000
041225_03.43.54.076,0.33600,0.96500,-0.04500,15.13700,-16.69500,-40.56500,-0.64100,0.31900,-0.63200,83.11000,-0.66000
041225_03.43.54.088,0.23700,1.01700,-0.03700,16.87000,-17.83300,-40.53000,-0.64200,0.31100,-0.62900,83.14000,0.03000
041225_03.43.54.099,0.21700,0.97200,0.02700,13.47500,-15.87300,-46.09500,-0.64600,0.30300,-0.63300,83.89000,0.75000
041225_03.43.54.111,0.29100,0.96300,0.05100,7.99700,-13.26500,-55.66700,-0.64600,0.30300,-0.63300,83.47000,-0.42000
041225_03.43.54.122,0.39800,0.92900,0.04400,1.61000,-14.22700,-66.04500,-0.64400,0.28900,-0.62600,83.33000,-0.14000
041225_03.43.54.134,0.40200,0.93200,0.01100,-3.50000,-18.35800,-74.02500,-0.64300,0.27600,-0.63000,83.87000,0.54000
041225_03.43.54.145,0.38300,0.98400,0.01600,-5.88000,-21.35000,-77.82300,-0.64100,0.25900,-0.63600,83.18000,-0.69000
041225_03.43.54.157,0.36200,1.03500,-0.00400,-8.17200,-22.01500,-78.52200,-0.64100,0.25900,-0.63600,84.10000,0.92000
041225_03.43.54.168,0.40200,1.11800,-0.02200,-12.63500,-21.75300,-75.68800,-0.63400,0.24900,-0.63100,83.62000,-0.48000
041225_03.43.54.180,0.24900,1.14100,-0.25700,-14.22700,-18.20000,-43.29500,-0.63800,0.24200,-0.63600,83.78000,0.16000
041225_03.43.54.191,0.25400,0.97300,-0.26900,7.71800,1.96000,-26.19800,-0.63500,0.23000,-0.63100,83.54000,-0.24000
041225_03.43.54.203,0.12300,1.07200,-0.08300,4.46300,-1.12000,-22.10300,-0.62700,0.22200,-0.63200,83.55000,0.01000
041225_03.43.54.214,0.10400,1.12200,-0.07500,1.26000,-4.97000,-17.34300,-0.62700,0.22200,-0.63200,83.48000,-0.07000
041225_03.43.54.226,0.09700,1.12900,-0.04400,3.27300,-7.12200,-14.54300,-0.63100,0.22300,-0.63800,83.19000,-0.29000
041225_03.43.54.237,0.04700,1.10800,0.00500,3.25500,-6.65000,-16.53800,-0.62800,0.21300,-0.63600,83.82000,0.63000
041225_03.43.54.249,-0.00900,1.07000,-0.01900,2.08200,-1.69700,-19.32000,-0.62600,0.21100,-0.64300,83.86000,0.04000
041225_03.43.54.260,-0.00500,0.98000,-0.03100,0.01800,3.18500,-19.98500,-0.62400,0.20700,-0.63700,83.84000,-0.02000
041225_03.43.54.272,0.06200,1.21300,-0.07600,-3.69300,5.84500,-16.69500,-0.62400,0.20700,-0.63700,83.33000,-0.51000
041225_03.43.54.283,0.06100,0.96100,-0.06900,-13.61500,7.85800,2.11800,-0.62500,0.20800,-0.64400,83.23000,-0.10000
041225_03.43.54.294,0.07500,0.73000,-0.05100,-22.83700,7.00000,0.89200,-0.62700,0.21200,-0.64400,83.01000,-0.22000
041225_03.43.54.306,0.16200,1.00800,-0.07100,-24.85000,8.47000,-10.62300,-0.62100,0.21500,-0.64800,82.67000,-0.34000
041225_03.43.54.317,0.25700,1.02500,-0.11100,-17.79800,7.42000,-8.71500,-0.62200,0.21600,-0.65500,84.13000,1.46000
041225_03.43.54.329,0.26700,0.96900,-0.13700,-15.87300,-25.30500,13.52800,-0.62200,0.21600,-0.65500,83.11000,-1.02000
041225_03.43.54.340,0.20600,1.03700,-0.21100,-27.17700,-51.18800,22.05000,-0.62600,0.22200,-0.65800,83.09000,-0.02000
041225_03.43.54.352,0.07900,1.27900,-0.26600,-28.78800,-75.23200,27.47500,-0.63500,0.22700,-0.64300,82.93000,-0.16000
041225_03.43.54.363,0.01700,1.12600,-0.20300,-19.93300,-91.47300,42.26300,-0.64600,0.23800,-0.63400,83.88000,0.95000
041225_03.43.54.375,-0.05400,0.94500,-0.25400,7.47200,-92.71500,47.09200,-0.64600,0.24400,-0.61100,84.32000,0.44000
041225_03.43.54.386,-0.23500,0.75800,-0.11700,47.32000,-74.21700,23.43300,-0.65600,0.24400,-0.61100,83.34000,-0.98000
041225_03.43.54.398,-1.09200,1.18600,0.06200,43.73300,-16.18700,-37.10000,-0.66800,0.23700,-0.60300,83.08000,-0.26000
041225_03.43.54.409,-0.74200,1.20400,0.33500,7.56000,67.02500,-125.37000,-0.65700,0.21300,-0.61100,83.40000,0.32000
041225_03.43.54.421,-0.50000,1.04100,0.26700,2.22300,128.97500,-163.53800,-0.63700,0.18100,-0.64000,83.83000,0.43000
041225_03.43.54.432,-0.39700,1.11800,0.23600,22.69800,179.27000,-175.07000,-0.63700,0.18100,-0.64000,83.73000,-0.10000
041225_03.43.54.444,-0.30900,1.25200,0.14000,44.32700,207.02500,-178.71000,-0.60600,0.15100,-0.66500,83.13000,-0.60000
041225_03.43.54.455,-0.10400,1.41000,-0.00400,62.96500,209.68500,-182.82200,-0.57100,0.11700,-0.68500,83.60000,0.47000
041225_03.43.54.467,0.27100,1.55900,0.04400,85.26000,185.86800,-181.93000,-0.52800,0.08200,-0.68700,83.69000,0.09000
041225_03.43.54.478,0.56400,1.21400,-0.08600,132.49300,97.38700,-143.90200,-0.50400,0.05500,-0.68300,83.61000,-0.08000
041225_03.43.54.490,0.68600,0.94800,0.05400,124.40800,51.27500,-110.12800,-0.50400,0.05500,-0.68300,83.44000,-0.17000
041225_03.43.54.502,0.59200,0.78600,0.24200,96.30200,3.71000,-82.19800,-0.48200,0.03300,-0.66600,83.70000,0.26000
041225_03.43.54.513,0.18900,0.78900,-0.07900,50.40000,-34.72000,-55.91200,-0.47500,0.02300,-0.65600,82.68000,-1.02000
041225_03.43.54.525,-0.21400,1.09900,-0.13600,25.83000,-28.89200,-38.53500,-0.47200,0.01400,-0.64300,83.17000,0.49000
041225_03.43.54.536,-0.34600,1.19600,-0.13000,39.32200,-8.62700,-38.86800,-0.47100,0.00700,-0.64100,83.05000,-0.12000
041225_03.43.54.548,-0.60000,0.82700,-0.29400,48.54500,6.10800,-47.42500,-0.47100,0.00700,-0.64100,83.17000,0.12000
041225_03.43.54.559,-0.61100,0.75400,-0.33500,27.03800,30.55500,-57.31300,-0.45900,0.00400,-0.63800,83.14000,-0.03000
041225_03.43.54.571,-0.56900,0.88800,-0.40700,7.49000,48.44000,-62.38800,-0.44800,-0.00400,-0.64300,83.37000,0.23000
041225_03.43.54.582,-0.51200,0.87300,-0.40300,6.07300,52.13200,-61.28500,-0.43400,-0.00700,-0.64600,83.12000,-0.25000
041225_03.43.54.594,-0.42700,0.79900,-0.35700,8.52300,49.19300,-52.30700,-0.42300,-0.01100,-0.64300,83.44000,0.32000
041225_03.43.54.605,-0.36000,0.83500,-0.32700,6.84300,45.25500,-38.15000,-0.42300,-0.01100,-0.64300,83.63000,0.19000
041225_03.43.54.617,-0.35700,0.91100,-0.31700,6.98300,41.44000,-14.87500,-0.41200,-0.00900,-0.64200,83.36000,-0.27000
041225_03.43.54.628,-0.34400,0.94400,-0.28800,7.78700,52.92000,-8.01500,-0.41000,-0.00600,-0.65200,83.87000,0.51000
041225_03.43.54.640,-0.52200,0.80800,-0.23100,-2.87000,65.53700,-8.87300,-0.40400,-0.00600,-0.65800,83.66000,-0.21000
041225_03.43.54.651,-0.04400,0.47800,-0.40500,10.86800,89.05800,-28.19300,-0.40400,-0.00600,-0.65800,83.19000,-0.47000
041225_03.43.54.663,0.05500,0.97100,-0.48300,10.86800,110.60000,-23.18700,-0.39500,-0.00100,-0.65900,83.82000,0.63000
041225_03.43.54.674,0.03800,0.72200,-0.47600,11.95300,101.97300,2.46700,-0.38000,-0.00600,-0.65900,83.37000,-0.45000
041225_03.43.54.686,-0.15600,0.45900,-0.52600,18.11200,81.00700,6.87800,-0.37500,-0.00800,-0.65900,84.16000,0.79000
041225_03.43.54.697,-0.20200,0.42600,-0.50100,15.15500,77.78700,-4.09500,-0.37100,0.00100,-0.66100,83.16000,-1.00000
041225_03.43.54.709,-0.33000,0.56000,-0.48200,5.05700,81.70700,-15.13700,-0.37100,0.00100,-0.66100,84.39000,1.23000
041225_03.43.54.720,-0.46100,0.67000,-0.48300,-4.69000,86.10000,-24.15000,-0.35600,-0.00600,-0.66300,83.42000,-0.97000
041225_03.43.54.732,-0.51300,0.74400,-0.51400,-10.93800,94.57000,-30.67700,-0.33600,-0.00600,-0.66500,83.49000,0.07000
041225_03.43.54.744,-0.53000,0.78200,-0.51400,-15.10200,105.42000,-34.05500,-0.32400,-0.00200,-0.67500,83.42000,-0.07000
041225_03.43.54.755,-0.52700,0.85800,-0.44200,-17.86800,112.77000,-35.12300,-0.30300,0.00200,-0.67600,83.23000,-0.19000
041225_03.43.54.767,-0.49200,0.79600,-0.58200,-14.56000,118.96500,-40.61800,-0.30300,0.00200,-0.67600,83.29000,0.06000
041225_03.43.54.779,-0.42200,0.83000,-0.53500,4.06000,110.95000,-45.90300,-0.28100,0.00100,-0.68200,84.37000,1.08000
041225_03.43.54.790,-0.20700,0.76000,-0.53100,15.66300,102.32300,-53.69000,-0.25900,0.00800,-0.68100,83.55000,-0.82000
041225_03.43.54.802,-0.12400,0.86800,-0.52500,32.79500,89.46000,-64.50500,-0.23900,0.00400,-0.67200,83.11000,-0.44000
041225_03.43.54.813,-0.10200,0.90500,-0.55700,49.49000,74.69000,-72.88700,-0.21900,-0.00100,-0.66300,83.40000,0.29000
041225_03.43.54.825,-0.10500,0.78400,-0.57300,61.18000,62.28300,-78.50500,-0.21900,-0.00100,-0.66300,83.49000,0.09000
041225_03.43.54.837,-0.00100,0.65200,-0.53100,68.95000,52.92000,-79.43300,-0.19600,0.00000,-0.65600,83.51000,0.02000
041225_03.43.54.848,-0.05000,0.59100,-0.55100,67.86500,47.84500,-72.62500,-0.18300,-0.00400,-0.64100,83.54000,0.03000
041225_03.43.54.860,-0.15000,0.59700,-0.63000,62.09000,42.71700,-70.43800,-0.16700,-0.00500,-0.63200,83.92000,0.38000
041225_03.43.54.871,-0.17700,0.60000,-0.62600,53.00700,41.07200,-71.64500,-0.16700,-0.00500,-0.62200,83.09000,-0.83000
041225_03.43.54.883,-0.07100,0.60900,-0.67500,43.01500,33.82700,-72.50300,-0.15100,-0.00500,-0.62200,82.87000,-0.22000
041225_03.43.54.894,0.32100,0.61000,-0.51200,34.52800,15.78500,-68.51200,-0.13400,-0.00700,-0.61200,83.52000,0.65000
041225_03.43.54.906,1.52600,0.66600,-0.23000,25.62000,-39.97000,-37.74800,-0.13600,-0.01100,-0.61400,83.34000,-0.18000
041225_03.43.54.917,-0.29300,0.03700,-0.97800,9.59000,-142.48500,7.66500,-0.15200,-0.02300,-0.61500,83.69000,0.35000
041225_03.43.54.929,-0.28500,0.58400,-0.88200,-3.41200,-113.68000,-5.86300,-0.15200,-0.02300,-0.61500,83.70000,0.01000
041225_03.43.54.940,-0.93900,0.74300,-0.77000,-8.87300,-82.51200,-30.78200,-0.16100,-0.02300,-0.61900,82.94000,-0.76000
041225_03.43.54.952,-0.80300,0.64000,-0.65800,-9.34500,-62.59700,-46.21700,-0.17000,-0.02200,-0.61400,83.41000,0.47000
041225_03.43.54.964,-0.65200,0.64000,-0.73900,-8.01500,-53.02500,-52.37700,-0.16500,-0.02300,-0.61800,83.61000,0.20000
041225_03.43.54.975,-0.49100,0.57500,-0.68400,-1.06700,-50.48700,-58.10000,-0.15800,-0.02100,-0.61900,83.20000,-0.41000
041225_03.43.54.987,-0.46300,0.48800,-0.63600,-0.40300,-54.88000,-57.59200,-0.15800,-0.02100,-0.61900,83.16000,-0.04000
041225_03.43.54.998,-0.48100,0.46400,-0.67200,-8.57500,-56.35000,-57.62700,-0.15500,-0.02100,-0.61800,83.42000,0.26000
041225_03.43.55.010,-0.42900,0.43900,-0.63700,-20.37000,-55.75500,-56.61200,-0.14600,-0.01800,-0.62200,83.54000,0.12000
041225_03.43.55.021,-0.35200,0.45000,-0.57700,-32.42800,-61.51300,-53.27000,-0.14500,-0.01800,-0.63300,83.84000,0.30000
041225_03.43.55.033,-0.35300,0.49200,-0.54700,-41.37000,-73.27200,-49.80500,-0.14900,-0.01000,-0.64200,83.47000,-0.37000
041225_03.43.55.044,-0.53800,0.60700,-0.47100,-44.27500,-86.60700,-47.25000,-0.14900,-0.01000,-0.64200,83.17000,-0.30000
041225_03.43.55.056,-1.58700,1.11500,0.12700,-38.85000,-64.22500,-54.68800,-0.14300,-0.01000,-0.65200,83.07000,-0.10000
041225_03.43.55.067,-1.16100,1.12000,-0.18000,-23.87000,60.74300,-58.66000,-0.13000,0.00600,-0.64900,83.25000,0.18000
041225_03.43.55.079,-0.33000,0.50800,-0.38300,-22.15500,49.78700,-48.73700,-0.11400,0.01100,-0.63700,82.90000,-0.35000
041225_03.43.55.090,-0.60300,0.49100,-0.35500,-25.88200,34.72000,-43.01500,-0.10400,0.01600,-0.64000,83.55000,0.65000
041225_03.43.55.102,-0.71700,0.57500,-0.44200,-33.05700,43.64500,-43.78500,-0.10400,0.01600,-0.64000,83.07000,-0.48000
041225_03.43.55.114,-0.69300,0.67500,-0.36300,-32.83000,53.84700,-47.30300,-0.09900,0.02200,-0.64600,83.48000,0.41000
041225_03.43.55.125,-0.67500,0.77100,-0.69400,-24.57000,51.22200,-47.86200,-0.08200,0.02600,-0.63900,82.57000,-0.91000
041225_03.43.55.137,-0.74200,0.78200,-0.86800,0.05300,63.22800,-47.86200,-0.06800,0.03200,-0.63500,83.40000,0.83000
041225_03.43.55.148,-0.61900,0.29700,-0.76300,32.63800,72.66000,-52.65800,-0.06800,0.03200,-0.63500,83.06000,-0.34000
041225_03.43.55.159,-0.50800,0.25400,-0.82000,99.05000,70.99700,-72.08200,-0.05500,0.03100,-0.61200,84.19000,1.13000
041225_03.43.55.171,-0.92300,-0.00600,-0.08600,124.05800,50.82000,-59.25500,-0.05800,0.03800,-0.58700,82.34000,-1.85000
041225_03.43.55.183,-0.69700,0.29100,-0.77800,61.54800,29.34700,-27.30000,-0.06000,0.03600,-0.56900,82.86000,0.52000
041225_03.43.55.194,-0.70400,0.50400,-0.74700,87.30800,42.64700,-26.28500,-0.05100,0.03100,-0.54800,83.16000,0.30000
041225_03.43.55.206,-0.75000,0.40300,-0.72100,142.31000,72.52000,-55.51000,-0.05100,0.03100,-0.54800,83.32000,0.16000
041225_03.43.55.217,-0.79100,0.22100,-0.53700,179.56800,87.72800,-69.89500,-0.04400,0.02800,-0.51600,83.28000,-0.04000
041225_03.43.55.229,-0.17000,0.08300,-0.30600,174.44000,84.05200,-67.56700,-0.03400,0.02900,-0.48000,83.05000,-0.23000
041225_03.43.55.240,-0.28500,-0.06000,-0.44400,168.08700,64.15500,-53.56800,-0.02200,0.03100,-0.44800,83.08000,0.03000
041225_03.43.55.252,-0.37400,-0.13000,-0.68000,161.80500,64.33000,-44.32700,-0.01600,0.03500,-0.40700,82.56000,-0.52000
041225_03.43.55.263,-0.33700,-0.04200,-0.74700,160.17800,76.82500,-41.09000,-0.01600,0.03500,-0.40700,83.12000,0.56000
041225_03.43.55.275,-0.27800,-0.15900,-0.54300,159.91500,80.79800,-35.96300,-0.01700,0.04800,-0.37500,83.52000,0.40000
041225_03.43.55.286,-0.29200,-0.51500,-0.55400,130.69000,65.87000,-32.32200,-0.01400,0.05600,-0.34700,83.14000,-0.38000
041225_03.43.55.298,-0.46400,-0.37400,-0.92000,73.32500,49.56000,-33.42500,-0.01300,0.06400,-0.33400,83.15000,0.01000
041225_03.43.55.309,-0.57200,-0.16500,-1.04300,34.65000,47.77500,-37.85300,-0.01000,0.07200,-0.32500,83.31000,0.16000
041225_03.43.55.321,-0.56100,-0.06700,-0.98300,21.14000,46.93500,-38.04500,-0.01000,0.07200,-0.32500,82.81000,-0.50000
041225_03.43.55.332,-0.49400,-0.08500,-0.93700,25.98700,43.12000,-34.86000,-0.00900,0.08000,-0.31800,82.99000,0.18000
041225_03.43.55.344,-0.43700,-0.10700,-0.97000,42.82200,37.27500,-30.18700,-0.00400,0.08400,-0.30300,82.78000,-0.21000
041225_03.43.55.355,-0.47300,-0.14200,-1.01900,80.57000,34.05500,-20.70200,-0.00100,0.08700,-0.28200,83.08000,0.30000
041225_03.43.55.367,-0.31000,-0.07000,-0.80500,98.50700,37.94000,-13.84200,-0.00100,0.08700,-0.26700,82.95000,-0.13000
041225_03.43.55.378,0.05900,-0.17000,-0.60400,107.39700,34.87700,-1.33000,-0.01000,0.10300,-0.26700,83.13000,0.18000
041225_03.43.55.390,-0.01300,-0.20300,-0.58700,89.65300,38.78000,12.07500,-0.00700,0.10800,-0.24800,82.87000,-0.26000
041225_03.43.55.401,-0.55900,-0.70100,-0.93000,34.75500,70.82300,18.13000,-0.02200,0.11000,-0.23100,83.08000,0.21000
041225_03.43.55.413,-0.61500,-0.77700,-1.06700,-3.11500,78.85500,-11.77800,-0.02900,0.11200,-0.21800,83.13000,0.05000
041225_03.43.55.424,-0.62400,-0.82800,-1.02500,-34.16000,88.65500,-38.04500,-0.02900,0.11200,-0.21800,84.06000,0.93000
041225_03.43.55.436,-0.48400,-0.54300,-0.92200,-53.63800,100.71300,-46.14700,-0.03400,0.11500,-0.22200,83.36000,-0.70000
041225_03.43.55.447,-0.33400,-0.30700,-0.89100,-55.96500,100.92300,-44.81800,-0.03900,0.11400,-0.21800,82.71000,-0.65000
041225_03.43.55.459,-0.24800,-0.19600,-0.92300,-42.87500,85.59200,-35.99800,-0.04600,0.11600,-0.20500,82.61000,-0.10000
041225_03.43.55.470,-0.22100,-0.14600,-1.02100,-20.66700,61.39000,-23.27500,-0.04400,0.11700,-0.19400,83.26000,0.65000
041225_03.43.55.482,-0.19800,-0.15300,-1.08000,5.37200,37.24000,-9.36300,-0.04400,0.11700,-0.19400,82.49000,-0.77000
041225_03.43.55.493,-0.14700,-0.16800,-1.10100,27.51000,15.19000,2.64200,-0.04800,0.11800,-0.19300,82.65000,0.16000
041225_03.43.55.505,-0.08800,-0.17700,-1.11300,60.90000,-23.25700,16.55500,-0.05300,0.12300,-0.18500,83.12000,0.47000
041225_03.43.55.516,-0.14300,-0.21500,-0.96500,75.32000,-41.54500,16.43300,-0.04800,0.12700,-0.18200,82.95000,-0.17000
041225_03.43.55.528,-0.14100,-0.26500,-0.91400,84.85700,-62.21300,7.70000,-0.05200,0.14100,-0.17900,83.46000,0.51000
041225_03.43.55.539,-0.23800,-0.37400,-0.91500,91.10500,-77.22800,-5.37200,-0.05200,0.14100,-0.17900,83.05000,-0.41000
041225_03.43.55.551,-0.35400,-0.56700,-0.87500,95.25300,-74.11300,-22.55800,-0.03400,0.15100,-0.17600,83.03000,-0.02000
041225_03.43.55.562,-0.36500,-0.70000,-0.82200,94.01000,-59.86800,-43.13800,-0.02600,0.17100,-0.17700,82.62000,-0.41000
041225_03.43.55.574,-0.34700,-0.69600,-0.83500,92.13700,-48.52800,-59.92000,-0.01600,0.18800,-0.17400,83.08000,0.46000
041225_03.43.55.586,-0.36200,-0.63000,-0.87600,94.36000,-44.22200,-69.63200,-0.01600,0.21400,-0.17200,83.40000,0.32000
041225_03.43.55.597,-0.31700,-0.58500,-0.86300,99.75000,-44.36200,-73.69200,-0.00700,0.21400,-0.17200,83.48000,0.08000
041225_03.43.55.609,-0.27000,-0.61300,-0.83100,102.98800,-48.14300,-75.67000,0.00500,0.23900,-0.16800,83.43000,-0.05000
041225_03.43.55.620,-0.24300,-0.59600,-0.83500,104.07300,-56.59500,-77.63000,0.02300,0.26300,-0.17100,83.61000,0.18000
041225_03.43.55.632,-0.26000,-0.54400,-0.83500,113.59200,-69.98200,-74.62000,0.03300,0.29500,-0.17500,83.41000,-0.20000
041225_03.43.55.643,-0.29700,-0.65700,-0.78800,120.20800,-79.11800,-54.98500,0.03300,0.29500,-0.17500,82.79000,-0.62000
041225_03.43.55.655,-0.30600,-0.79500,-0.72600,94.48200,-68.53000,-43.76800,0.04800,0.31700,-0.18800,82.46000,-0.33000
041225_03.43.55.666,-0.38600,-0.92500,-0.73900,78.62800,-57.66200,-32.06000,0.05700,0.33300,-0.19000,82.70000,0.24000
041225_03.43.55.678,-0.32400,-0.91200,-0.63500,70.98000,-45.85000,-15.27800,0.06500,0.34400,-0.19400,83.22000,0.52000
041225_03.43.55.689,-0.36500,-1.00800,-0.59500,67.11300,-29.38200,3.58800,0.06400,0.35300,-0.19600,83.04000,-0.18000
041225_03.43.55.701,-0.41400,-0.89100,-0.54700,64.08500,-12.30200,17.93700,0.06400,0.35300,-0.19600,83.07000,0.03000
041225_03.43.55.712,-0.42900,-0.84600,-0.54300,60.48000,-0.42000,38.37700,0.06200,0.35200,-0.20100,82.88000,-0.19000
041225_03.43.55.724,-0.37700,-0.86100,-0.58200,56.43800,6.66800,54.96700,0.06300,0.35100,-0.19700,82.95000,0.07000
041225_03.43.55.735,-0.33500,-0.81000,-0.56600,54.91500,6.61500,61.58300,0.05700,0.34000,-0.19500,83.14000,0.19000
041225_03.43.55.747,-0.31100,-0.77700,-0.54500,55.38800,0.00000,61.35500,0.05500,0.34300,-0.19100,83.39000,0.25000
041225_03.43.55.758,-0.27200,-0.75600,-0.50600,57.03300,-10.92000,56.33300,0.05500,0.34300,-0.19100,82.78000,-0.61000
041225_03.43.55.770,-0.20900,-0.77000,-0.52100,63.56000,-24.79800,47.47800,0.05600,0.34000,-0.19100,83.37000,0.59000
041225_03.43.55.781,-0.29500,-0.77900,-0.47000,77.64700,-42.07000,38.64000,0.06300,0.34400,-0.19600,83.42000,0.05000
041225_03.43.55.793,-0.55700,-0.79300,-0.35900,80.64000,-69.42300,35.43800,0.06900,0.34800,-0.20600,82.72000,-0.70000
041225_03.43.55.804,-0.71900,-1.01500,-0.10100,51.64300,-70.57700,41.23000,0.07600,0.35100,-0.22000,83.23000,0.51000
041225_03.43.55.816,-0.83700,-1.13600,-0.08000,22.94200,-60.35800,45.65800,0.07600,0.35100,-0.22000,83.49000,0.26000
041225_03.43.55.827,-0.84800,-1.10600,-0.11200,-4.69000,-47.63500,51.81800,0.07800,0.34300,-0.22500,83.84000,0.35000
041225_03.43.55.839,-0.73500,-1.12700,-0.36400,-23.15300,-42.49000,58.18800,0.08000,0.32700,-0.23600,82.84000,-1.00000
041225_03.43.55.850,-0.60500,-0.99000,-0.51100,-25.00700,-35.47200,71.59200,0.08100,0.30800,-0.24800,82.58000,-0.26000
041225_03.43.55.862,-0.60000,-0.85100,-0.53500,-15.97700,-36.34700,98.29800,0.08100,0.30800,-0.24800,83.44000,0.86000
041225_03.43.55.873,-0.52300,-0.73200,-0.53000,-2.13500,-48.91200,132.68500,0.07900,0.28500,-0.25600,83.30000,-0.14000
041225_03.43.55.885,-0.51100,-0.89000,-0.59900,21.57700,-74.14700,171.36000,0.07300,0.25700,-0.26900,83.52000,0.22000
041225_03.43.55.896,-0.51000,-1.03400,-0.47400,50.45200,-113.75000,188.79000,0.06900,0.23000,-0.28400,83.99000,0.47000
041225_03.43.55.908,-0.35700,-0.70300,-0.19500,76.17700,-162.12000,187.04000,0.06900,0.20100,-0.30100,83.84000,-0.15000
041225_03.43.55.919,-0.50400,-0.65300,-0.03800,91.98000,-202.24700,179.09500,0.06900,0.20100,-0.30100,83.58000,-0.26000
041225_03.43.55.931,-1.10600,-0.86200,0.47100,83.31700,-208.70500,152.72300,0.07300,0.17000,-0.33300,85.14000,1.56000
041225_03.43.55.942,-0.33500,0.71400,0.45100,-0.26200,-70.96300,-1.92500,0.08900,0.16300,-0.34800,83.90000,-1.24000
041225_03.43.55.954,-0.62900,-0.76100,0.33900,5.75800,-33.05700,20.31700,0.08000,0.16600,-0.35300,84.30000,0.40000
041225_03.43.55.965,-0.73100,-0.39900,-0.17700,11.00700,-76.47500,-1.29500,0.07900,0.16900,-0.35900,84.02000,-0.28000
041225_03.43.55.977,-0.57500,-0.47400,0.07000,46.67300,-64.26000,12.30200,0.07900,0.16900,-0.35900,83.53000,-0.49000
041225_03.43.55.988,-0.52400,-0.38600,-0.07500,63.19300,-43.61000,20.42300,0.08300,0.15800,-0.36200,84.10000,0.57000
041225_03.43.56.000,-1.15100,-0.61600,0.03600,58.31000,-30.15300,25.86500,0.07600,0.16100,-0.35600,83.82000,-0.28000
041225_03.43.56.011,-1.23000,-0.62900,-0.02100,43.26000,-38.99000,26.67000,0.07800,0.15800,-0.36200,84.42000,0.60000
041225_03.43.56.023,-1.22300,-0.63200,-0.01500,38.83300,-40.79200,33.67000,0.07700,0.15300,-0.37000,83.88000,-0.54000
041225_03.43.56.034,-1.17600,-0.56200,-0.03700,28.56000,-43.76800,37.15300,0.07700,0.15300,-0.37000,84.30000,0.42000
041225_03.43.56.046,-1.12800,-0.54200,0.02700,19.16300,-46.77800,38.29000,0.07200,0.14400,-0.36900,84.38000,0.08000
041225_03.43.56.057,-1.04300,-0.55200,0.11700,13.19500,-53.11200,38.23700,0.07000,0.13600,-0.38200,84.02000,-0.36000
041225_03.43.56.069,-0.99700,-0.48100,0.17900,12.32000,-60.72500,35.63000,0.06500,0.13000,-0.39000,84.21000,0.19000
041225_03.43.56.080,-1.11400,-0.46200,0.22600,11.37500,-71.03300,11.63700,0.06500,0.13000,-0.40200,84.12000,-0.09000
041225_03.43.56.092,-0.75800,-0.64700,0.28100,-0.35000,-106.90800,18.02500,0.07000,0.13200,-0.40200,84.30000,0.18000
041225_03.43.56.103,-0.92300,-0.66400,0.20800,-8.45300,-123.30500,29.89000,0.06800,0.11900,-0.42300,83.73000,-0.57000
041225_03.43.56.115,-0.89000,-0.59600,0.40000,-8.38200,-138.44300,26.35500,0.07100,0.11700,-0.44200,83.35000,-0.38000
041225_03.43.56.126,-0.82100,-0.50500,0.49600,-6.82500,-156.55500,16.53800,0.06600,0.11100,-0.46200,83.68000,0.33000
041225_03.43.56.138,-0.77800,-0.46100,0.48800,-6.21300,-173.07500,7.85800,0.06600,0.11100,-0.46200,83.85000,0.17000
041225_03.43.56.149,-0.82300,-0.44500,0.51400,4.02500,-179.51500,6.03700,0.06700,0.10900,-0.49100,83.57000,-0.28000
041225_03.43.56.161,-0.84500,-0.47900,0.58300,17.29000,-174.44000,9.15300,0.06100,0.10800,-0.50600,83.18000,-0.39000
041225_03.43.56.172,-0.63300,0.08600,0.59100,14.33300,-159.60000,13.26500,0.06100,0.10500,-0.52400,83.18000,0.00000
041225_03.43.56.184,-0.81800,-0.24400,0.63600,-17.65700,-146.98200,35.80500,0.04600,0.10200,-0.54200,83.90000,0.72000
041225_03.43.56.195,-0.90000,-0.68400,0.65800,-8.50500,-147.96200,33.58300,0.04600,0.10200,-0.54200,83.71000,-0.19000
041225_03.43.56.207,-0.80200,-0.52100,0.71800,3.93800,-139.14300,17.83300,0.03600,0.09800,-0.56100,84.15000,0.44000
041225_03.43.56.218,-0.72400,-0.48800,0.80100,4.88300,-128.32700,12.16300,0.02600,0.09400,-0.57600,83.93000,-0.22000
041225_03.43.56.230,-0.79100,-0.83100,0.63000,-7.49000,-117.51200,8.24300,0.01700,0.09400,-0.58900,83.87000,-0.06000
041225_03.43.56.241,-0.57200,-0.33500,0.72300,-21.66500,-118.77200,15.29500,0.00800,0.08900,-0.60100,83.53000,-0.34000
041225_03.43.56.253,-0.49100,-0.39800,0.75100,-27.79000,-123.48000,24.97200,0.00800,0.08900,-0.60100,83.46000,-0.07000
041225_03.43.56.264,-0.39600,-0.26700,0.82000,-32.76000,-137.23500,31.02800,-0.00300,0.08700,-0.61700,84.06000,0.60000
041225_03.43.56.276,-0.37100,-0.22600,0.85400,-34.70200,-153.26500,37.48500,-0.01900,0.08900,-0.63300,83.77000,-0.29000
041225_03.43.56.287,-0.37300,-0.34000,0.79300,-37.01300,-163.08300,42.71700,-0.04100,0.08500,-0.65400,82.88000,-0.89000
041225_03.43.56.299,-0.36600,-0.36700,0.78900,-40.40800,-167.87800,44.90500,-0.05900,0.08600,-0.67100,83.52000,0.64000
041225_03.43.56.311,-0.34800,-0.38000,0.76500,-43.19000,-170.38000,45.74500,-0.05900,0.08600,-0.67100,83.64000,0.12000
041225_03.43.56.322,-0.30600,-0.35400,0.81800,-43.61000,-169.73200,46.70800,-0.08400,0.08600,-0.68300,83.91000,0.27000
041225_03.43.56.334,-0.26000,-0.37600,0.86100,-45.39500,-170.41500,49.70000,-0.10500,0.08800,-0.69900,83.32000,-0.59000
041225_03.43.56.345,-0.32100,-0.46700,0.82400,-49.91000,-171.64000,53.23500,-0.13500,0.09100,-0.71900,83.52000,0.20000
041225_03.43.56.357,-0.28300,-0.50900,0.82600,-53.81300,-169.94300,51.92300,-0.13500,0.09100,-0.71900,83.17000,-0.35000
041225_03.43.56.368,-0.30800,-0.46200,0.81600,-57.55700,-168.94500,50.80300,-0.15800,0.09800,-0.72700,83.35000,0.18000
041225_03.43.56.380,-0.31700,-0.39300,0.82200,-52.51800,-158.77700,48.07200,-0.18800,0.10600,-0.74000,83.07000,-0.28000
041225_03.43.56.391,-0.26600,-0.41900,0.73400,-45.46500,-145.89800,48.09000,-0.21600,0.11500,-0.75700,83.31000,0.24000
041225_03.43.56.403,-0.12400,-0.49100,0.75600,-33.14500,-128.20500,47.42500,-0.23400,0.12000,-0.76300,83.70000,0.39000
041225_03.43.56.415,-0.02400,-0.56000,0.83800,-22.05000,-113.99500,43.33000,-0.23400,0.12000,-0.76300,83.45000,-0.25000
041225_03.43.56.426,-0.07300,-0.60200,0.65700,-10.67500,-98.56000,34.72000,-0.25400,0.12600,-0.76800,83.38000,-0.07000
041225_03.43.56.438,-0.01300,-0.59600,0.81000,5.42500,-72.92300,19.74000,-0.26700,0.12500,-0.76500,83.27000,-0.11000
041225_03.43.56.449,0.02400,-0.60600,0.81300,17.90300,-56.91000,7.99700,-0.27200,0.12600,-0.76100,83.86000,0.59000
041225_03.43.56.461,0.05700,-0.58100,0.84000,26.82700,-49.87500,1.33000,-0.28400,0.12300,-0.76100,83.48000,-0.38000
041225_03.43.56.472,0.06300,-0.50500,0.86200,30.71200,-45.37700,1.59200,-0.28400,0.12300,-0.76100,83.42000,-0.06000
041225_03.43.56.484,0.06000,-0.41700,0.89400,32.49800,-44.60800,7.12200,-0.29000,0.12000,-0.75200,82.58000,-0.84000
041225_03.43.56.495,0.05000,-0.35700,0.91400,33.89700,-45.72800,15.96000,-0.29400,0.11000,-0.74700,83.50000,0.92000
041225_03.43.56.506,-0.01000,-0.33400,0.88600,36.61000,-46.18200,26.63500,-0.30500,0.10600,-0.73900,83.29000,-0.21000
041225_03.43.56.518,0.04700,-0.34900,0.86200,41.10800,-47.26800,46.25200,-0.31200,0.09900,-0.73900,83.30000,0.01000
041225_03.43.56.529,0.09200,-0.38100,0.85200,50.10300,-45.85000,57.38200,-0.31200,0.09900,-0.73900,83.55000,0.25000
041225_03.43.56.541,0.18800,-0.40300,0.82100,52.99000,-49.03500,65.04800,-0.33200,0.09200,-0.73500,82.85000,-0.70000
041225_03.43.56.552,0.13100,-0.46500,0.82100,55.66700,-49.12300,67.76000,-0.34200,0.09100,-0.72400,83.28000,0.43000
041225_03.43.56.564,0.10600,-0.47300,0.83800,58.60800,-47.14500,65.94000,-0.35700,0.07900,-0.71900,84.07000,0.79000
041225_03.43.56.575,0.10600,-0.47200,0.81800,63.61200,-45.30700,62.52800,-0.35700,0.07900,-0.70300,83.08000,-0.99000
041225_03.43.56.587,0.16200,-0.48300,0.83300,69.93000,-42.64700,59.79800,-0.36900,0.07300,-0.70300,83.41000,0.33000
041225_03.43.56.598,0.19300,-0.52200,0.83800,77.89300,-40.58300,59.22000,-0.38700,0.06600,-0.69500,83.58000,0.17000
041225_03.43.56.610,0.20400,-0.64600,0.83300,85.99500,-38.34200,59.83300,-0.39500,0.05700,-0.67900,83.35000,-0.23000
041225_03.43.56.621,0.32000,-0.75300,0.85200,91.19200,-35.19300,62.33500,-0.41200,0.04800,-0.66600,82.80000,-0.55000
041225_03.43.56.633,0.35300,-0.73600,0.90200,94.41200,-37.73000,64.96000,-0.41200,0.04800,-0.66600,83.36000,0.56000
041225_03.43.56.644,0.16100,-0.66200,0.96500,94.13200,-39.34000,64.13700,-0.42300,0.04200,-0.65100,83.04000,-0.32000
041225_03.43.56.656,0.06300,-0.41000,0.96900,89.96700,-37.36200,55.40500,-0.43800,0.03900,-0.63800,83.65000,0.61000
041225_03.43.56.667,0.09200,-0.11800,0.94900,93.03000,-40.00500,18.63800,-0.44300,0.03100,-0.61700,83.76000,0.11000
041225_03.43.56.679,0.12800,0.02600,0.72700,116.13000,-40.95000,3.09800,-0.44900,0.02100,-0.59800,82.97000,-0.79000
041225_03.43.56.690,0.21000,0.04500,0.63900,127.99500,-37.90500,-4.79500,-0.44900,0.02100,-0.59800,83.95000,0.98000
041225_03.43.56.702,0.23000,0.01400,0.70400,137.39300,-29.68000,-8.24300,-0.44700,0.00400,-0.57400,83.71000,-0.24000
041225_03.43.56.713,0.25400,-0.06200,0.84500,139.14300,-18.27000,-12.32000,-0.44900,-0.00400,-0.55600,83.10000,-0.61000
041225_03.43.56.725,0.30400,-0.11400,0.99400,129.93700,-8.45300,-18.00700,-0.44600,-0.01000,-0.53800,83.06000,-0.04000
041225_03.43.56.736,0.32400,-0.10500,1.00800,115.29000,-6.80700,-18.67300,-0.45100,-0.01300,-0.51800,82.76000,-0.30000
041225_03.43.56.748,0.21700,0.01000,1.05500,107.97500,-8.92500,-10.20300,-0.45100,-0.01300,-0.51800,83.72000,0.96000
041225_03.43.56.759,0.11300,0.57100,1.17900,105.03500,-5.70500,4.18200,-0.44900,-0.01900,-0.50200,82.56000,-1.16000
041225_03.43.56.771,0.26900,0.15700,1.21500,101.44800,-2.03000,20.93000,-0.45700,-0.02600,-0.48100,83.20000,0.64000
041225_03.43.56.783,0.29300,-0.01500,1.03700,94.86800,-5.86300,28.14000,-0.46300,-0.02100,-0.46500,82.98000,-0.22000
041225_03.43.56.794,0.32300,0.21100,0.87200,93.60700,-11.70800,32.63800,-0.46900,-0.02100,-0.45200,83.46000,0.48000
041225_03.43.56.806,0.29400,0.34900,0.88600,91.96300,-21.64800,46.00700,-0.46900,-0.02100,-0.45200,83.50000,0.04000
041225_03.43.56.817,0.19800,0.22400,0.92000,72.15300,-39.30500,54.65300,-0.47800,-0.01900,-0.43600,82.84000,-0.66000
041225_03.43.56.829,0.19000,0.28700,0.95400,67.62000,-45.55300,48.63200,-0.48400,-0.01400,-0.42600,83.35000,0.51000
041225_03.43.56.840,0.28000,0.26700,0.89200,61.60000,-49.26300,52.41200,-0.49700,-0.00800,-0.40900,83.45000,0.10000
041225_03.43.56.852,0.25000,0.28900,0.83900,54.81000,-43.10300,54.28500,-0.49700,-0.00800,-0.40900,82.92000,-0.53000
041225_03.43.56.863,0.25600,0.30300,0.85700,47.46000,-32.06000,57.34700,-0.50100,-0.00100,-0.40000,83.37000,0.45000
041225_03.43.56.875,0.33400,0.31400,0.89500,43.92500,-24.86800,59.58800,-0.51500,0.00100,-0.38600,83.31000,-0.06000
041225_03.43.56.886,0.35500,0.32200,0.91600,44.69500,-24.53500,61.30300,-0.51700,0.00700,-0.37900,83.31000,0.00000
041225_03.43.56.898,0.35300,0.30800,0.85100,43.89000,-26.51300,60.76000,-0.53400,0.01600,-0.37500,83.16000,-0.15000
041225_03.43.56.909,0.38300,0.34200,0.82800,40.46000,-24.20200,57.61000,-0.53400,0.01600,-0.37500,83.59000,0.43000
041225_03.43.56.921,0.43500,0.38800,0.75500,40.49500,-19.56500,58.34500,-0.54200,0.02300,-0.36700,83.41000,-0.18000
041225_03.43.56.932,0.48100,0.44200,0.76400,45.37700,-14.26200,61.12700,-0.55200,0.02700,-0.36100,83.93000,0.52000
041225_03.43.56.944,0.45900,0.45700,0.72700,51.57200,-13.24800,67.56700,-0.56100,0.03900,-0.34400,83.36000,-0.57000
041225_03.43.56.955,0.47900,0.38500,0.73300,57.66200,-13.23000,72.53700,-0.57400,0.05100,-0.33600,83.51000,0.15000
041225_03.43.56.967,0.57200,0.42300,0.73300,67.98800,-2.57200,78.90800,-0.57400,0.05100,-0.33600,82.89000,-0.62000
041225_03.43.56.978,0.61700,0.49700,0.81100,78.55800,-2.10000,88.21700,-0.58300,0.06900,-0.32700,83.53000,0.64000
041225_03.43.56.990,0.58000,0.45000,0.79200,93.13500,-8.92500,97.31700,-0.60000,0.08600,-0.31300,83.71000,0.18000
041225_03.43.57.001,0.63400,0.35100,0.84900,108.23800,-8.82000,102.09500,-0.61200,0.10700,-0.30100,83.50000,-0.21000
041225_03.43.57.013,0.56700,0.48700,0.65900,116.70800,1.66300,106.22500,-0.62500,0.12800,-0.28300,83.15000,-0.35000
041225_03.43.57.024,0.54200,0.50200,0.69400,121.57300,1.83700,121.11800,-0.62500,0.12800,-0.28300,83.68000,0.53000
041225_03.43.57.036,0.56000,0.53100,0.70700,122.02800,-4.27000,133.66500,-0.64200,0.15800,-0.27500,83.10000,-0.58000
041225_03.43.57.047,0.49900,0.53800,0.67800,120.27800,-2.73000,134.66300,-0.65100,0.19000,-0.27100,83.30000,0.20000
041225_03.43.57.059,0.48400,0.43000,0.74900,113.97800,5.68700,110.11000,-0.66100,0.21200,-0.26800,83.93000,0.63000
041225_03.43.57.070,0.65000,0.24100,0.57700,103.79300,1.36500,100.73000,-0.66100,0.21200,-0.25100,82.85000,-1.08000
041225_03.43.57.082,0.56300,0.24100,0.47100,103.25000,-9.03000,113.90800,-0.66900,0.24000,-0.25100,83.83000,0.98000
041225_03.43.57.093,0.49800,0.29000,0.51500,105.21000,-8.96000,113.89000,-0.67400,0.26700,-0.24200,83.43000,-0.40000
041225_03.43.57.105,0.57700,0.36300,0.59000,102.63700,-9.88700,96.70500,-0.68200,0.29500,-0.24600,83.73000,0.30000
041225_03.43.57.116,0.65800,0.36200,0.59400,97.93000,-16.29200,93.53700,-0.68600,0.32100,-0.24000,84.01000,0.28000
041225_03.43.57.128,0.69100,0.38300,0.60600,100.39700,-15.68000,89.77500,-0.68600,0.32100,-0.24000,83.47000,-0.54000
041225_03.43.57.140,0.72900,0.43300,0.60500,105.73500,-11.77800,84.24500,-0.68600,0.34500,-0.23600,83.86000,0.39000
041225_03.43.57.151,0.82900,0.53700,0.55300,112.40300,-11.06000,79.81700,-0.68800,0.37100,-0.24100,83.37000,-0.49000
041225_03.43.57.163,0.79900,0.47900,0.58500,120.20800,-16.03000,80.37800,-0.68300,0.40000,-0.23600,83.77000,0.40000
041225_03.43.57.174,0.75800,0.48900,0.56600,125.19500,-20.70200,82.18000,-0.68200,0.42300,-0.22900,83.89000,0.12000
041225_03.43.57.186,0.73200,0.43900,0.61000,131.12800,-23.69500,81.67300,-0.68200,0.42300,-0.22900,83.71000,-0.18000
041225_03.43.57.197,0.86500,0.36100,0.43100,126.89300,-29.99500,74.39300,-0.68100,0.44600,-0.22600,83.48000,-0.23000
041225_03.43.57.209,0.81300,0.41600,0.41300,112.07000,-46.90000,66.81500,-0.67500,0.46700,-0.22500,83.54000,0.06000
041225_03.43.57.220,0.82100,0.35600,0.41500,106.69800,-50.24300,64.01500,-0.66900,0.49100,-0.21700,83.33000,-0.21000
