ax,ay,az,gx,gy,gz,mx,my,mz,pressure,temperature,altitude
-0.01529,0.02379,0.98575,-0.00047,0.00101,0.00271,0.30477,-0.26985,-0.24187,983.11000,26.05000,284.09000
-0.01528,0.02382,0.98675,-0.00047,0.00001,0.00271,0.30477,-0.26985,-0.24187,983.20000,26.05000,283.33000
-0.01729,0.02384,0.98574,-0.00047,0.00001,0.00171,0.30277,-0.26885,-0.24087,983.11000,26.04000,284.08000
-0.01431,0.02477,0.98579,-0.00047,0.00101,0.00171,0.30477,-0.27385,-0.24487,983.22000,26.05000,283.14000
-0.01632,0.02482,0.98577,-0.00047,0.00101,0.00271,0.31277,-0.27285,-0.24487,983.17000,26.04000,283.63000
-0.01629,0.02382,0.98575,-0.00147,0.00001,0.00271,0.30677,-0.27185,-0.24487,983.08000,26.05000,284.34000
-0.01527,0.02276,0.98472,-0.00047,0.00001,0.00271,0.30877,-0.26685,-0.24387,983.15000,26.05000,283.80000
-0.01529,0.02379,0.98575,-0.00047,0.00101,0.00271,0.30477,-0.27385,-0.24387,983.13000,26.05000,283.97000
-0.01632,0.02479,0.98477,-0.00047,0.00001,0.00271,0.30477,-0.27385,-0.24387,983.15000,26.05000,283.76000
-0.01528,0.02382,0.98675,-0.00047,0.00001,0.00271,0.30677,-0.27285,-0.24187,983.16000,26.05000,283.69000
-0.01532,0.02476,0.98478,-0.00147,0.00001,0.00271,0.30577,-0.26885,-0.23687,983.16000,26.04000,283.69000
-0.01529,0.02379,0.98575,-0.00147,0.00001,0.00271,0.30577,-0.26785,-0.24087,983.14000,26.05000,283.85000
-0.01629,0.02382,0.98575,-0.00047,0.00101,0.00271,0.30977,-0.26985,-0.24087,983.12000,26.04000,284.00000
-0.01632,0.02482,0.98577,-0.00047,0.00001,0.00271,0.30577,-0.26885,-0.24087,983.11000,26.04000,284.07000
-0.01632,0.02482,0.98577,-0.00047,0.00001,0.00271,0.30977,-0.27085,-0.23787,983.14000,26.04000,283.86000
-0.01431,0.02480,0.98679,-0.00047,0.00101,0.00271,0.30977,-0.27085,-0.23787,983.14000,26.04000,283.88000
-0.01627,0.02390,0.98875,-0.00047,0.00001,0.00271,0.30577,-0.27285,-0.23687,983.16000,26.04000,283.68000
-0.01532,0.02476,0.98478,-0.00047,0.00001,0.00271,0.31077,-0.27285,-0.23787,983.16000,26.05000,283.66000
-0.01629,0.02384,0.98675,-0.00147,0.00001,0.00271,0.30477,-0.26985,-0.23687,983.15000,26.05000,283.82000
-0.01632,0.02482,0.98577,-0.00047,0.00001,0.00271,0.30477,-0.27185,-0.24087,983.13000,26.04000,283.94000
-0.01530,0.02376,0.98475,-0.00047,0.00001,0.00271,0.30277,-0.27185,-0.23587,983.12000,26.04000,284.00000
-0.01629,0.02382,0.98575,-0.00047,0.00001,0.00271,0.30677,-0.27385,-0.23687,983.18000,26.05000,283.52000
-0.01627,0.02281,0.98572,-0.00047,0.00001,0.00271,0.30677,-0.27385,-0.23687,983.16000,26.05000,283.70000
-0.01530,0.02485,0.98778,-0.00047,0.00001,0.00271,0.30577,-0.27785,-0.23987,983.20000,26.05000,283.37000
-0.01629,0.02384,0.98675,-0.00047,0.00001,0.00271,0.30677,-0.27385,-0.24187,983.13000,26.05000,283.97000
-0.01528,0.02382,0.98675,-0.00047,0.00001,0.00271,0.31077,-0.27485,-0.24487,983.24000,26.05000,283.00000
-0.01629,0.02382,0.98575,-0.00047,0.00001,0.00171,0.30777,-0.27585,-0.24087,983.14000,26.05000,283.85000
-0.01631,0.02485,0.98678,-0.00047,0.00001,0.00271,0.30577,-0.27485,-0.24287,983.13000,26.05000,283.92000
-0.01427,0.02273,0.98473,-0.00047,0.00001,0.00271,0.30877,-0.27085,-0.24487,983.16000,26.05000,283.66000
-0.01532,0.02476,0.98478,-0.00147,0.00001,0.00271,0.30877,-0.27085,-0.24487,983.24000,26.05000,282.97000
-0.01530,0.02376,0.98475,-0.00047,0.00001,0.00271,0.30877,-0.26985,-0.24187,983.15000,26.05000,283.75000
-0.01529,0.02379,0.98575,-0.00047,0.00001,0.00271,0.31477,-0.27385,-0.24787,983.17000,26.05000,283.63000
-0.01629,0.02384,0.98675,-0.00147,0.00001,0.00271,0.30877,-0.26785,-0.24287,983.15000,26.05000,283.76000
-0.01629,0.02382,0.98575,-0.00047,0.00101,0.00271,0.31077,-0.27185,-0.23987,983.13000,26.05000,283.94000
-0.01632,0.02482,0.98577,-0.00047,0.00101,0.00271,0.31177,-0.27485,-0.24087,983.09000,26.05000,284.32000
-0.01528,0.02382,0.98675,-0.00047,0.00001,0.00271,0.30577,-0.27085,-0.23687,983.08000,26.04000,284.35000
-0.01632,0.02479,0.98477,-0.00047,0.00101,0.00271,0.30577,-0.27085,-0.23987,983.14000,26.05000,283.84000
-0.01630,0.02379,0.98474,-0.00047,0.00001,0.00271,0.30077,-0.27085,-0.23987,983.18000,26.05000,283.48000
-0.01529,0.02379,0.98575,-0.00047,0.00001,0.00271,0.30477,-0.27285,-0.23987,983.13000,26.05000,283.93000
-0.01629,0.02382,0.98575,-0.00047,0.00001,0.00271,0.30377,-0.27085,-0.23987,983.10000,26.04000,284.16000
-0.01630,0.02379,0.98474,-0.00047,0.00101,0.00271,0.30577,-0.26785,-0.24487,983.22000,26.05000,283.16000
-0.01732,0.02484,0.98577,-0.00047,0.00001,0.00271,0.30677,-0.26785,-0.24087,983.15000,26.04000,283.79000
-0.01629,0.02384,0.98675,-0.00047,0.00101,0.00271,0.30477,-0.27385,-0.24287,983.12000,26.05000,284.07000
-0.01626,0.02284,0.98672,-0.00147,0.00101,0.00271,0.30577,-0.26985,-0.24387,983.16000,26.04000,283.72000
-0.01729,0.02384,0.98574,-0.00047,0.00001,0.00271,0.30577,-0.26985,-0.24387,983.15000,26.04000,283.77000
-0.01629,0.02384,0.98675,-0.00047,0.00001,0.00271,0.30777,-0.26585,-0.24287,983.14000,26.05000,283.83000
-0.01731,0.02487,0.98677,-0.00047,0.00001,0.00271,0.30777,-0.26885,-0.24687,983.11000,26.04000,284.13000
-0.01529,0.02379,0.98575,-0.00147,0.00001,0.00171,0.30977,-0.26985,-0.24687,983.11000,26.05000,284.14000
-0.01532,0.02479,0.98578,-0.00047,0.00001,0.00271,0.31077,-0.27185,-0.23687,983.19000,26.04000,283.43000
-0.01532,0.02479,0.98578,-0.00047,0.00001,0.00271,0.30677,-0.27085,-0.23987,983.06000,26.05000,284.50000
-0.01631,0.02485,0.98678,-0.00047,0.00101,0.00271,0.30677,-0.27185,-0.24287,983.16000,26.04000,283.72000
-0.01626,0.02284,0.98672,-0.00047,0.00101,0.00271,0.30677,-0.27185,-0.24287,983.15000,26.05000,283.76000
-0.01426,0.02279,0.98673,-0.00047,0.00001,0.00271,0.30577,-0.26885,-0.24287,983.13000,26.04000,283.97000
-0.01629,0.02384,0.98675,-0.00047,0.00001,0.00271,0.30877,-0.27085,-0.23987,983.13000,26.05000,283.96000
-0.01632,0.02482,0.98577,-0.00047,0.00001,0.00271,0.30777,-0.26785,-0.24387,983.10000,26.04000,284.22000
-0.01632,0.02482,0.98577,-0.00047,0.00001,0.00271,0.30777,-0.26585,-0.24787,983.08000,26.05000,284.33000
-0.01631,0.02485,0.98678,-0.00047,0.00001,0.00271,0.30977,-0.26685,-0.23787,983.15000,26.05000,283.79000
-0.01627,0.02281,0.98572,-0.00147,0.00001,0.00271,0.30477,-0.26785,-0.23987,983.08000,26.04000,284.36000
-0.01635,0.02579,0.98480,-0.00047,0.00001,0.00271,0.30477,-0.26785,-0.23987,983.17000,26.04000,283.60000
-0.01629,0.02382,0.98575,-0.00047,0.00001,0.00271,0.30477,-0.26485,-0.24187,983.12000,26.05000,284.00000
-0.01529,0.02379,0.98575,-0.00047,0.00001,0.00271,0.30977,-0.26785,-0.23987,983.13000,26.05000,283.93000
-0.01530,0.02376,0.98475,-0.00047,0.00001,0.00271,0.30377,-0.26785,-0.24087,983.15000,26.05000,283.75000
-0.01628,0.02387,0.98775,-0.00047,0.00001,0.00271,0.30477,-0.26785,-0.24087,983.14000,26.04000,283.89000
-0.01629,0.02384,0.98675,-0.00047,0.00001,0.00271,0.30777,-0.26685,-0.24287,983.13000,26.04000,283.94000
-0.01626,0.02284,0.98672,-0.00047,0.00001,0.00271,0.30777,-0.27185,-0.23887,983.16000,26.04000,283.73000
-0.01630,0.02376,0.98374,-0.00047,0.00101,0.00271,0.30777,-0.27185,-0.23887,983.21000,26.04000,283.29000
-0.01630,0.02379,0.98474,-0.00047,0.00001,0.00271,0.30877,-0.27185,-0.24387,983.09000,26.04000,284.26000
-0.01532,0.02479,0.98578,-0.00047,0.00101,0.00271,0.30877,-0.27085,-0.24187,983.13000,26.04000,283.94000
-0.01530,0.02485,0.98778,-0.00047,0.00001,0.00271,0.30477,-0.26885,-0.24687,983.17000,26.05000,283.63000
-0.01632,0.02482,0.98577,-0.00147,0.00101,0.00271,0.30777,-0.26985,-0.24787,983.13000,26.04000,283.97000
-0.01532,0.02479,0.98578,-0.00147,0.00101,0.00271,0.30677,-0.26785,-0.24287,983.14000,26.04000,283.89000
-0.01529,0.02379,0.98575,-0.00047,0.00001,0.00271,0.30577,-0.26985,-0.24287,983.24000,26.04000,282.97000
-0.01530,0.02376,0.98475,-0.00047,0.00001,0.00271,0.30577,-0.26985,-0.24287,983.14000,26.04000,283.85000
-0.01635,0.02579,0.98480,-0.00147,0.00001,0.00271,0.30677,-0.26685,-0.24287,983.10000,26.05000,284.17000
-0.01632,0.02482,0.98577,-0.00047,0.00101,0.00271,0.30777,-0.26785,-0.23887,983.17000,26.04000,283.59000
-0.01529,0.02379,0.98575,-0.00047,0.00001,0.00271,0.30877,-0.27285,-0.24387,983.12000,26.05000,284.01000
-0.01629,0.02382,0.98575,-0.00047,0.00101,0.00271,0.30877,-0.26685,-0.24287,983.10000,26.05000,284.17000
-0.01629,0.02384,0.98675,-0.00047,0.00001,0.00271,0.30577,-0.26785,-0.24187,983.22000,26.04000,283.14000
-0.01631,0.02485,0.98678,-0.00047,0.00101,0.00271,0.30977,-0.26985,-0.24387,983.11000,26.05000,284.12000
-0.01632,0.02479,0.98477,-0.00147,0.00001,0.00271,0.30977,-0.26985,-0.24387,983.12000,26.04000,284.04000
-0.01633,0.02476,0.98377,-0.00047,0.00001,0.00271,0.30977,-0.26985,-0.24187,983.13000,26.05000,283.95000
-0.01627,0.02281,0.98572,-0.00047,0.00001,0.00271,0.30677,-0.26685,-0.24587,983.05000,26.05000,284.65000
-0.01630,0.02379,0.98474,-0.00147,0.00101,0.00271,0.30377,-0.26385,-0.23887,983.17000,26.05000,283.62000
-0.01629,0.02384,0.98675,-0.00147,0.00001,0.00171,0.30977,-0.26685,-0.23687,983.12000,26.05000,283.99000
-0.01431,0.02477,0.98579,-0.00047,0.00001,0.00271,0.31177,-0.26985,-0.24587,983.15000,26.05000,283.76000
-0.01527,0.02276,0.98472,-0.00047,0.00001,0.00271,0.30677,-0.27085,-0.24087,983.09000,26.04000,284.27000
-0.01530,0.02376,0.98475,-0.00047,0.00001,0.00271,0.30677,-0.27085,-0.24087,983.08000,26.04000,284.40000
-0.01532,0.02476,0.98478,-0.00047,0.00101,0.00171,0.31077,-0.27185,-0.24487,983.18000,26.05000,283.54000
-0.01529,0.02379,0.98575,-0.00047,0.00001,0.00271,0.30777,-0.27385,-0.24387,983.13000,26.04000,283.94000
-0.01632,0.02482,0.98577,-0.00047,0.00001,0.00271,0.30877,-0.26785,-0.23687,983.10000,26.05000,284.23000
-0.01631,0.02485,0.98678,-0.00047,0.00101,0.00271,0.30777,-0.27085,-0.24487,983.18000,26.05000,283.51000
-0.01528,0.02382,0.98675,-0.00047,0.00001,0.00271,0.30777,-0.27085,-0.23787,983.17000,26.05000,283.63000
-0.01629,0.02382,0.98575,-0.00047,0.00101,0.00271,0.30677,-0.27185,-0.24687,983.27000,26.05000,282.72000
-0.01526,0.02282,0.98673,-0.00047,0.00001,0.00271,0.30677,-0.27185,-0.24687,983.22000,26.04000,283.14000
-0.01532,0.02479,0.98578,-0.00047,0.00001,0.00271,0.30677,-0.27185,-0.23687,983.12000,26.04000,284.00000
-0.01526,0.02279,0.98572,-0.00047,0.00001,0.00271,0.30577,-0.27185,-0.24487,983.12000,26.05000,284.00000
-0.01629,0.02382,0.98575,-0.00047,0.00001,0.00271,0.30777,-0.27285,-0.24287,983.16000,26.04000,283.70000
-0.01529,0.02379,0.98575,-0.00047,0.00101,0.00271,0.30977,-0.26785,-0.24287,983.07000,26.04000,284.49000
-0.01629,0.02384,0.98675,-0.00147,0.00101,0.00171,0.30577,-0.26685,-0.24487,983.12000,26.04000,284.05000
-0.01528,0.02382,0.98675,-0.00147,0.00001,0.00271,0.30477,-0.26785,-0.23687,983.16000,26.05000,283.68000
-0.01630,0.02379,0.98474,-0.00047,0.00001,0.00271,0.30477,-0.26785,-0.23687,983.13000,26.05000,283.98000
-0.01630,0.02379,0.98474,-0.00047,0.00001,0.00271,0.30977,-0.26485,-0.24187,983.15000,26.05000,283.77000
-0.01632,0.02482,0.98577,-0.00047,0.00101,0.00271,0.30777,-0.26785,-0.23787,983.12000,26.05000,284.00000
-0.01429,0.02374,0.98475,-0.00047,0.00001,0.00271,0.30977,-0.27085,-0.24187,983.10000,26.05000,284.22000
-0.01629,0.02382,0.98575,-0.00147,0.00001,0.00271,0.30877,-0.26985,-0.23987,983.14000,26.04000,283.85000
-0.01632,0.02482,0.98577,-0.00047,0.00001,0.00271,0.30277,-0.26885,-0.23687,983.11000,26.05000,284.13000
-0.01632,0.02479,0.98477,-0.00047,0.00001,0.00271,0.30477,-0.26885,-0.24287,983.11000,26.05000,284.08000
-0.01429,0.02374,0.98475,-0.00047,0.00101,0.00271,0.30477,-0.26885,-0.24287,983.08000,26.05000,284.35000
-0.01526,0.02279,0.98572,-0.00047,0.00001,0.00271,0.31077,-0.26685,-0.24287,983.10000,26.04000,284.18000
-0.01528,0.02382,0.98675,-0.00047,0.00001,0.00271,0.31177,-0.26885,-0.24387,983.22000,26.05000,283.16000
-0.01626,0.02284,0.98672,-0.00047,0.00001,0.00271,0.31577,-0.27085,-0.24487,983.18000,26.05000,283.55000
-0.01632,0.02479,0.98477,-0.00047,0.00001,0.00271,0.31077,-0.26785,-0.24387,983.11000,26.04000,284.15000
-0.01630,0.02379,0.98474,-0.00047,0.00001,0.00271,0.30977,-0.26385,-0.23887,983.17000,26.05000,283.63000
-0.01532,0.02479,0.98578,-0.00047,0.00001,0.00171,0.31077,-0.27185,-0.24387,983.19000,26.05000,283.42000
-0.01729,0.02384,0.98574,-0.00047,0.00001,0.00171,0.31077,-0.26885,-0.23787,983.16000,26.05000,283.68000
-0.01532,0.02479,0.98578,-0.00147,0.00101,0.00271,0.31377,-0.26885,-0.23787,983.16000,26.04000,283.68000
-0.01627,0.02281,0.98572,-0.00047,0.00101,0.00271,0.31077,-0.27285,-0.24087,983.13000,26.05000,283.92000
-0.01529,0.02379,0.98575,-0.00047,0.00001,0.00271,0.30977,-0.27085,-0.23387,983.21000,26.04000,283.26000
-0.01531,0.02482,0.98678,-0.00047,0.00001,0.00271,0.30877,-0.27185,-0.23587,983.14000,26.05000,283.88000
-0.01528,0.02382,0.98675,-0.00047,0.00001,0.00271,0.30577,-0.26885,-0.22887,983.13000,26.05000,283.91000
-0.01629,0.02382,0.98575,-0.00047,0.00001,0.00271,0.31077,-0.27285,-0.23287,983.13000,26.05000,283.93000
-0.01529,0.02379,0.98575,-0.00047,0.00001,0.00271,0.30577,-0.27285,-0.23287,983.12000,26.05000,284.05000
-0.01532,0.02476,0.98478,-0.00047,0.00001,0.00271,0.30577,-0.27285,-0.23287,983.09000,26.05000,284.30000
-0.01526,0.02279,0.98572,-0.00047,0.00001,0.00271,0.30677,-0.27085,-0.24387,983.17000,26.05000,283.58000
-0.01627,0.02281,0.98572,-0.00047,0.00001,0.00271,0.30677,-0.27185,-0.23587,983.11000,26.05000,284.08000
-0.01530,0.02485,0.98778,-0.00047,0.00001,0.00271,0.30577,-0.26985,-0.23687,983.15000,26.05000,283.79000
-0.01529,0.02379,0.98575,-0.00047,0.00101,0.00271,0.30677,-0.26585,-0.23587,983.19000,26.04000,283.42000
-0.01630,0.02379,0.98474,-0.00047,0.00001,0.00271,0.30777,-0.26785,-0.23787,983.13000,26.05000,283.97000
-0.01630,0.02376,0.98374,-0.00047,0.00101,0.00271,0.31177,-0.26585,-0.24187,983.15000,26.05000,283.82000
-0.01632,0.02482,0.98577,-0.00147,0.00101,0.00271,0.31177,-0.26585,-0.24187,983.12000,26.05000,284.03000
-0.01530,0.02376,0.98475,-0.00047,0.00001,0.00271,0.30777,-0.26285,-0.23787,983.16000,26.05000,283.70000
-0.01528,0.02382,0.98675,-0.00047,0.00101,0.00271,0.31277,-0.26785,-0.23787,983.20000,26.05000,283.34000
-0.01629,0.02384,0.98675,-0.00047,0.00001,0.00271,0.31177,-0.26585,-0.23187,983.12000,26.05000,284.03000
-0.01431,0.02480,0.98679,-0.00047,0.00001,0.00271,0.31177,-0.26785,-0.23387,983.17000,26.04000,283.64000
-0.01529,0.02379,0.98575,-0.00047,0.00001,0.00271,0.31277,-0.26985,-0.23587,983.13000,26.05000,283.93000
-0.01431,0.02480,0.98679,-0.00047,0.00001,0.00271,0.30877,-0.27185,-0.23487,983.18000,26.04000,283.55000
-0.01528,0.02382,0.98675,-0.00047,0.00001,0.00271,0.30877,-0.27185,-0.23487,983.13000,26.04000,283.91000
-0.01629,0.02382,0.98575,-0.00047,0.00001,0.00271,0.31177,-0.26785,-0.24087,983.20000,26.04000,283.33000
-0.01526,0.02279,0.98572,-0.00047,0.00101,0.00171,0.30877,-0.26785,-0.24287,983.12000,26.05000,284.00000
-0.01629,0.02384,0.98675,-0.00047,0.00001,0.00271,0.31477,-0.27085,-0.24087,983.18000,26.05000,283.49000
-0.01632,0.02482,0.98577,-0.00047,0.00101,0.00271,0.31177,-0.26985,-0.24487,983.15000,26.05000,283.82000
-0.01529,0.02379,0.98575,-0.00047,0.00101,0.00271,0.31277,-0.26785,-0.24387,983.18000,26.05000,283.53000
-0.01531,0.02482,0.98678,-0.00047,0.00001,0.00271,0.31377,-0.27085,-0.23987,983.16000,26.05000,283.68000
-0.01632,0.02482,0.98577,-0.00047,0.00001,0.00271,0.31377,-0.27085,-0.23987,983.14000,26.04000,283.87000
-0.01527,0.02276,0.98472,-0.00047,0.00101,0.00271,0.31377,-0.27385,-0.23287,983.21000,26.05000,283.30000
-0.01532,0.02479,0.98578,-0.00047,0.00001,0.00271,0.31077,-0.27085,-0.23987,983.11000,26.05000,284.11000
-0.01631,0.02485,0.98678,-0.00047,0.00001,0.00171,0.31177,-0.27185,-0.23687,983.15000,26.05000,283.81000
-0.01531,0.02482,0.98678,-0.00047,0.00001,0.00271,0.30777,-0.27285,-0.23487,983.16000,26.05000,283.73000
-0.01533,0.02362,0.97974,-0.00047,0.00001,0.00271,0.30877,-0.26985,-0.23587,983.14000,26.05000,283.87000
-0.01524,0.02402,0.99377,-0.00047,0.00101,0.00271,0.31077,-0.27085,-0.23987,983.21000,26.05000,283.27000
-0.01632,0.02370,0.98174,-0.00047,0.00001,0.00271,0.31077,-0.27085,-0.23987,983.19000,26.05000,283.43000
-0.01631,0.02485,0.98678,-0.00047,0.00001,0.00271,0.30777,-0.27685,-0.24387,983.09000,26.05000,284.30000
-0.01531,0.02482,0.98678,-0.00047,0.00101,0.00271,0.30777,-0.27385,-0.24487,983.16000,26.05000,283.71000
-0.01632,0.02479,0.98477,-0.00047,0.00101,0.00271,0.30877,-0.27285,-0.24687,983.12000,26.05000,284.03000
-0.01528,0.02385,0.98776,-0.00047,0.00001,0.00271,0.30777,-0.27485,-0.23787,983.11000,26.05000,284.07000
-0.01530,0.02373,0.98375,-0.00047,0.00001,0.00271,0.30877,-0.27085,-0.24087,983.12000,26.05000,283.99000
-0.01529,0.02379,0.98575,-0.00047,0.00001,0.00271,0.30577,-0.26585,-0.24087,983.14000,26.05000,283.89000
-0.01530,0.02376,0.98475,-0.00047,0.00001,0.00271,0.30577,-0.26585,-0.24087,983.14000,26.04000,283.83000
-0.01629,0.02382,0.98575,-0.00147,0.00001,0.00271,0.30577,-0.26785,-0.23487,983.19000,26.05000,283.40000
-0.01527,0.02276,0.98472,-0.00047,0.00101,0.00171,0.30677,-0.27085,-0.23887,983.05000,26.05000,284.62000
-0.01629,0.02382,0.98575,-0.00047,0.00101,0.00271,0.30777,-0.27285,-0.23987,983.14000,26.05000,283.85000
-0.01627,0.02281,0.98572,-0.00147,0.00001,0.00271,0.30777,-0.27185,-0.24087,983.18000,26.05000,283.56000
-0.01631,0.02488,0.98778,-0.00047,0.00001,0.00271,0.30377,-0.26685,-0.23687,983.20000,26.05000,283.37000
-0.01627,0.02390,0.98875,-0.00047,0.00001,0.00171,0.30877,-0.27185,-0.24087,983.10000,26.04000,284.16000
-0.01629,0.02493,0.98978,-0.00047,0.00001,0.00271,0.30877,-0.27185,-0.24087,983.11000,26.05000,284.10000
-0.01729,0.02387,0.98674,-0.00047,0.00001,0.00271,0.30777,-0.27685,-0.24687,983.11000,26.04000,284.12000
-0.01530,0.02485,0.98778,-0.00147,-0.00099,0.00271,0.31077,-0.27185,-0.24187,983.17000,26.05000,283.60000
-0.01527,0.02388,0.98876,-0.00147,-0.00099,0.00271,0.30877,-0.27185,-0.24387,983.11000,26.04000,284.10000
-0.01527,0.02388,0.98876,-0.00147,-0.00099,0.00271,0.30577,-0.26985,-0.23787,983.11000,26.04000,284.13000
-0.01629,0.02384,0.98675,-0.00147,-0.00199,0.00171,0.30677,-0.26985,-0.24287,983.08000,26.04000,284.41000
-0.01530,0.02373,0.98375,-0.00147,-0.00199,0.00271,0.30477,-0.27085,-0.23587,983.09000,26.05000,284.25000
-0.01432,0.02362,0.98074,-0.00047,-0.00099,0.00271,0.30477,-0.27085,-0.23587,983.04000,26.05000,284.73000
-0.01531,0.02371,0.98274,-0.00047,-0.00099,0.00271,0.30877,-0.26885,-0.24187,983.09000,26.05000,284.31000
-0.01527,0.02388,0.98876,-0.00147,-0.00099,0.00271,0.30477,-0.27185,-0.24387,983.11000,26.04000,284.11000
-0.01626,0.02396,0.99076,-0.00147,-0.00099,0.00171,0.30777,-0.27185,-0.24487,983.18000,26.05000,283.55000
-0.01629,0.02384,0.98675,-0.00147,-0.00199,0.00171,0.30877,-0.26985,-0.24487,983.18000,26.05000,283.49000
-0.01530,0.02373,0.98375,-0.00047,-0.00199,0.00271,0.30377,-0.27285,-0.24787,983.14000,26.05000,283.84000
-0.01433,0.02357,0.97874,-0.00147,-0.00099,0.00271,0.30777,-0.26785,-0.24987,983.19000,26.05000,283.39000
-0.01435,0.02345,0.97473,-0.00147,0.00001,0.00271,0.30777,-0.26785,-0.24087,983.17000,26.05000,283.60000
-0.01536,0.02348,0.97472,-0.00147,0.00001,0.00271,0.30777,-0.27085,-0.24087,983.17000,26.04000,283.60000
-0.01418,0.02316,0.99976,-0.00047,0.00301,0.00271,0.30777,-0.27185,-0.24187,983.14000,26.05000,283.83000
-0.01721,0.02424,0.99977,-0.00047,0.00301,0.00271,0.30477,-0.27185,-0.24887,983.19000,26.05000,283.45000
-0.01817,0.02332,1.00174,-0.00047,0.00201,0.00271,0.30277,-0.27285,-0.24687,983.12000,26.04000,284.04000
-0.01526,0.02393,0.99076,-0.00047,0.00001,0.00271,0.30377,-0.27485,-0.25087,983.20000,26.05000,283.39000
-0.01627,0.02390,0.98875,-0.00047,0.00001,0.00271,0.30877,-0.26785,-0.24287,983.17000,26.05000,283.63000
-0.01426,0.02279,0.98673,-0.00047,0.00001,0.00271,0.30877,-0.27285,-0.24587,983.19000,26.05000,283.43000
-0.01234,0.02231,0.97171,-0.00047,0.00101,0.00271,0.30777,-0.27285,-0.24587,983.13000,26.05000,283.95000
-0.01330,0.02142,0.97468,0.00053,0.00201,0.00271,0.30577,-0.26685,-0.23987,983.04000,26.05000,284.71000
-0.01522,0.02301,0.99374,0.00053,0.00301,0.00271,0.30777,-0.27185,-0.24187,983.21000,26.05000,283.26000
-0.01821,0.02538,1.00381,-0.00047,0.00201,0.00271,0.30877,-0.26985,-0.24987,983.09000,26.05000,284.25000
-0.01729,0.02610,0.99482,-0.00047,0.00001,0.00271,0.30677,-0.26685,-0.24087,983.16000,26.05000,283.65000
-0.01533,0.02471,0.98277,-0.00047,0.00001,0.00271,0.30377,-0.26785,-0.24387,983.13000,26.05000,283.90000
-0.01530,0.02373,0.98375,-0.00147,0.00001,0.00271,0.30877,-0.26585,-0.24587,983.25000,26.05000,282.88000
-0.01436,0.02454,0.97777,-0.00047,0.00001,0.00271,0.30877,-0.26585,-0.24587,983.10000,26.05000,284.21000
-0.01336,0.02337,0.97273,-0.00047,0.00101,0.00271,0.30777,-0.26785,-0.24387,983.21000,26.05000,283.25000
-0.01334,0.02348,0.97674,-0.00047,0.00201,0.00271,0.30677,-0.26885,-0.24087,983.11000,26.05000,284.14000
-0.01529,0.02491,0.98979,-0.00047,0.00301,0.00271,0.30777,-0.26885,-0.24287,983.15000,26.05000,283.78000
-0.01624,0.02519,0.99881,-0.00047,0.00101,0.00271,0.30977,-0.26885,-0.24087,983.18000,26.05000,283.54000
-0.01530,0.02376,0.98475,-0.00047,0.00001,0.00271,0.31077,-0.26785,-0.24087,983.13000,26.04000,283.97000
-0.01529,0.02379,0.98575,-0.00047,0.00001,0.00271,0.30877,-0.27185,-0.24087,983.13000,26.05000,283.95000
-0.01531,0.02368,0.98174,-0.00047,0.00001,0.00271,0.30877,-0.27185,-0.24087,983.13000,26.05000,283.93000
-0.01533,0.02474,0.98377,-0.00047,0.00101,0.00271,0.30877,-0.27385,-0.23787,983.14000,26.05000,283.88000
-0.01627,0.02393,0.98975,-0.00047,0.00101,0.00271,0.30677,-0.27485,-0.24187,983.18000,26.05000,283.48000
-0.01524,0.02176,0.98469,-0.00047,0.00101,0.00271,0.30777,-0.27285,-0.24087,983.14000,26.05000,283.89000
-0.01527,0.02390,0.98976,-0.00047,0.00101,0.00271,0.31277,-0.27185,-0.24187,983.20000,26.04000,283.32000
-0.01628,0.02499,0.99179,-0.00047,0.00001,0.00271,0.30377,-0.26885,-0.24387,983.15000,26.05000,283.77000
-0.01525,0.02284,0.98773,-0.00047,0.00001,0.00271,0.30677,-0.26785,-0.24787,983.10000,26.05000,284.23000
-0.01631,0.02485,0.98678,-0.00047,0.00001,0.00271,0.30677,-0.26785,-0.24787,983.23000,26.05000,283.13000
-0.01629,0.02382,0.98575,-0.00147,0.00001,0.00271,0.30577,-0.27185,-0.24987,983.16000,26.04000,283.66000
-0.01533,0.02359,0.97873,-0.00047,0.00101,0.00271,0.30777,-0.27185,-0.24287,983.10000,26.04000,284.16000
-0.01529,0.02379,0.98575,-0.00047,0.00101,0.00271,0.30877,-0.27285,-0.24387,983.15000,26.05000,283.79000
-0.01629,0.02493,0.98978,-0.00047,0.00101,0.00271,0.30677,-0.27185,-0.24287,983.17000,26.05000,283.64000
-0.01728,0.02393,0.98875,-0.00047,0.00101,0.00271,0.30877,-0.27585,-0.24887,983.13000,26.05000,283.97000
-0.01533,0.02474,0.98377,-0.00047,0.00001,0.00171,0.30777,-0.27185,-0.23987,983.13000,26.05000,283.97000
-0.01532,0.02479,0.98578,-0.00047,0.00001,0.00271,0.30777,-0.27185,-0.23987,983.19000,26.05000,283.43000
-0.01629,0.02384,0.98675,-0.00047,0.00101,0.00271,0.30477,-0.27085,-0.24387,983.05000,26.05000,284.62000
-0.01427,0.02273,0.98473,-0.00047,0.00001,0.00271,0.30277,-0.27185,-0.24287,983.03000,26.05000,284.77000
-0.01528,0.02382,0.98675,-0.00047,0.00001,0.00271,0.30577,-0.27185,-0.24887,983.09000,26.05000,284.27000
-0.01630,0.02379,0.98474,-0.00047,0.00001,0.00271,0.30677,-0.27385,-0.24387,983.10000,26.05000,284.20000
-0.01731,0.02379,0.98373,-0.00047,0.00101,0.00271,0.30577,-0.27185,-0.24687,983.15000,26.04000,283.75000
-0.01533,0.02471,0.98277,-0.00047,0.00101,0.00271,0.30477,-0.26985,-0.24587,983.13000,26.05000,283.91000
-0.01627,0.02393,0.98975,-0.00047,0.00101,0.00271,0.30477,-0.26985,-0.24587,983.11000,26.05000,284.08000
-0.01532,0.02588,0.98881,-0.00047,0.00101,0.00271,0.30277,-0.26885,-0.24787,983.13000,26.05000,283.97000
-0.01528,0.02382,0.98675,-0.00047,0.00001,0.00271,0.30277,-0.27385,-0.24487,983.15000,26.04000,283.80000
-0.01526,0.02279,0.98572,-0.00047,0.00001,0.00271,0.30677,-0.27485,-0.24587,983.19000,26.05000,283.41000
-0.01634,0.02582,0.98580,-0.00047,0.00101,0.00271,0.30477,-0.27585,-0.24987,983.15000,26.05000,283.75000
-0.01532,0.02476,0.98478,-0.00047,0.00101,0.00271,0.30877,-0.27185,-0.24987,983.17000,26.05000,283.63000
-0.01631,0.02488,0.98778,-0.00047,0.00101,0.00271,0.30877,-0.27585,-0.24987,983.15000,26.04000,283.76000
-0.01632,0.02482,0.98577,-0.00147,0.00001,0.00271,0.30877,-0.27585,-0.24987,983.11000,26.05000,284.12000
-0.01631,0.02373,0.98274,-0.00047,0.00101,0.00271,0.30677,-0.27385,-0.24087,983.13000,26.05000,283.90000
-0.01529,0.02379,0.98575,-0.00047,0.00001,0.00271,0.30277,-0.27185,-0.23887,983.15000,26.05000,283.78000
-0.01531,0.02482,0.98678,-0.00047,0.00001,0.00271,0.30477,-0.27185,-0.23587,983.12000,26.05000,284.07000
-0.01530,0.02376,0.98475,-0.00047,0.00101,0.00271,0.30077,-0.27185,-0.24687,983.10000,26.05000,284.18000
-0.01627,0.02393,0.98975,-0.00047,0.00101,0.00271,0.30577,-0.26985,-0.23587,983.17000,26.05000,283.63000
-0.01528,0.02385,0.98776,-0.00047,0.00001,0.00271,0.30177,-0.27285,-0.23887,983.20000,26.05000,283.32000
-0.01629,0.02382,0.98575,-0.00047,0.00101,0.00271,0.30177,-0.27285,-0.23887,983.18000,26.05000,283.55000
-0.01432,0.02474,0.98478,-0.00047,0.00001,0.00271,0.30177,-0.27285,-0.24587,983.18000,26.05000,283.54000
-0.01529,0.02379,0.98575,-0.00047,0.00001,0.00271,0.30477,-0.27585,-0.24587,983.25000,26.05000,282.95000
-0.01626,0.02284,0.98672,-0.00047,0.00001,0.00171,0.30677,-0.27485,-0.23687,983.05000,26.05000,284.59000
-0.01530,0.02488,0.98879,-0.00047,0.00001,0.00271,0.30877,-0.27185,-0.23987,983.09000,26.05000,284.32000
-0.01632,0.02482,0.98577,-0.00047,0.00001,0.00271,0.30477,-0.27485,-0.23587,983.18000,26.05000,283.54000
-0.01533,0.02474,0.98377,-0.00047,0.00001,0.00271,0.30277,-0.26885,-0.23987,983.14000,26.05000,283.86000
-0.01529,0.02379,0.98575,-0.00047,0.00001,0.00271,0.30277,-0.26885,-0.23987,983.16000,26.05000,283.65000
-0.01630,0.02376,0.98374,-0.00047,0.00101,0.00271,0.30277,-0.27185,-0.23687,983.08000,26.05000,284.38000
-0.01628,0.02387,0.98775,-0.00047,0.00101,0.00271,0.30177,-0.27085,-0.23687,983.17000,26.05000,283.57000
-0.01630,0.02376,0.98374,-0.00047,0.00101,0.00271,0.30577,-0.26885,-0.23887,983.09000,26.05000,284.29000
-0.01529,0.02379,0.98575,-0.00047,0.00101,0.00271,0.30677,-0.26985,-0.23587,983.14000,26.05000,283.82000
-0.01530,0.02488,0.98879,-0.00047,0.00101,0.00271,0.30277,-0.27385,-0.23587,983.16000,26.05000,283.68000
-0.01627,0.02390,0.98875,-0.00047,0.00001,0.00271,0.30877,-0.27185,-0.23687,983.18000,26.04000,283.52000
-0.01531,0.02371,0.98274,-0.00147,0.00001,0.00271,0.30877,-0.27185,-0.24087,983.12000,26.05000,284.00000
-0.01626,0.02284,0.98672,-0.00147,0.00001,0.00271,0.30777,-0.27185,-0.24087,983.20000,26.05000,283.38000
-0.01625,0.02287,0.98772,-0.00047,0.00101,0.00271,0.30577,-0.26985,-0.24187,983.14000,26.05000,283.85000
-0.01530,0.02376,0.98475,-0.00047,0.00001,0.00271,0.30577,-0.27185,-0.23987,983.14000,26.05000,283.90000
-0.01531,0.02371,0.98274,-0.00047,0.00001,0.00271,0.30477,-0.27585,-0.23887,983.08000,26.05000,284.40000
-0.01532,0.02479,0.98578,-0.00047,0.00101,0.00271,0.30377,-0.27185,-0.23887,983.17000,26.05000,283.63000
-0.01529,0.02379,0.98575,-0.00047,0.00101,0.00271,0.30277,-0.27285,-0.24187,983.12000,26.05000,284.07000
-0.01528,0.02385,0.98776,-0.00047,0.00101,0.00271,0.30277,-0.27185,-0.24387,983.20000,26.05000,283.35000
-0.01530,0.02488,0.98879,-0.00047,0.00101,0.00271,0.30277,-0.27185,-0.24387,983.16000,26.05000,283.72000
-0.01626,0.02284,0.98672,-0.00047,0.00101,0.00271,0.30777,-0.27385,-0.24287,983.14000,26.05000,283.87000
-0.01630,0.02376,0.98374,-0.00047,0.00001,0.00271,0.30477,-0.27285,-0.23687,983.15000,26.05000,283.76000
-0.01528,0.02382,0.98675,-0.00047,0.00001,0.00271,0.30777,-0.27085,-0.24187,983.13000,26.05000,283.94000
-0.01631,0.02373,0.98274,-0.00047,0.00001,0.00271,0.31077,-0.27185,-0.23987,983.09000,26.05000,284.25000
-0.01531,0.02371,0.98274,-0.00047,0.00001,0.00271,0.30477,-0.27085,-0.23487,983.12000,26.05000,284.00000
-0.01528,0.02385,0.98776,-0.00047,0.00101,0.00271,0.30677,-0.27385,-0.23687,983.12000,26.05000,284.03000
-0.01627,0.02390,0.98875,-0.00047,0.00001,0.00271,0.30677,-0.27385,-0.23687,983.11000,26.05000,284.11000
-0.01532,0.02476,0.98478,-0.00047,0.00001,0.00271,0.30777,-0.27285,-0.24187,983.19000,26.05000,283.44000
-0.01632,0.02482,0.98577,-0.00147,0.00101,0.00171,0.30777,-0.27285,-0.24887,983.12000,26.05000,284.04000
-0.01627,0.02390,0.98875,-0.00047,0.00001,0.00271,0.30477,-0.27385,-0.24487,983.11000,26.04000,284.14000
-0.01529,0.02379,0.98575,-0.00147,0.00001,0.00271,0.30577,-0.27485,-0.23987,983.10000,26.05000,284.19000
-0.01531,0.02371,0.98274,-0.00047,0.00001,0.00271,0.30377,-0.27185,-0.24287,983.08000,26.05000,284.34000
-0.01627,0.02281,0.98572,-0.00047,0.00001,0.00271,0.30377,-0.27485,-0.23887,983.15000,26.05000,283.79000
-0.01632,0.02482,0.98577,-0.00047,0.00001,0.00271,0.30377,-0.27485,-0.23887,983.16000,26.05000,283.69000
-0.01632,0.02482,0.98577,-0.00047,0.00101,0.00271,0.30077,-0.27285,-0.24487,983.11000,26.05000,284.09000
-0.01535,0.02574,0.98380,-0.00047,0.00101,0.00271,0.30677,-0.27685,-0.24187,983.11000,26.05000,284.10000
-0.01431,0.02480,0.98679,-0.00047,0.00001,0.00271,0.30277,-0.27485,-0.23987,983.13000,26.05000,283.96000
-0.01529,0.02379,0.98575,-0.00047,0.00001,0.00271,0.30677,-0.27385,-0.23787,983.13000,26.05000,283.95000
-0.01532,0.02476,0.98478,-0.00047,0.00001,0.00171,0.30377,-0.27085,-0.24187,983.15000,26.05000,283.74000
-0.01426,0.02276,0.98573,-0.00047,0.00001,0.00271,0.30377,-0.26985,-0.24287,983.19000,26.05000,283.45000
-0.01627,0.02390,0.98875,-0.00147,0.00001,0.00271,0.30377,-0.26985,-0.24287,983.11000,26.04000,284.08000
-0.01531,0.02482,0.98678,-0.00047,0.00001,0.00271,0.30777,-0.27185,-0.24587,983.19000,26.05000,283.47000
-0.01632,0.02482,0.98577,-0.00047,0.00001,0.00271,0.30477,-0.27085,-0.25387,983.15000,26.05000,283.77000
-0.01726,0.02290,0.98772,-0.00047,0.00001,0.00271,0.30277,-0.27185,-0.24887,983.10000,26.05000,284.22000
-0.01532,0.02365,0.98074,-0.00047,0.00001,0.00271,0.30177,-0.27085,-0.24087,983.16000,26.05000,283.70000
-0.01531,0.02368,0.98174,-0.00047,0.00001,0.00271,0.29877,-0.26985,-0.24887,983.14000,26.04000,283.83000
-0.01433,0.02471,0.98378,-0.00047,0.00001,0.00271,0.30377,-0.26985,-0.24487,983.11000,26.05000,284.08000
-0.01631,0.02373,0.98274,-0.00047,0.00101,0.00271,0.30377,-0.26985,-0.24487,983.15000,26.05000,283.82000
-0.01529,0.02379,0.98575,-0.00147,0.00101,0.00271,0.30477,-0.26885,-0.24287,983.14000,26.04000,283.84000
-0.01631,0.02488,0.98778,-0.00047,0.00101,0.00271,0.30277,-0.27385,-0.24087,983.08000,26.05000,284.40000
-0.01632,0.02367,0.98073,-0.00047,0.00101,0.00271,0.30377,-0.26885,-0.24187,983.10000,26.05000,284.22000
-0.01533,0.02474,0.98377,-0.00047,0.00101,0.00271,0.30377,-0.26985,-0.23987,983.19000,26.05000,283.42000
-0.01525,0.02396,0.99177,-0.00047,0.00001,0.00271,0.30577,-0.26985,-0.24887,983.18000,26.05000,283.51000
-0.01530,0.02376,0.98475,-0.00047,0.00001,0.00271,0.30677,-0.26985,-0.24787,983.12000,26.05000,283.99000
-0.01632,0.02367,0.98073,-0.00047,0.00001,0.00271,0.30677,-0.26985,-0.24787,983.13000,26.05000,283.93000
-0.01632,0.02482,0.98577,-0.00047,0.00101,0.00171,0.30177,-0.27085,-0.24087,983.14000,26.05000,283.87000
-0.01632,0.02479,0.98477,-0.00047,0.00101,0.00271,0.30677,-0.26785,-0.24387,983.15000,26.05000,283.79000
-0.01634,0.02471,0.98176,-0.00047,0.00101,0.00271,0.30477,-0.27185,-0.24587,983.16000,26.05000,283.67000
-0.01626,0.02396,0.99076,-0.00047,0.00101,0.00171,0.30477,-0.26985,-0.24687,983.15000,26.05000,283.75000
-0.01729,0.02387,0.98674,-0.00047,0.00101,0.00271,0.30477,-0.26585,-0.24087,983.26000,26.05000,282.84000
-0.01635,0.02465,0.97976,-0.00047,0.00101,0.00271,0.30577,-0.26785,-0.23987,983.13000,26.05000,283.93000
-0.01429,0.02376,0.98576,-0.00047,0.00101,0.00171,0.30577,-0.26785,-0.23987,983.13000,26.05000,283.96000
-0.01530,0.02488,0.98879,-0.00047,0.00101,0.00271,0.30877,-0.26485,-0.24287,983.17000,26.05000,283.57000
-0.01629,0.02384,0.98675,-0.00047,0.00101,0.00271,0.30877,-0.26685,-0.23887,983.11000,26.05000,284.11000
-0.01528,0.02385,0.98776,-0.00047,0.00101,0.00271,0.30577,-0.26585,-0.24687,983.06000,26.05000,284.51000
-0.01525,0.02284,0.98773,-0.00047,0.00101,0.00271,0.30477,-0.26985,-0.24687,983.16000,26.05000,283.67000
-0.01632,0.02370,0.98174,-0.00047,0.00001,0.00271,0.30677,-0.27085,-0.24087,983.10000,26.05000,284.22000
-0.01431,0.02365,0.98175,-0.00047,0.00101,0.00271,0.30677,-0.26585,-0.23787,983.16000,26.05000,283.68000
-0.01531,0.02482,0.98678,-0.00047,0.00101,0.00271,0.30677,-0.26585,-0.23787,983.14000,26.05000,283.83000
-0.01628,0.02387,0.98775,-0.00047,0.00101,0.00271,0.30877,-0.26885,-0.24287,983.19000,26.05000,283.41000
-0.01627,0.02279,0.98471,-0.00047,0.00101,0.00271,0.30977,-0.27085,-0.24687,983.12000,26.06000,284.00000
-0.01527,0.02388,0.98876,-0.00047,0.00001,0.00271,0.31277,-0.27085,-0.24387,983.12000,26.05000,284.00000
-0.01530,0.02373,0.98375,-0.00047,0.00001,0.00271,0.31377,-0.27085,-0.23987,983.16000,26.05000,283.69000
-0.01431,0.02365,0.98175,-0.00047,0.00101,0.00271,0.30977,-0.27185,-0.24387,983.10000,26.05000,284.20000
-0.01528,0.02382,0.98675,-0.00047,0.00101,0.00271,0.30977,-0.26985,-0.24587,983.14000,26.05000,283.88000
-0.01627,0.02279,0.98471,-0.00047,0.00101,0.00271,0.30977,-0.26985,-0.24587,983.13000,26.04000,283.95000
-0.01529,0.02379,0.98575,-0.00047,0.00101,0.00271,0.30777,-0.26785,-0.24587,983.16000,26.05000,283.72000
-0.01626,0.02396,0.99076,-0.00047,0.00101,0.00271,0.30877,-0.27085,-0.24087,983.13000,26.05000,283.92000
-0.01632,0.02482,0.98577,-0.00047,0.00001,0.00271,0.30677,-0.26985,-0.24387,983.11000,26.05000,284.12000
-0.01534,0.02468,0.98177,-0.00047,0.00001,0.00271,0.30977,-0.26985,-0.24887,983.18000,26.05000,283.54000
-0.01630,0.02379,0.98474,-0.00047,0.00001,0.00271,0.31077,-0.27185,-0.24287,983.13000,26.05000,283.98000
-0.01629,0.02382,0.98575,-0.00047,0.00001,0.00271,0.31177,-0.27185,-0.24587,983.17000,26.05000,283.62000
-0.01429,0.02374,0.98475,-0.00047,0.00101,0.00271,0.31177,-0.27185,-0.23987,983.16000,26.05000,283.66000
-0.01630,0.02490,0.98878,-0.00047,0.00101,0.00271,0.30877,-0.27085,-0.23987,983.16000,26.05000,283.72000
-0.01729,0.02387,0.98674,-0.00047,0.00101,0.00271,0.31077,-0.27585,-0.24287,983.10000,26.05000,284.20000
-0.01633,0.02476,0.98377,-0.00047,0.00001,0.00271,0.31077,-0.27285,-0.24187,983.11000,26.05000,284.10000
-0.01731,0.02490,0.98777,-0.00047,0.00001,0.00271,0.30977,-0.27085,-0.23987,983.08000,26.05000,284.33000
-0.01529,0.02379,0.98575,-0.00047,0.00001,0.00271,0.30577,-0.27085,-0.23987,983.11000,26.05000,284.13000
-0.01637,0.02571,0.98179,-0.00047,0.00101,0.00271,0.30377,-0.27685,-0.24187,983.06000,26.05000,284.51000
-0.01429,0.02374,0.98475,-0.00047,0.00001,0.00171,0.30377,-0.27285,-0.24487,983.16000,26.05000,283.69000
-0.01530,0.02373,0.98375,-0.00047,0.00101,0.00271,0.31177,-0.27285,-0.24487,983.12000,26.04000,284.03000
-0.01632,0.02482,0.98577,-0.00047,0.00101,0.00271,0.30877,-0.26685,-0.24687,983.12000,26.05000,284.01000
-0.01629,0.02493,0.98978,-0.00047,0.00001,0.00171,0.31577,-0.27085,-0.23787,983.10000,26.05000,284.18000
-0.01527,0.02390,0.98976,-0.00047,0.00001,0.00271,0.31277,-0.27285,-0.23987,983.14000,26.05000,283.87000
-0.01529,0.02379,0.98575,-0.00147,0.00001,0.00271,0.31177,-0.27185,-0.23887,983.15000,26.05000,283.76000
-0.01433,0.02471,0.98378,-0.00047,0.00001,0.00271,0.31077,-0.27185,-0.24387,983.16000,26.05000,283.65000
-0.01634,0.02359,0.97773,-0.00047,0.00001,0.00271,0.31277,-0.26985,-0.24087,983.17000,26.05000,283.62000
-0.01434,0.02354,0.97774,-0.00047,0.00101,0.00271,0.31277,-0.26985,-0.24087,983.07000,26.05000,284.45000
-0.01523,0.02410,0.99678,-0.00047,0.00101,0.00271,0.31177,-0.26885,-0.24387,983.13000,26.05000,283.92000
-0.01628,0.02502,0.99279,-0.00047,0.00001,0.00271,0.30977,-0.27085,-0.24487,983.09000,26.05000,284.25000
-0.01629,0.02384,0.98675,-0.00147,0.00001,0.00271,0.30877,-0.27185,-0.24187,983.08000,26.05000,284.41000
-0.01632,0.02482,0.98577,-0.00047,-0.00099,0.00271,0.31277,-0.26785,-0.23887,983.15000,26.05000,283.80000
-0.01530,0.02376,0.98475,-0.00047,0.00001,0.00271,0.31077,-0.26885,-0.23887,983.10000,26.05000,284.18000
-0.01629,0.02382,0.98575,-0.00047,0.00001,0.00271,0.31377,-0.27085,-0.24187,983.12000,26.05000,284.00000
-0.01731,0.02379,0.98373,-0.00047,0.00001,0.00171,0.31377,-0.27085,-0.24187,983.18000,26.05000,283.52000
-0.01537,0.02451,0.97575,-0.00047,0.00001,0.00171,0.30677,-0.27285,-0.24787,983.16000,26.05000,283.65000
-0.01533,0.02362,0.97974,-0.00047,0.00101,0.00271,0.30977,-0.27085,-0.23987,983.08000,26.05000,284.39000
-0.01522,0.02299,0.99274,-0.00047,0.00101,0.00271,0.30777,-0.27185,-0.24287,983.11000,26.05000,284.11000
-0.01725,0.02516,0.99679,-0.00047,0.00101,0.00271,0.30977,-0.27085,-0.23887,983.13000,26.05000,283.96000
-0.01632,0.02370,0.98174,-0.00147,0.00001,0.00271,0.30377,-0.27085,-0.24187,983.19000,26.05000,283.44000
-0.01535,0.02465,0.98077,-0.00147,0.00001,0.00271,0.30977,-0.27085,-0.24887,983.15000,26.05000,283.81000
-0.01530,0.02376,0.98475,-0.00047,0.00001,0.00271,0.30977,-0.27085,-0.24887,983.17000,26.05000,283.56000
-0.01530,0.02376,0.98475,-0.00047,0.00001,0.00271,0.30577,-0.27185,-0.24887,983.10000,26.05000,284.17000
-0.01530,0.02376,0.98475,-0.00047,0.00001,0.00271,0.30577,-0.27385,-0.24787,983.10000,26.05000,284.19000
-0.01426,0.02276,0.98573,-0.00147,0.00101,0.00271,0.30777,-0.27185,-0.24187,983.13000,26.05000,283.93000
-0.01629,0.02384,0.98675,-0.00047,0.00101,0.00271,0.30777,-0.27285,-0.23987,983.18000,26.04000,283.50000
-0.01529,0.02379,0.98575,-0.00047,0.00001,0.00271,0.30877,-0.27385,-0.24187,983.07000,26.04000,284.42000
-0.01526,0.02279,0.98572,-0.00147,0.00001,0.00271,0.30977,-0.27385,-0.24187,983.14000,26.05000,283.89000
-0.01632,0.02479,0.98477,-0.00147,0.00001,0.00271,0.30977,-0.27385,-0.24187,983.11000,26.05000,284.08000
-0.01632,0.02370,0.98174,-0.00047,0.00001,0.00271,0.30977,-0.27485,-0.23987,983.16000,26.05000,283.70000
-0.01427,0.02271,0.98372,-0.00047,0.00101,0.00271,0.31277,-0.27285,-0.23887,983.15000,26.05000,283.79000
-0.01530,0.02376,0.98475,-0.00047,0.00101,0.00271,0.30877,-0.27085,-0.24187,983.12000,26.05000,283.99000
-0.01531,0.02482,0.98678,-0.00047,0.00101,0.00271,0.30977,-0.27185,-0.24187,983.11000,26.05000,284.09000
-0.01625,0.02290,0.98872,-0.00047,0.00101,0.00271,0.30577,-0.26885,-0.23887,983.11000,26.05000,284.11000
-0.01627,0.02393,0.98975,-0.00047,0.00001,0.00271,0.30377,-0.27285,-0.24087,983.16000,26.05000,283.71000
-0.01625,0.02287,0.98772,-0.00047,0.00001,0.00171,0.30377,-0.27285,-0.24087,983.15000,26.05000,283.80000
-0.01529,0.02379,0.98575,-0.00047,0.00001,0.00271,0.30477,-0.27185,-0.24987,983.21000,26.05000,283.29000
-0.01530,0.02373,0.98375,-0.00047,0.00001,0.00271,0.30477,-0.27385,-0.23887,983.14000,26.05000,283.82000
-0.01534,0.02468,0.98177,-0.00047,0.00101,0.00171,0.30277,-0.27085,-0.23587,983.15000,26.05000,283.80000
-0.01532,0.02479,0.98578,-0.00047,0.00001,0.00271,0.30377,-0.27185,-0.23687,983.14000,26.05000,283.90000
-0.01630,0.02490,0.98878,-0.00047,0.00001,0.00271,0.30377,-0.27185,-0.23587,983.15000,26.05000,283.76000
-0.01731,0.02490,0.98777,-0.00047,0.00001,0.00271,0.30477,-0.27185,-0.23987,983.20000,26.05000,283.34000
-0.01629,0.02384,0.98675,-0.00147,0.00001,0.00271,0.30477,-0.27185,-0.23987,983.19000,26.05000,283.39000
-0.01632,0.02482,0.98577,-0.00147,0.00001,0.00271,0.30677,-0.26885,-0.24387,983.14000,26.05000,283.90000
-0.01629,0.02382,0.98575,-0.00147,0.00001,0.00271,0.31177,-0.26685,-0.23687,983.13000,26.05000,283.98000
-0.01528,0.02273,0.98372,-0.00047,0.00001,0.00271,0.30677,-0.27085,-0.23587,983.17000,26.05000,283.61000
-0.01628,0.02276,0.98371,-0.00047,0.00001,0.00271,0.30977,-0.27085,-0.23487,983.12000,26.05000,284.07000
-0.01530,0.02373,0.98375,-0.00047,0.00001,0.00271,0.30777,-0.27185,-0.23687,983.18000,26.05000,283.48000
-0.01728,0.02393,0.98875,-0.00047,0.00101,0.00171,0.30977,-0.27285,-0.24087,983.10000,26.05000,284.16000
-0.01629,0.02493,0.98978,-0.00047,0.00001,0.00271,0.30977,-0.27285,-0.24087,983.14000,26.05000,283.89000
-0.01528,0.02382,0.98675,-0.00047,0.00001,0.00271,0.30877,-0.27185,-0.24087,983.19000,26.05000,283.42000
-0.01430,0.02371,0.98375,-0.00047,0.00001,0.00271,0.31077,-0.27185,-0.24287,983.12000,26.05000,284.00000
-0.01529,0.02379,0.98575,-0.00047,0.00001,0.00271,0.30877,-0.27185,-0.23587,983.11000,26.05000,284.15000
-0.01532,0.02479,0.98578,-0.00047,0.00001,0.00271,0.30977,-0.27085,-0.23487,983.16000,26.05000,283.67000
-0.01530,0.02376,0.98475,-0.00047,0.00001,0.00271,0.30977,-0.27085,-0.23987,983.12000,26.05000,284.02000
-0.01532,0.02479,0.98578,-0.00047,0.00101,0.00271,0.31177,-0.27185,-0.23687,983.18000,26.04000,283.51000
-0.01528,0.02382,0.98675,-0.00047,0.00101,0.00171,0.31177,-0.27185,-0.23987,983.11000,26.05000,284.14000
-0.01530,0.02485,0.98778,-0.00047,0.00001,0.00171,0.30777,-0.27385,-0.23987,983.13000,26.05000,283.91000
-0.01626,0.02284,0.98672,-0.00047,0.00001,0.00271,0.30677,-0.26985,-0.24187,983.15000,26.05000,283.76000
-0.01729,0.02384,0.98574,-0.00047,0.00001,0.00271,0.30877,-0.26785,-0.23587,983.13000,26.05000,283.95000
-0.01429,0.02374,0.98475,-0.00047,0.00001,0.00271,0.30777,-0.26485,-0.23687,983.11000,26.05000,284.11000
-0.01632,0.02482,0.98577,-0.00047,0.00001,0.00271,0.30877,-0.26485,-0.23887,983.15000,26.05000,283.75000
-0.01629,0.02382,0.98575,-0.00047,0.00001,0.00271,0.30977,-0.27085,-0.24387,983.07000,26.05000,284.43000
-0.01530,0.02376,0.98475,-0.00047,0.00001,0.00271,0.30977,-0.26385,-0.24187,983.16000,26.05000,283.66000
-0.01429,0.02376,0.98576,-0.00047,0.00101,0.00271,0.30577,-0.26385,-0.24187,983.13000,26.05000,283.96000
-0.01633,0.02476,0.98377,-0.00047,0.00101,0.00171,0.30377,-0.26785,-0.23887,983.13000,26.05000,283.95000
-0.01527,0.02388,0.98876,-0.00047,0.00101,0.00271,0.30877,-0.26585,-0.23987,983.18000,26.05000,283.51000
-0.01731,0.02490,0.98777,-0.00047,0.00001,0.00271,0.31077,-0.27085,-0.24487,983.17000,26.05000,283.63000
-0.01631,0.02485,0.98678,-0.00147,0.00001,0.00271,0.30477,-0.26485,-0.23587,983.20000,26.05000,283.31000
-0.01528,0.02382,0.98675,-0.00047,0.00001,0.00271,0.30277,-0.26385,-0.23687,983.15000,26.05000,283.77000
-0.01629,0.02382,0.98575,-0.00047,0.00001,0.00271,0.30777,-0.26985,-0.23887,983.17000,26.05000,283.60000
-0.01429,0.02376,0.98576,-0.00047,0.00001,0.00271,0.30777,-0.26985,-0.23887,983.16000,26.05000,283.69000
-0.01530,0.02376,0.98475,-0.00047,0.00101,0.00271,0.30577,-0.26285,-0.23387,983.18000,26.05000,283.55000
-0.01629,0.02382,0.98575,-0.00047,0.00001,0.00271,0.30377,-0.26785,-0.23887,983.13000,26.05000,283.92000
-0.01532,0.02479,0.98578,-0.00047,0.00001,0.00271,0.30577,-0.26585,-0.24487,983.20000,26.05000,283.31000
-0.01626,0.02284,0.98672,-0.00047,0.00001,0.00271,0.30877,-0.26485,-0.24087,983.22000,26.05000,283.19000
-0.01632,0.02482,0.98577,-0.00047,0.00001,0.00171,0.30677,-0.26485,-0.23687,983.17000,26.05000,283.56000
-0.01532,0.02479,0.98578,-0.00047,0.00001,0.00271,0.30477,-0.26585,-0.24287,983.13000,26.05000,283.97000
-0.01627,0.02281,0.98572,-0.00147,0.00001,0.00271,0.30477,-0.26585,-0.24287,983.10000,26.05000,284.24000
-0.01529,0.02379,0.98575,-0.00047,0.00001,0.00271,0.30477,-0.26685,-0.24087,983.08000,26.05000,284.33000
-0.01527,0.02276,0.98472,-0.00047,0.00001,0.00271,0.30877,-0.26785,-0.24587,983.14000,26.05000,283.89000
-0.01429,0.02376,0.98576,-0.00047,0.00001,0.00271,0.30577,-0.26685,-0.24487,983.16000,26.05000,283.65000
-0.01429,0.02376,0.98576,-0.00147,0.00101,0.00271,0.30577,-0.26585,-0.24187,983.14000,26.05000,283.86000
-0.01532,0.02479,0.98578,-0.00047,0.00001,0.00271,0.30477,-0.26885,-0.24387,983.13000,26.05000,283.93000
-0.01631,0.02485,0.98678,-0.00047,0.00101,0.00271,0.30477,-0.26685,-0.23687,983.17000,26.05000,283.64000
-0.01629,0.02384,0.98675,-0.00047,0.00101,0.00271,0.30477,-0.26685,-0.23687,983.14000,26.05000,283.87000
-0.01626,0.02284,0.98672,-0.00047,0.00001,0.00271,0.30977,-0.26785,-0.24587,983.16000,26.05000,283.65000
-0.01532,0.02479,0.98578,-0.00047,0.00001,0.00271,0.30577,-0.26685,-0.24187,983.12000,26.05000,284.01000
-0.01530,0.02376,0.98475,-0.00047,0.00001,0.00271,0.30677,-0.27185,-0.24187,983.09000,26.05000,284.27000
-0.01531,0.02482,0.98678,-0.00047,0.00101,0.00271,0.30377,-0.26785,-0.23987,983.12000,26.05000,284.01000
-0.01629,0.02382,0.98575,-0.00047,0.00001,0.00271,0.30577,-0.26985,-0.23887,983.18000,26.05000,283.55000
-0.01626,0.02284,0.98672,-0.00047,0.00101,0.00271,0.30977,-0.26885,-0.23587,983.15000,26.05000,283.74000
-0.01629,0.02382,0.98575,-0.00047,0.00101,0.00271,0.30977,-0.26885,-0.23587,983.07000,26.05000,284.42000
-0.01530,0.02485,0.98778,-0.00147,0.00101,0.00271,0.30677,-0.26485,-0.23687,983.18000,26.05000,283.52000
-0.01530,0.02373,0.98375,-0.00047,0.00001,0.00271,0.30777,-0.26785,-0.23187,983.09000,26.05000,284.26000
-0.01532,0.02479,0.98578,-0.00047,0.00101,0.00271,0.30677,-0.26785,-0.23487,983.19000,26.05000,283.44000
-0.01629,0.02384,0.98675,-0.00047,0.00101,0.00271,0.30777,-0.26885,-0.23187,983.19000,26.05000,283.44000
-0.01629,0.02384,0.98675,-0.00047,0.00001,0.00271,0.30977,-0.26485,-0.23987,983.14000,26.05000,283.84000
-0.01429,0.02376,0.98576,-0.00047,0.00001,0.00271,0.30977,-0.26685,-0.23887,983.15000,26.05000,283.74000
-0.01530,0.02376,0.98475,-0.00047,0.00101,0.00271,0.30977,-0.26685,-0.23887,983.16000,26.05000,283.68000
-0.01629,0.02384,0.98675,-0.00047,0.00001,0.00271,0.30877,-0.26885,-0.23887,983.15000,26.05000,283.74000
-0.01632,0.02482,0.98577,-0.00047,0.00001,0.00271,0.30777,-0.26885,-0.23987,983.14000,26.05000,283.89000
-0.01427,0.02273,0.98473,-0.00047,0.00001,0.00271,0.30877,-0.26885,-0.24687,983.08000,26.05000,284.35000
-0.01629,0.02384,0.98675,-0.00047,0.00001,0.00271,0.30977,-0.27285,-0.25087,983.22000,26.05000,283.21000
-0.01629,0.02384,0.98675,-0.00047,0.00001,0.00271,0.30677,-0.26985,-0.24387,983.19000,26.05000,283.45000
-0.01529,0.02379,0.98575,-0.00047,0.00001,0.00271,0.30677,-0.26985,-0.24487,983.20000,26.05000,283.35000
-0.01431,0.02368,0.98275,-0.00047,0.00101,0.00271,0.30677,-0.26985,-0.24487,983.17000,26.05000,283.60000
-0.01529,0.02379,0.98575,-0.00047,0.00101,0.00271,0.30777,-0.27085,-0.23687,983.18000,26.05000,283.51000
-0.01530,0.02373,0.98375,-0.00047,0.00101,0.00271,0.31077,-0.26785,-0.24187,983.09000,26.05000,284.26000
-0.01632,0.02370,0.98174,-0.00047,0.00101,0.00271,0.30777,-0.27385,-0.23987,983.12000,26.05000,284.01000
-0.01721,0.02312,0.99574,-0.00047,0.00201,0.00271,0.30777,-0.27485,-0.24187,983.20000,26.05000,283.37000
-0.01728,0.02501,0.99178,-0.00047,0.00001,0.00271,0.30877,-0.27085,-0.24687,983.14000,26.05000,283.87000
-0.01628,0.02387,0.98775,-0.00047,0.00001,0.00271,0.30877,-0.27285,-0.24087,983.14000,26.05000,283.85000
-0.01628,0.02276,0.98371,-0.00047,0.00001,0.00271,0.30877,-0.27285,-0.24087,983.14000,26.05000,283.83000
-0.01530,0.02376,0.98475,-0.00047,0.00001,0.00271,0.30377,-0.26785,-0.23687,983.18000,26.05000,283.49000
-0.01530,0.02376,0.98475,-0.00047,0.00001,0.00271,0.30577,-0.26685,-0.23987,983.16000,26.05000,283.66000
-0.01629,0.02382,0.98575,-0.00047,0.00001,0.00271,0.30577,-0.27085,-0.23587,983.09000,26.05000,284.27000
-0.01634,0.02582,0.98580,-0.00047,0.00001,0.00271,0.30677,-0.26685,-0.24487,983.13000,26.05000,283.91000
-0.01629,0.02384,0.98675,-0.00047,0.00001,0.00271,0.30577,-0.27185,-0.24087,983.16000,26.05000,283.71000
-0.01530,0.02376,0.98475,-0.00047,0.00001,0.00271,0.30977,-0.27185,-0.24387,983.10000,26.05000,284.24000
-0.01426,0.02279,0.98673,-0.00047,0.00001,0.00271,0.30977,-0.27185,-0.24387,983.19000,26.05000,283.42000
-0.01530,0.02376,0.98475,-0.00047,0.00001,0.00271,0.31077,-0.26685,-0.23487,983.15000,26.05000,283.80000
-0.01632,0.02479,0.98477,-0.00047,0.00101,0.00271,0.30777,-0.26485,-0.23587,983.21000,26.05000,283.27000
-0.01632,0.02479,0.98477,-0.00047,0.00101,0.00271,0.30677,-0.26985,-0.23187,983.11000,26.05000,284.15000
-0.01529,0.02379,0.98575,-0.00047,0.00101,0.00271,0.30877,-0.26685,-0.22887,983.08000,26.05000,284.39000
-0.01530,0.02485,0.98778,-0.00047,0.00001,0.00271,0.30977,-0.26885,-0.23487,983.14000,26.05000,283.83000
-0.01528,0.02385,0.98776,-0.00147,0.00101,0.00271,0.30677,-0.26685,-0.23487,983.13000,26.05000,283.98000
-0.01629,0.02382,0.98575,-0.00047,0.00001,0.00271,0.30677,-0.26685,-0.23487,983.11000,26.05000,284.09000
-0.01631,0.02485,0.98678,-0.00047,0.00001,0.00271,0.30677,-0.27285,-0.23487,983.16000,26.05000,283.72000
-0.01632,0.02479,0.98477,-0.00047,0.00001,0.00271,0.30777,-0.27285,-0.23587,983.14000,26.05000,283.82000
-0.01627,0.02279,0.98471,-0.00047,0.00001,0.00271,0.30477,-0.27385,-0.23587,983.10000,26.05000,284.19000
-0.01433,0.02468,0.98278,-0.00047,0.00001,0.00271,0.30377,-0.27185,-0.24387,983.17000,26.05000,283.58000
-0.01630,0.02379,0.98474,-0.00047,0.00001,0.00271,0.30777,-0.27185,-0.23487,983.14000,26.05000,283.86000
-0.01629,0.02384,0.98675,-0.00047,0.00001,0.00271,0.30877,-0.27285,-0.23787,983.12000,26.05000,284.03000
-0.01629,0.02384,0.98675,-0.00047,0.00001,0.00271,0.30877,-0.27285,-0.24187,983.23000,26.05000,283.10000
-0.01632,0.02479,0.98477,-0.00047,0.00001,0.00271,0.30677,-0.26685,-0.24187,983.12000,26.05000,284.00000
-0.01532,0.02476,0.98478,-0.00047,0.00001,0.00271,0.30777,-0.26885,-0.24087,983.15000,26.05000,283.76000
-0.01530,0.02376,0.98475,-0.00047,0.00001,0.00271,0.30477,-0.26985,-0.23487,983.10000,26.04000,284.17000
-0.01426,0.02279,0.98673,-0.00047,0.00001,0.00271,0.30977,-0.26885,-0.23887,983.20000,26.05000,283.34000
-0.01529,0.02379,0.98575,-0.00047,0.00101,0.00271,0.30777,-0.26885,-0.23387,983.11000,26.05000,284.08000
-0.01631,0.02485,0.98678,-0.00047,0.00101,0.00271,0.30777,-0.27085,-0.23187,983.17000,26.05000,283.62000
-0.01528,0.02382,0.98675,-0.00047,0.00001,0.00271,0.30777,-0.27285,-0.24087,983.11000,26.04000,284.08000
-0.01332,0.02471,0.98479,-0.00047,0.00001,0.00271,0.30477,-0.27285,-0.24087,983.19000,26.05000,283.43000
-0.01532,0.02479,0.98578,-0.00047,0.00001,0.00271,0.30777,-0.26785,-0.23287,983.20000,26.05000,283.34000
-0.01632,0.02482,0.98577,-0.00047,0.00101,0.00271,0.30777,-0.26485,-0.23587,983.17000,26.05000,283.61000
-0.01533,0.02474,0.98377,-0.00047,0.00001,0.00271,0.30477,-0.26585,-0.24087,983.15000,26.05000,283.76000
-0.01632,0.02482,0.98577,-0.00047,0.00001,0.00271,0.30577,-0.26285,-0.24487,983.18000,26.05000,283.52000
-0.01729,0.02384,0.98574,-0.00047,0.00101,0.00271,0.30677,-0.26385,-0.24087,983.10000,26.05000,284.17000
-0.01729,0.02387,0.98674,-0.00047,0.00101,0.00271,0.30577,-0.26685,-0.24187,983.24000,26.05000,283.01000
-0.01528,0.02382,0.98675,-0.00047,0.00101,0.00271,0.30577,-0.26685,-0.24187,983.15000,26.05000,283.81000
-0.01531,0.02482,0.98678,-0.00047,0.00001,0.00271,0.30677,-0.26485,-0.23787,983.19000,26.05000,283.42000
-0.01431,0.02480,0.98679,-0.00147,0.00001,0.00271,0.30477,-0.26485,-0.24187,983.13000,26.05000,283.98000
-0.01730,0.02381,0.98474,-0.00047,0.00001,0.00271,0.30377,-0.26585,-0.24187,983.21000,26.05000,283.26000
-0.01633,0.02476,0.98377,-0.00047,0.00001,0.00271,0.30477,-0.26585,-0.24187,983.19000,26.05000,283.47000
-0.01629,0.02382,0.98575,-0.00047,0.00001,0.00271,0.29977,-0.26785,-0.24087,983.20000,26.05000,283.32000
-0.01529,0.02379,0.98575,-0.00047,0.00001,0.00271,0.30577,-0.26385,-0.23687,983.14000,26.05000,283.90000
-0.01532,0.02479,0.98578,-0.00047,0.00001,0.00271,0.30577,-0.26385,-0.23687,983.09000,26.05000,284.32000
-0.01629,0.02382,0.98575,-0.00047,0.00001,0.00271,0.30577,-0.26485,-0.23687,983.15000,26.05000,283.82000
-0.01631,0.02485,0.98678,-0.00047,0.00001,0.00271,0.30677,-0.26585,-0.23787,983.17000,26.05000,283.62000
-0.01630,0.02379,0.98474,-0.00047,0.00001,0.00271,0.30477,-0.26485,-0.23987,983.17000,26.05000,283.59000
-0.01629,0.02384,0.98675,-0.00147,0.00001,0.00271,0.30777,-0.26485,-0.23987,983.20000,26.05000,283.34000
-0.01527,0.02276,0.98472,-0.00047,0.00001,0.00271,0.30477,-0.26385,-0.23587,983.21000,26.05000,283.26000
-0.01526,0.02279,0.98572,-0.00047,0.00001,0.00271,0.30477,-0.26585,-0.24087,983.11000,26.05000,284.07000
-0.01529,0.02379,0.98575,-0.00047,0.00001,0.00271,0.30477,-0.26585,-0.24087,983.21000,26.05000,283.30000
-0.01428,0.02379,0.98676,-0.00047,0.00001,0.00271,0.30777,-0.26885,-0.23787,983.13000,26.05000,283.95000
-0.01530,0.02376,0.98475,-0.00047,0.00001,0.00271,0.30577,-0.26085,-0.24487,983.10000,26.05000,284.16000
-0.01528,0.02382,0.98675,-0.00047,0.00001,0.00271,0.30777,-0.26385,-0.23987,983.19000,26.05000,283.40000
-0.01532,0.02479,0.98578,-0.00047,0.00001,0.00271,0.30377,-0.26685,-0.23887,983.16000,26.05000,283.73000
-0.01632,0.02482,0.98577,-0.00047,0.00001,0.00271,0.30877,-0.27085,-0.23687,983.17000,26.05000,283.61000
-0.01528,0.02382,0.98675,-0.00047,0.00101,0.00271,0.30777,-0.27085,-0.23787,983.18000,26.05000,283.53000
-0.01528,0.02382,0.98675,-0.00047,0.00001,0.00271,0.30777,-0.27085,-0.23787,983.19000,26.05000,283.47000
-0.01533,0.02474,0.98377,-0.00047,0.00101,0.00271,0.30677,-0.26885,-0.23387,983.17000,26.05000,283.57000
-0.01630,0.02490,0.98878,-0.00147,0.00001,0.00171,0.30677,-0.26485,-0.24087,983.15000,26.05000,283.76000
-0.01530,0.02488,0.98879,-0.00047,0.00001,0.00171,0.30777,-0.26685,-0.23887,983.15000,26.05000,283.80000
-0.01431,0.02368,0.98275,-0.00047,0.00001,0.00271,0.30777,-0.26485,-0.23687,983.22000,26.05000,283.20000
-0.01630,0.02379,0.98474,-0.00047,0.00001,0.00271,0.30877,-0.26685,-0.23387,983.13000,26.05000,283.92000
-0.01532,0.02476,0.98478,-0.00047,0.00101,0.00271,0.30677,-0.26385,-0.23887,983.13000,26.05000,283.95000
-0.01431,0.02480,0.98679,-0.00047,0.00101,0.00271,0.30677,-0.26385,-0.23887,983.17000,26.05000,283.63000
-0.01729,0.02387,0.98674,-0.00047,0.00001,0.00271,0.30877,-0.26585,-0.23987,983.08000,26.05000,284.39000
-0.01526,0.02279,0.98572,-0.00047,0.00001,0.00271,0.30977,-0.26385,-0.24187,983.15000,26.05000,283.75000
-0.01625,0.02290,0.98872,-0.00047,0.00101,0.00271,0.30277,-0.26785,-0.24087,983.16000,26.05000,283.65000
-0.01532,0.02476,0.98478,-0.00047,0.00101,0.00271,0.30777,-0.26585,-0.23787,983.19000,26.05000,283.41000
-0.01532,0.02479,0.98578,-0.00047,0.00001,0.00271,0.30577,-0.26585,-0.24087,983.24000,26.04000,283.03000
-0.01533,0.02474,0.98377,-0.00047,0.00001,0.00271,0.30477,-0.26185,-0.24487,983.16000,26.05000,283.69000
-0.01632,0.02482,0.98577,-0.00047,0.00001,0.00271,0.30477,-0.26185,-0.24487,983.09000,26.05000,284.31000
-0.01528,0.02382,0.98675,-0.00047,0.00101,0.00271,0.30577,-0.26385,-0.23887,983.17000,26.05000,283.64000
-0.01629,0.02384,0.98675,-0.00047,0.00001,0.00271,0.30677,-0.26685,-0.24287,983.12000,26.05000,283.99000
-0.01528,0.02382,0.98675,-0.00047,0.00001,0.00271,0.30977,-0.26785,-0.23887,983.20000,26.05000,283.34000
-0.01433,0.02471,0.98378,-0.00047,0.00001,0.00271,0.30677,-0.26385,-0.24587,983.14000,26.05000,283.84000
-0.01632,0.02482,0.98577,-0.00047,0.00001,0.00271,0.30577,-0.26185,-0.24187,983.20000,26.05000,283.36000
-0.01632,0.02482,0.98577,-0.00047,0.00001,0.00271,0.30677,-0.26685,-0.24787,983.17000,26.05000,283.60000
-0.01632,0.02482,0.98577,-0.00047,0.00001,0.00271,0.30677,-0.26685,-0.24787,983.06000,26.05000,284.54000
-0.01627,0.02281,0.98572,-0.00047,0.00001,0.00271,0.30777,-0.26485,-0.23887,983.25000,26.05000,282.91000
-0.01528,0.02382,0.98675,-0.00047,0.00001,0.00271,0.30677,-0.26885,-0.24087,983.20000,26.05000,283.37000
-0.01529,0.02379,0.98575,-0.00047,0.00001,0.00271,0.30477,-0.26285,-0.24187,983.19000,26.05000,283.39000
-0.01630,0.02379,0.98474,-0.00047,0.00001,0.00271,0.31077,-0.26585,-0.23787,983.19000,26.05000,283.45000
-0.01630,0.02379,0.98474,-0.00047,0.00001,0.00271,0.30677,-0.26585,-0.24187,983.19000,26.05000,283.46000
-0.01628,0.02387,0.98775,-0.00047,0.00001,0.00171,0.30677,-0.26885,-0.23987,983.10000,26.05000,284.16000
-0.01629,0.02382,0.98575,-0.00047,0.00001,0.00271,0.30677,-0.26885,-0.23987,983.12000,26.05000,284.03000
-0.01528,0.02382,0.98675,-0.00047,0.00001,0.00271,0.30877,-0.26585,-0.23987,983.27000,26.05000,282.71000
-0.01427,0.02273,0.98473,-0.00047,0.00001,0.00271,0.30777,-0.26485,-0.24287,983.21000,26.05000,283.27000
-0.01630,0.02379,0.98474,-0.00047,0.00101,0.00271,0.31177,-0.26485,-0.23787,983.16000,26.05000,283.70000
-0.01527,0.02276,0.98472,-0.00047,0.00101,0.00271,0.30977,-0.26785,-0.24787,983.18000,26.05000,283.52000
-0.01627,0.02281,0.98572,-0.00047,0.00001,0.00271,0.31277,-0.26985,-0.24387,983.20000,26.05000,283.34000
-0.01529,0.02379,0.98575,-0.00047,0.00101,0.00271,0.30777,-0.26785,-0.23887,983.12000,26.05000,284.07000
-0.01531,0.02482,0.98678,-0.00047,0.00001,0.00271,0.30777,-0.26785,-0.24287,983.17000,26.05000,283.62000
-0.01526,0.02279,0.98572,-0.00047,0.00001,0.00271,0.31277,-0.26585,-0.24287,983.19000,26.05000,283.41000
-0.01530,0.02376,0.98475,-0.00047,0.00001,0.00271,0.30877,-0.26685,-0.24087,983.16000,26.05000,283.65000
-0.01632,0.02479,0.98477,-0.00047,0.00101,0.00271,0.30877,-0.26585,-0.24287,983.18000,26.05000,283.52000
-0.01629,0.02382,0.98575,-0.00047,0.00001,0.00271,0.30477,-0.26885,-0.23987,983.16000,26.05000,283.72000
-0.01632,0.02482,0.98577,-0.00047,0.00101,0.00271,0.31177,-0.27085,-0.24087,983.20000,26.05000,283.32000
-0.01534,0.02582,0.98681,-0.00047,0.00001,0.00271,0.30877,-0.26685,-0.23287,983.21000,26.05000,283.28000
-0.01632,0.02479,0.98477,-0.00047,0.00001,0.00271,0.30877,-0.26485,-0.23887,983.07000,26.05000,284.47000
-0.01429,0.02376,0.98576,-0.00047,0.00101,0.00271,0.30577,-0.26485,-0.23887,983.18000,26.05000,283.53000
-0.01629,0.02384,0.98675,-0.00047,0.00001,0.00271,0.30777,-0.26885,-0.23887,983.13000,26.05000,283.93000
-0.01632,0.02482,0.98577,-0.00047,0.00001,0.00271,0.30677,-0.26685,-0.24387,983.17000,26.05000,283.64000
-0.01431,0.02480,0.98679,-0.00047,0.00001,0.00271,0.30777,-0.26885,-0.24187,983.16000,26.05000,283.70000
-0.01629,0.02382,0.98575,-0.00047,0.00101,0.00271,0.30677,-0.27085,-0.23687,983.13000,26.05000,283.91000
-0.01632,0.02479,0.98477,-0.00047,0.00101,0.00271,0.30377,-0.27185,-0.23887,983.15000,26.05000,283.78000
-0.01532,0.02476,0.98478,-0.00147,0.00001,0.00271,0.30477,-0.26585,-0.23887,983.16000,26.05000,283.66000
-0.01629,0.02384,0.98675,-0.00047,0.00101,0.00271,0.30477,-0.26585,-0.23887,983.09000,26.05000,284.25000
-0.01528,0.02382,0.98675,-0.00047,0.00001,0.00271,0.30477,-0.26485,-0.23787,983.21000,26.06000,283.30000
-0.01525,0.02284,0.98773,-0.00047,0.00101,0.00271,0.30777,-0.26385,-0.23687,983.21000,26.05000,283.29000
-0.01629,0.02382,0.98575,-0.00047,0.00101,0.00271,0.30577,-0.26585,-0.24187,983.20000,26.05000,283.32000
-0.01531,0.02482,0.98678,-0.00047,0.00001,0.00271,0.30477,-0.26485,-0.23687,983.14000,26.05000,283.85000
-0.01530,0.02376,0.98475,-0.00047,0.00101,0.00271,0.30177,-0.26685,-0.23887,983.15000,26.05000,283.73000
-0.01526,0.02279,0.98572,-0.00047,0.00001,0.00271,0.30177,-0.26485,-0.23887,983.14000,26.06000,283.83000
-0.01532,0.02476,0.98478,-0.00047,0.00101,0.00271,0.30177,-0.26485,-0.23887,983.13000,26.05000,283.91000
-0.01629,0.02382,0.98575,-0.00047,0.00101,0.00171,0.30277,-0.26485,-0.23587,983.15000,26.05000,283.80000
-0.01732,0.02484,0.98577,-0.00047,0.00101,0.00271,0.30277,-0.26685,-0.23387,983.16000,26.06000,283.73000
-0.01632,0.02482,0.98577,-0.00047,0.00101,0.00271,0.30377,-0.26485,-0.24187,983.22000,26.05000,283.20000
-0.01629,0.02382,0.98575,-0.00047,0.00101,0.00271,0.30577,-0.26385,-0.23987,983.13000,26.05000,283.96000
-0.01527,0.02388,0.98876,-0.00047,0.00101,0.00271,0.30377,-0.26585,-0.24087,983.19000,26.05000,283.42000
-0.01531,0.02482,0.98678,-0.00047,0.00001,0.00271,0.30777,-0.26385,-0.24887,983.19000,26.05000,283.44000
-0.01629,0.02384,0.98675,-0.00047,0.00001,0.00271,0.30777,-0.26385,-0.24887,983.22000,26.05000,283.18000
-0.01532,0.02479,0.98578,-0.00047,0.00001,0.00271,0.30477,-0.26785,-0.24987,983.15000,26.05000,283.73000
-0.01532,0.02476,0.98478,-0.00047,0.00101,0.00271,0.30277,-0.26985,-0.24387,983.12000,26.05000,284.03000
-0.01533,0.02474,0.98377,-0.00047,0.00001,0.00271,0.30777,-0.26685,-0.24287,983.17000,26.05000,283.63000
-0.01529,0.02379,0.98575,-0.00047,0.00101,0.00271,0.30577,-0.26885,-0.24587,983.15000,26.05000,283.78000
-0.01631,0.02485,0.98678,-0.00047,0.00101,0.00271,0.30777,-0.26785,-0.24887,983.09000,26.05000,284.32000
-0.01528,0.02382,0.98675,-0.00047,0.00001,0.00271,0.30477,-0.26685,-0.24787,983.22000,26.05000,283.21000
-0.01732,0.02484,0.98577,-0.00047,0.00001,0.00271,0.30477,-0.26685,-0.24787,983.13000,26.05000,283.94000
-0.01632,0.02479,0.98477,-0.00047,0.00101,0.00271,0.30577,-0.26785,-0.24887,983.14000,26.05000,283.83000
-0.01629,0.02382,0.98575,-0.00047,0.00101,0.00271,0.30377,-0.26585,-0.25187,983.13000,26.05000,283.96000
-0.01529,0.02379,0.98575,-0.00047,0.00101,0.00271,0.30377,-0.26485,-0.24887,983.11000,26.05000,284.10000
-0.01526,0.02279,0.98572,-0.00047,0.00101,0.00271,0.30877,-0.26685,-0.25087,983.19000,26.05000,283.44000
-0.01629,0.02384,0.98675,-0.00047,0.00001,0.00271,0.30177,-0.26685,-0.24587,983.22000,26.05000,283.17000
-0.01632,0.02479,0.98477,-0.00047,0.00001,0.00271,0.29977,-0.26985,-0.24487,983.12000,26.05000,284.07000
-0.01634,0.02582,0.98580,-0.00047,0.00001,0.00271,0.29977,-0.26985,-0.24487,983.23000,26.05000,283.09000
-0.01532,0.02476,0.98478,-0.00047,0.00101,0.00171,0.30377,-0.27085,-0.24187,983.17000,26.05000,283.62000
-0.01526,0.02279,0.98572,-0.00047,0.00101,0.00271,0.30577,-0.27085,-0.25287,983.15000,26.05000,283.76000
-0.01628,0.02276,0.98371,-0.00047,0.00101,0.00271,0.30677,-0.26985,-0.24787,983.16000,26.05000,283.65000
-0.01529,0.02379,0.98575,-0.00047,0.00101,0.00271,0.30777,-0.27085,-0.24887,983.14000,26.05000,283.90000
-0.01629,0.02382,0.98575,-0.00047,0.00101,0.00271,0.30677,-0.26585,-0.24287,983.20000,26.05000,283.31000
-0.01528,0.02382,0.98675,-0.00047,0.00101,0.00271,0.30877,-0.26885,-0.24687,983.22000,26.05000,283.14000
-0.01729,0.02387,0.98674,-0.00047,0.00101,0.00271,0.30877,-0.26885,-0.24687,983.20000,26.05000,283.38000
-0.01528,0.02385,0.98776,-0.00047,0.00101,0.00271,0.30377,-0.26985,-0.24187,983.19000,26.05000,283.44000
-0.01529,0.02379,0.98575,-0.00047,0.00101,0.00271,0.30777,-0.26885,-0.24287,983.20000,26.05000,283.38000
-0.01429,0.02376,0.98576,-0.00047,0.00101,0.00171,0.30977,-0.26685,-0.23987,983.21000,26.05000,283.25000
-0.01632,0.02479,0.98477,-0.00047,0.00101,0.00271,0.30877,-0.26685,-0.23487,983.15000,26.06000,283.76000
-0.01631,0.02485,0.98678,-0.00047,0.00101,0.00271,0.31077,-0.26385,-0.23887,983.19000,26.05000,283.45000
-0.01530,0.02376,0.98475,-0.00047,0.00101,0.00271,0.30977,-0.26585,-0.24087,983.19000,26.05000,283.45000
-0.01429,0.02374,0.98475,-0.00047,0.00101,0.00271,0.30977,-0.26585,-0.24087,983.16000,26.05000,283.65000
-0.01626,0.02284,0.98672,-0.00047,0.00101,0.00171,0.30677,-0.26785,-0.23587,983.21000,26.05000,283.26000
-0.01730,0.02493,0.98877,-0.00047,0.00101,0.00271,0.31077,-0.26785,-0.23987,983.20000,26.06000,283.35000
-0.01527,0.02390,0.98976,-0.00047,0.00001,0.00171,0.30777,-0.26385,-0.23787,983.15000,26.05000,283.75000
-0.01729,0.02499,0.99078,-0.00047,0.00001,0.00271,0.30677,-0.26185,-0.23587,983.20000,26.05000,283.31000
-0.01531,0.02371,0.98274,-0.00047,0.00001,0.00271,0.30877,-0.26785,-0.23987,983.25000,26.05000,282.90000
-0.01535,0.02465,0.98077,-0.00047,0.00001,0.00271,0.30777,-0.26885,-0.24087,983.19000,26.05000,283.44000
-0.01532,0.02479,0.98578,-0.00047,0.00001,0.00271,0.30777,-0.26885,-0.24087,983.15000,26.05000,283.75000
-0.01627,0.02390,0.98875,-0.00047,0.00001,0.00271,0.30877,-0.26785,-0.24687,983.17000,26.05000,283.63000
-0.01624,0.02293,0.98973,-0.00047,0.00001,0.00271,0.31077,-0.26785,-0.24087,983.18000,26.05000,283.54000
-0.01629,0.02384,0.98675,-0.00047,0.00001,0.00271,0.30577,-0.26785,-0.23887,983.22000,26.05000,283.21000
-0.01630,0.02379,0.98474,-0.00047,0.00001,0.00271,0.30577,-0.26885,-0.24387,983.19000,26.05000,283.47000
-0.01629,0.02384,0.98675,-0.00047,0.00001,0.00271,0.30677,-0.26885,-0.24087,983.18000,26.05000,283.51000
-0.01629,0.02382,0.98575,-0.00047,0.00001,0.00271,0.30877,-0.26885,-0.23787,983.12000,26.05000,284.04000
-0.01632,0.02482,0.98577,-0.00047,0.00001,0.00271,0.30877,-0.26885,-0.24187,983.17000,26.05000,283.62000
-0.01629,0.02382,0.98575,-0.00047,0.00001,0.00171,0.30877,-0.26585,-0.24187,983.10000,26.05000,284.20000
-0.01528,0.02382,0.98675,-0.00047,-0.00099,0.00271,0.30977,-0.26585,-0.23387,983.18000,26.05000,283.52000
-0.01629,0.02382,0.98575,-0.00047,0.00001,0.00271,0.30577,-0.26685,-0.23887,983.19000,26.05000,283.41000
-0.01732,0.02484,0.98577,-0.00047,0.00001,0.00271,0.31177,-0.26985,-0.24087,983.16000,26.06000,283.69000
-0.01629,0.02382,0.98575,-0.00047,0.00001,0.00271,0.31177,-0.26685,-0.24087,983.15000,26.05000,283.74000
-0.01528,0.02382,0.98675,-0.00047,0.00001,0.00171,0.30877,-0.26785,-0.23887,983.19000,26.05000,283.42000
-0.01530,0.02485,0.98778,-0.00047,0.00001,0.00271,0.30877,-0.26585,-0.23587,983.17000,26.05000,283.59000
-0.01526,0.02279,0.98572,-0.00047,-0.00099,0.00271,0.30677,-0.26585,-0.23587,983.16000,26.05000,283.65000
-0.01630,0.02379,0.98474,-0.00047,-0.00099,0.00271,0.30877,-0.26785,-0.23687,983.23000,26.05000,283.08000
-0.01433,0.02471,0.98378,-0.00047,-0.00099,0.00271,0.31277,-0.26585,-0.22987,983.16000,26.05000,283.71000
-0.01433,0.02468,0.98278,-0.00047,0.00001,0.00271,0.30877,-0.26885,-0.23987,983.16000,26.05000,283.73000
-0.01631,0.02373,0.98274,-0.00047,0.00001,0.00271,0.30677,-0.27085,-0.23487,983.21000,26.05000,283.27000
-0.01632,0.02479,0.98477,-0.00047,0.00001,0.00271,0.30977,-0.26985,-0.23687,983.13000,26.06000,283.93000
-0.01631,0.02488,0.98778,-0.00047,0.00101,0.00271,0.30777,-0.26685,-0.24087,983.15000,26.05000,283.77000
-0.01528,0.02385,0.98776,-0.00047,0.00001,0.00271,0.30777,-0.26685,-0.24087,983.20000,26.05000,283.36000
-0.01629,0.02382,0.98575,-0.00047,0.00001,0.00171,0.30877,-0.26785,-0.23387,983.14000,26.05000,283.88000
-0.01530,0.02376,0.98475,-0.00047,0.00001,0.00271,0.30877,-0.26885,-0.24187,983.20000,26.05000,283.32000
-0.01533,0.02471,0.98277,-0.00047,0.00101,0.00271,0.31077,-0.26885,-0.24387,983.19000,26.05000,283.45000
-0.01428,0.02382,0.98776,-0.00047,0.00001,0.00271,0.30877,-0.26585,-0.24087,983.17000,26.05000,283.62000
-0.01630,0.02379,0.98474,-0.00047,0.00001,0.00271,0.30777,-0.26885,-0.23687,983.21000,26.05000,283.27000
-0.01434,0.02465,0.98178,-0.00047,0.00101,0.00271,0.30577,-0.26585,-0.24187,983.24000,26.05000,282.99000
-0.01429,0.02376,0.98576,-0.00047,0.00101,0.00271,0.30577,-0.26585,-0.24187,983.22000,26.05000,283.18000
-0.01530,0.02485,0.98778,-0.00047,0.00101,0.00271,0.31277,-0.26285,-0.23387,983.16000,26.05000,283.71000
-0.01532,0.02479,0.98578,-0.00047,0.00101,0.00271,0.30677,-0.26685,-0.23687,983.20000,26.05000,283.36000
-0.01629,0.02382,0.98575,-0.00047,0.00001,0.00271,0.30877,-0.26885,-0.23887,983.16000,26.05000,283.70000
-0.01630,0.02490,0.98878,-0.00047,0.00001,0.00271,0.30577,-0.27385,-0.23887,983.17000,26.05000,283.60000
-0.01729,0.02384,0.98574,-0.00047,0.00001,0.00271,0.30377,-0.26485,-0.23687,983.16000,26.05000,283.70000
-0.01531,0.02371,0.98274,-0.00047,0.00001,0.00271,0.30777,-0.26985,-0.23787,983.20000,26.05000,283.32000
-0.01525,0.02284,0.98773,-0.00047,0.00001,0.00271,0.30777,-0.26985,-0.23787,983.25000,26.05000,282.93000
-0.01531,0.02371,0.98274,-0.00047,0.00001,0.00271,0.30377,-0.26685,-0.24087,983.19000,26.06000,283.39000
-0.01429,0.02376,0.98576,-0.00047,0.00001,0.00271,0.30777,-0.26685,-0.24587,983.10000,26.05000,284.17000
-0.01531,0.02482,0.98678,-0.00047,0.00001,0.00271,0.30677,-0.26285,-0.24287,983.15000,26.05000,283.79000
-0.01532,0.02476,0.98478,-0.00147,0.00101,0.00271,0.30777,-0.26485,-0.24587,983.22000,26.05000,283.15000
-0.01533,0.02471,0.98277,-0.00047,0.00001,0.00271,0.30377,-0.26985,-0.24287,983.15000,26.05000,283.79000
-0.01531,0.02368,0.98174,-0.00047,0.00101,0.00271,0.30377,-0.26585,-0.24387,983.16000,26.05000,283.68000
-0.01533,0.02471,0.98277,-0.00147,0.00101,0.00271,0.30377,-0.26585,-0.24387,983.19000,26.05000,283.40000
-0.01534,0.02468,0.98177,-0.00147,0.00201,0.00171,0.30477,-0.27085,-0.23787,983.15000,26.05000,283.80000
-0.01736,0.02576,0.98279,-0.00047,0.00201,0.00271,0.30477,-0.26985,-0.23987,983.22000,26.05000,283.20000
-0.01626,0.02170,0.98168,-0.00047,0.00401,0.00271,0.30677,-0.26785,-0.23587,983.19000,26.05000,283.45000
-0.01627,0.02390,0.98875,-0.00147,0.00401,0.00271,0.30177,-0.26985,-0.24187,983.13000,26.06000,283.90000
-0.01626,0.02399,0.99176,-0.00147,0.00301,0.00271,0.30677,-0.26585,-0.23687,983.14000,26.05000,283.85000
-0.01721,0.02312,0.99574,-0.00047,0.00001,0.00271,0.30477,-0.26785,-0.24387,983.13000,26.05000,283.92000
-0.01627,0.02390,0.98875,-0.00047,0.00001,0.00271,0.30477,-0.26785,-0.24387,983.15000,26.05000,283.80000
-0.01634,0.02471,0.98176,-0.00047,0.00001,0.00271,0.30277,-0.27185,-0.24387,983.15000,26.06000,283.78000
-0.01535,0.02465,0.98077,-0.00047,0.00001,0.00271,0.30377,-0.26885,-0.23787,983.14000,26.05000,283.83000
-0.01533,0.02471,0.98277,-0.00047,0.00101,0.00271,0.30577,-0.26585,-0.23687,983.07000,26.05000,284.42000
-0.01635,0.02579,0.98480,-0.00147,0.00101,0.00271,0.30377,-0.26885,-0.23787,983.12000,26.05000,284.04000
-0.01631,0.02488,0.98778,-0.00047,0.00101,0.00271,0.30577,-0.26885,-0.24187,983.20000,26.05000,283.32000
-0.01431,0.02480,0.98679,-0.00147,0.00101,0.00271,0.30577,-0.26785,-0.23787,983.15000,26.05000,283.77000
-0.01630,0.02379,0.98474,-0.00147,0.00001,0.00271,0.30577,-0.26785,-0.23787,983.20000,26.05000,283.31000
-0.01634,0.02471,0.98176,-0.00047,0.00101,0.00271,0.30777,-0.26785,-0.24287,983.13000,26.05000,283.95000
-0.01530,0.02376,0.98475,-0.00047,0.00101,0.00271,0.30677,-0.26985,-0.24587,983.25000,26.05000,282.88000
-0.01625,0.02287,0.98772,-0.00047,0.00201,0.00271,0.30677,-0.27185,-0.24287,983.19000,26.05000,283.45000
-0.01728,0.02393,0.98875,-0.00147,0.00101,0.00171,0.30977,-0.27085,-0.24287,983.22000,26.05000,283.16000
-0.01626,0.02396,0.99076,-0.00147,0.00001,0.00171,0.30677,-0.26785,-0.24087,983.20000,26.05000,283.35000
-0.01534,0.02694,0.99085,-0.00047,0.00001,0.00271,0.30977,-0.26885,-0.24387,983.18000,26.06000,283.51000
-0.01725,0.02178,0.98368,-0.00047,0.00001,0.00271,0.30977,-0.26885,-0.24387,983.25000,26.05000,282.91000
-0.01430,0.02371,0.98375,-0.00147,-0.00099,0.00271,0.30677,-0.27185,-0.23987,983.19000,26.05000,283.43000
-0.01528,0.02385,0.98776,-0.00047,-0.00099,0.00271,0.31077,-0.27185,-0.23787,983.17000,26.05000,283.58000
-0.01428,0.02382,0.98776,-0.00047,-0.00199,0.00271,0.30877,-0.26985,-0.24287,983.19000,26.05000,283.40000
-0.01528,0.02385,0.98776,-0.00047,-0.00099,0.00271,0.31077,-0.27085,-0.24487,983.17000,26.05000,283.62000
-0.01529,0.02379,0.98575,-0.00047,-0.00099,0.00271,0.31277,-0.26885,-0.24887,983.19000,26.05000,283.42000
-0.01631,0.02485,0.98678,-0.00047,-0.00099,0.00271,0.30777,-0.26885,-0.24387,983.18000,26.05000,283.55000
-0.01631,0.02488,0.98778,-0.00147,-0.00199,0.00271,0.30777,-0.26885,-0.24487,983.17000,26.06000,283.64000
-0.01528,0.02385,0.98776,-0.00047,-0.00199,0.00271,0.30977,-0.27285,-0.24487,983.12000,26.05000,283.99000
-0.01530,0.02488,0.98879,-0.00047,-0.00199,0.00271,0.31077,-0.27085,-0.24087,983.13000,26.06000,283.91000
-0.01528,0.02385,0.98776,-0.00047,-0.00199,0.00271,0.30777,-0.26885,-0.24687,983.19000,26.05000,283.46000
-0.01529,0.02379,0.98575,-0.00047,-0.00199,0.00271,0.31177,-0.26785,-0.24387,983.20000,26.06000,283.32000
-0.01532,0.02479,0.98578,-0.00147,-0.00199,0.00271,0.31077,-0.27285,-0.24687,983.17000,26.06000,283.62000
-0.01532,0.02476,0.98478,-0.00147,-0.00199,0.00271,0.30977,-0.26985,-0.24387,983.19000,26.05000,283.47000
-0.01630,0.02379,0.98474,-0.00147,-0.00199,0.00271,0.30977,-0.26785,-0.24987,983.13000,26.05000,283.96000
-0.01433,0.02471,0.98378,-0.00147,-0.00199,0.00271,0.30777,-0.26785,-0.24987,983.22000,26.05000,283.20000
-0.01630,0.02379,0.98474,-0.00147,-0.00199,0.00271,0.30777,-0.26985,-0.24687,983.21000,26.05000,283.27000
-0.01527,0.02388,0.98876,-0.00047,-0.00099,0.00271,0.30577,-0.26685,-0.24087,983.20000,26.06000,283.35000
-0.01530,0.02485,0.98778,-0.00047,-0.00099,0.00271,0.30477,-0.26985,-0.24187,983.17000,26.05000,283.62000
-0.01528,0.02382,0.98675,-0.00047,-0.00199,0.00271,0.30677,-0.26985,-0.24287,983.15000,26.05000,283.75000
-0.01632,0.02370,0.98174,-0.00047,-0.00199,0.00271,0.30677,-0.26885,-0.24387,983.21000,26.06000,283.26000
-0.01527,0.02276,0.98472,-0.00147,-0.00199,0.00171,0.31077,-0.26685,-0.24087,983.19000,26.05000,283.47000
-0.01528,0.02382,0.98675,-0.00147,-0.00199,0.00271,0.31077,-0.26685,-0.24087,983.30000,26.06000,282.53000
-0.01527,0.02388,0.98876,-0.00147,-0.00199,0.00271,0.30677,-0.26985,-0.23887,983.18000,26.05000,283.54000
-0.01628,0.02387,0.98775,-0.00047,-0.00199,0.00271,0.31077,-0.26885,-0.24687,983.10000,26.05000,284.16000
-0.01329,0.02259,0.98072,-0.00047,-0.00199,0.00271,0.31277,-0.26685,-0.25087,983.17000,26.05000,283.64000
-0.01528,0.02385,0.98776,-0.00047,-0.00199,0.00271,0.31177,-0.26685,-0.24787,983.13000,26.05000,283.92000
-0.01530,0.02488,0.98879,-0.00047,-0.00199,0.00271,0.30777,-0.26385,-0.23787,983.18000,26.05000,283.50000
-0.01439,0.02328,0.96872,-0.00047,-0.00099,0.00271,0.31077,-0.26485,-0.24087,983.17000,26.05000,283.61000
-0.01329,0.02259,0.98072,-0.00147,-0.00099,0.00271,0.31077,-0.26485,-0.24087,983.15000,26.05000,283.78000
-0.01525,0.02396,0.99177,-0.00047,0.00001,0.00271,0.30977,-0.26585,-0.24887,983.16000,26.05000,283.70000
-0.01627,0.02505,0.99379,-0.00047,-0.00099,0.00271,0.30777,-0.26885,-0.24487,983.13000,26.05000,283.98000
-0.01335,0.02343,0.97474,-0.00147,-0.00099,0.00271,0.30977,-0.26485,-0.24287,983.20000,26.06000,283.35000
-0.01323,0.02176,0.98671,-0.00047,0.00001,0.00271,0.30977,-0.26685,-0.23687,983.19000,26.05000,283.45000
-0.01529,0.02493,0.99079,-0.00047,0.00001,0.00271,0.30877,-0.26785,-0.23787,983.11000,26.05000,284.08000
-0.01429,0.02376,0.98576,-0.00047,0.00001,0.00271,0.31077,-0.26885,-0.24087,983.25000,26.05000,282.92000
-0.01229,0.02257,0.98073,-0.00047,0.00001,0.00271,0.31077,-0.26885,-0.24087,983.13000,26.05000,283.98000
-0.01431,0.02477,0.98579,-0.00047,0.00001,0.00271,0.30977,-0.27085,-0.23587,983.17000,26.05000,283.64000
-0.01429,0.02374,0.98475,-0.00047,0.00001,0.00271,0.30377,-0.26985,-0.23987,983.18000,26.05000,283.49000
-0.01531,0.02371,0.98274,-0.00047,0.00001,0.00271,0.30477,-0.26685,-0.23887,983.13000,26.05000,283.98000
-0.01429,0.02262,0.98072,-0.00147,0.00101,0.00271,0.30477,-0.26685,-0.23887,983.25000,26.05000,282.95000
-0.01626,0.02396,0.99076,-0.00047,0.00101,0.00271,0.30777,-0.26885,-0.23987,983.20000,26.05000,283.36000
-0.01425,0.02393,0.99177,-0.00047,0.00001,0.00271,0.30077,-0.27185,-0.23987,983.20000,26.05000,283.35000
-0.01529,0.02265,0.98071,-0.00047,0.00001,0.00271,0.30077,-0.27185,-0.23987,983.15000,26.05000,283.75000
-0.01430,0.02371,0.98375,-0.00047,0.00001,0.00271,0.30177,-0.26785,-0.24187,983.13000,26.05000,283.94000
-0.01525,0.02399,0.99277,-0.00047,0.00001,0.00271,0.30677,-0.26785,-0.24087,983.13000,26.05000,283.95000
-0.01428,0.02379,0.98676,-0.00047,0.00101,0.00271,0.30377,-0.26485,-0.24487,983.22000,26.05000,283.18000
-0.01433,0.02471,0.98378,-0.00047,0.00001,0.00271,0.30677,-0.26685,-0.24487,983.27000,26.06000,282.77000
-0.01428,0.02379,0.98676,-0.00147,0.00001,0.00271,0.30877,-0.26985,-0.23887,983.21000,26.05000,283.24000
-0.01528,0.02273,0.98372,-0.00047,0.00001,0.00271,0.30777,-0.26485,-0.24187,983.18000,26.05000,283.56000
-0.01333,0.02466,0.98278,-0.00047,0.00001,0.00271,0.30777,-0.26485,-0.24187,983.18000,26.05000,283.49000
-0.01429,0.02376,0.98576,-0.00047,0.00001,0.00271,0.30177,-0.26885,-0.24187,983.17000,26.05000,283.59000
-0.01427,0.02385,0.98876,-0.00047,0.00101,0.00271,0.30577,-0.26785,-0.24387,983.11000,26.06000,284.10000
-0.01532,0.02479,0.98578,-0.00047,0.00101,0.00171,0.30377,-0.26785,-0.24387,983.21000,26.05000,283.28000
-0.01430,0.02371,0.98375,-0.00047,0.00101,0.00271,0.30377,-0.26685,-0.24387,983.17000,26.05000,283.60000
-0.01525,0.02399,0.99277,-0.00047,0.00101,0.00271,0.30777,-0.26785,-0.24187,983.19000,26.05000,283.45000
-0.01527,0.02388,0.98876,-0.00047,0.00001,0.00271,0.30577,-0.26885,-0.23987,983.16000,26.05000,283.67000
-0.01432,0.02362,0.98074,-0.00047,0.00001,0.00271,0.30577,-0.26885,-0.23987,983.11000,26.05000,284.12000
-0.01334,0.02463,0.98178,-0.00047,0.00001,0.00271,0.30477,-0.26385,-0.23487,983.22000,26.06000,283.16000
-0.01326,0.02385,0.98977,-0.00047,0.00001,0.00271,0.30777,-0.27185,-0.24087,983.22000,26.06000,283.14000
-0.01625,0.02287,0.98772,-0.00047,0.00001,0.00271,0.30977,-0.26485,-0.23787,983.17000,26.05000,283.63000
-0.01334,0.02463,0.98178,-0.00047,0.00001,0.00271,0.30977,-0.26585,-0.23787,983.22000,26.05000,283.16000
-0.01430,0.02485,0.98879,-0.00047,0.00001,0.00271,0.30777,-0.26185,-0.23987,983.28000,26.06000,282.69000
-0.01527,0.02388,0.98876,-0.00047,0.00001,0.00271,0.30777,-0.26385,-0.24487,983.14000,26.05000,283.82000
-0.01427,0.02273,0.98473,-0.00047,0.00001,0.00271,0.30777,-0.26385,-0.24487,983.18000,26.05000,283.51000
-0.01531,0.02371,0.98274,-0.00047,0.00001,0.00271,0.30977,-0.26785,-0.23787,983.07000,26.05000,284.44000
-0.01428,0.02382,0.98776,-0.00047,0.00001,0.00271,0.30777,-0.26485,-0.24387,983.16000,26.05000,283.71000
-0.01430,0.02371,0.98375,-0.00047,-0.00099,0.00271,0.30677,-0.26885,-0.23887,983.11000,26.05000,284.07000
-0.01431,0.02480,0.98679,-0.00047,0.00001,0.00271,0.30577,-0.26685,-0.24287,983.25000,26.05000,282.90000
-0.01531,0.02482,0.98678,-0.00047,0.00001,0.00271,0.30677,-0.26785,-0.24087,983.18000,26.05000,283.52000
-0.00785,0.04561,0.98542,-0.00047,0.00001,0.00571,0.30777,-0.26685,-0.24587,983.19000,26.05000,283.42000
-0.00058,0.11473,0.99344,-0.00247,-0.00099,0.09671,0.30777,-0.26685,-0.24587,983.18000,26.05000,283.52000
-0.01453,0.03273,0.98401,-0.00747,-0.00599,0.33471,0.30477,-0.26985,-0.24687,983.25000,26.05000,282.90000
0.01176,0.10130,0.99013,-0.00647,-0.00199,0.34571,0.30677,-0.27385,-0.24187,983.13000,26.05000,283.98000
-0.00517,0.05751,0.98377,-0.01247,-0.00999,0.45871,0.30477,-0.27285,-0.24687,983.17000,26.05000,283.62000
0.00469,0.06550,0.99208,-0.01047,-0.00299,0.52870,0.30577,-0.27985,-0.24687,983.21000,26.05000,283.24000
-0.01237,0.06579,0.98696,-0.01347,-0.00699,0.57870,0.30677,-0.28185,-0.24887,983.14000,26.05000,283.84000
-0.02091,0.04686,0.98236,-0.01547,-0.00699,0.70770,0.30277,-0.28685,-0.24887,983.29000,26.05000,282.60000
-0.02309,0.01715,0.99152,-0.02047,-0.00699,0.73870,0.30277,-0.28685,-0.24687,983.25000,26.05000,282.88000
-0.03375,0.04135,0.98813,-0.01447,-0.01099,0.72170,0.30077,-0.28985,-0.24687,983.13000,26.05000,283.94000
-0.03980,0.00335,0.98401,-0.01747,-0.00899,0.72570,0.30277,-0.29985,-0.24587,983.21000,26.05000,283.28000
-0.01881,0.04169,0.97822,-0.01547,-0.00799,0.65470,0.30177,-0.30185,-0.24387,983.17000,26.05000,283.59000
-0.01174,0.04176,0.98729,-0.01047,-0.00799,0.67170,0.29477,-0.30685,-0.24387,983.22000,26.05000,283.16000
-0.03418,0.01932,0.98750,-0.01647,-0.00599,0.66570,0.29277,-0.31285,-0.23887,983.18000,26.06000,283.54000
-0.02930,0.02198,0.97960,-0.01547,-0.00999,0.69270,0.29377,-0.31985,-0.23887,983.17000,26.06000,283.60000
-0.03226,0.02111,0.98156,-0.01647,-0.01099,0.70570,0.28577,-0.31985,-0.23587,983.17000,26.05000,283.62000
0.00157,0.03157,0.99309,-0.01447,-0.00699,0.68771,0.28577,-0.31985,-0.23587,983.23000,26.05000,283.07000
-0.00180,0.04225,0.97835,-0.01747,-0.00999,0.68371,0.28677,-0.32685,-0.24187,983.20000,26.05000,283.31000
0.00841,0.07639,0.99141,-0.01247,-0.00599,0.67671,0.27877,-0.33285,-0.23887,983.17000,26.05000,283.61000
-0.00244,0.03050,0.98703,-0.01547,-0.00699,0.63870,0.27777,-0.33385,-0.23887,983.20000,26.05000,283.37000
-0.01652,-0.00623,0.98489,-0.01047,-0.00499,0.59970,0.27577,-0.33985,-0.24487,983.15000,26.05000,283.77000
-0.04146,-0.04870,0.98252,-0.01347,-0.00499,0.53170,0.26977,-0.34485,-0.24787,983.15000,26.05000,283.77000
-0.05273,-0.03948,0.97970,-0.01247,-0.00399,0.43071,0.27077,-0.34285,-0.24087,983.22000,26.05000,283.16000
-0.04545,-0.01170,0.97753,-0.00947,-0.00299,0.33971,0.27077,-0.34285,-0.24087,983.20000,26.05000,283.36000
-0.01304,-0.02319,0.99044,-0.00447,-0.00099,0.26871,0.27077,-0.34185,-0.23487,983.18000,26.06000,283.51000
-0.00098,-0.06577,0.98230,-0.00547,-0.00299,0.09871,0.26477,-0.34285,-0.23887,983.17000,26.05000,283.57000
-0.01239,0.02770,0.98488,-0.00047,0.00001,0.01071,0.26977,-0.34385,-0.24087,983.22000,26.06000,283.22000
-0.01344,0.02978,0.98693,-0.00047,0.00001,0.00271,0.27077,-0.34685,-0.24287,983.25000,26.05000,282.89000
-0.01243,0.02979,0.98794,-0.00047,0.00001,0.00271,0.26977,-0.34885,-0.23787,983.17000,26.06000,283.62000
-0.01241,0.02873,0.98591,-0.00047,0.00001,0.00271,0.26877,-0.34685,-0.24187,983.16000,26.05000,283.70000
-0.01344,0.02975,0.98593,-0.00047,0.00101,0.00271,0.26877,-0.34685,-0.24187,983.16000,26.05000,283.70000
-0.01339,0.02886,0.98991,-0.00047,0.00101,0.00271,0.27077,-0.34685,-0.24087,983.18000,26.05000,283.51000
-0.01333,0.02806,0.99690,-0.00047,0.00001,0.00271,0.26877,-0.34385,-0.24087,983.28000,26.06000,282.66000
-0.01149,0.02945,0.97692,-0.00047,0.00001,0.00271,0.27077,-0.35085,-0.24087,983.12000,26.05000,284.05000
-0.01242,0.02870,0.98491,-0.00047,0.00001,0.00271,0.26577,-0.34885,-0.23987,983.20000,26.05000,283.31000
-0.01340,0.02881,0.98791,-0.00047,0.00101,0.00271,0.26777,-0.34885,-0.23787,983.11000,26.05000,284.09000
-0.01340,0.02881,0.98791,-0.00047,0.00001,0.00271,0.26577,-0.34685,-0.24687,983.12000,26.05000,284.01000
-0.01245,0.02856,0.97990,-0.00047,0.00001,0.00271,0.26577,-0.34685,-0.24687,983.18000,26.05000,283.56000
-0.01342,0.02987,0.98994,-0.00047,0.00001,0.00271,0.26577,-0.34885,-0.23787,983.19000,26.05000,283.44000
-0.01343,0.02981,0.98794,-0.00047,0.00001,0.00271,0.27277,-0.34685,-0.24087,983.17000,26.05000,283.60000
-0.01346,0.02853,0.97788,-0.00047,0.00101,0.00271,0.26777,-0.34885,-0.23987,983.19000,26.06000,283.46000
-0.01342,0.02875,0.98590,-0.00047,0.00101,0.00271,0.26877,-0.34885,-0.24687,983.21000,26.05000,283.24000
-0.01243,0.02979,0.98794,-0.00047,0.00101,0.00271,0.26777,-0.34685,-0.24887,983.20000,26.05000,283.36000
-0.01343,0.02870,0.98390,-0.00047,0.00101,0.00271,0.26977,-0.34785,-0.24087,983.23000,26.06000,283.11000
-0.01138,0.02775,0.98789,-0.00147,0.00101,0.00271,0.26977,-0.34785,-0.24087,983.21000,26.05000,283.27000
-0.01237,0.02895,0.99393,-0.00047,0.00001,0.00271,0.27277,-0.34285,-0.23687,983.22000,26.05000,283.17000
-0.01437,0.02786,0.98888,-0.00047,0.00001,0.00271,0.26577,-0.34685,-0.24087,983.17000,26.05000,283.58000
-0.01240,0.02767,0.98388,-0.00047,0.00001,0.00171,0.26777,-0.34785,-0.23887,983.19000,26.06000,283.40000
-0.01340,0.02881,0.98791,-0.00047,0.00101,0.00271,0.27077,-0.34885,-0.24687,983.26000,26.05000,282.84000
-0.01439,0.02892,0.99091,-0.00047,0.00001,0.00271,0.26777,-0.35185,-0.24687,983.25000,26.05000,282.90000
-0.01246,0.02964,0.98293,-0.00047,0.00001,0.00271,0.26677,-0.34785,-0.24487,983.21000,26.05000,283.24000
-0.01245,0.02970,0.98494,-0.00047,0.00001,0.00271,0.26677,-0.34785,-0.24487,983.16000,26.05000,283.68000
-0.01241,0.02764,0.98287,-0.00047,0.00001,0.00271,0.26777,-0.34585,-0.24587,983.22000,26.05000,283.14000
-0.01340,0.02881,0.98791,-0.00047,0.00001,0.00271,0.26377,-0.35285,-0.24287,983.15000,26.05000,283.78000
-0.01345,0.02861,0.98089,-0.00047,0.00001,0.00271,0.26777,-0.34885,-0.24387,983.19000,26.05000,283.41000
-0.01239,0.02770,0.98488,-0.00047,0.00001,0.00271,0.26577,-0.34585,-0.23787,983.21000,26.06000,283.26000
-0.01339,0.02775,0.98588,-0.00047,0.00101,0.00271,0.26677,-0.34285,-0.23987,983.19000,26.05000,283.39000
-0.01344,0.02978,0.98693,-0.00047,0.00101,0.00271,0.26577,-0.34685,-0.24487,983.14000,26.05000,283.88000
-0.01339,0.02663,0.98184,-0.00147,0.00101,0.00271,0.26577,-0.34685,-0.24487,983.14000,26.05000,283.85000
-0.01343,0.02758,0.97986,-0.00047,0.00201,0.00271,0.26877,-0.34685,-0.24587,983.16000,26.05000,283.71000
-0.01240,0.02767,0.98388,-0.00047,0.00201,0.00271,0.26977,-0.34585,-0.24587,983.23000,26.05000,283.10000
-0.01434,0.02915,0.99893,-0.00047,0.00201,0.00271,0.26277,-0.34785,-0.24687,983.23000,26.05000,283.08000
-0.01439,0.02892,0.99091,-0.00047,0.00101,0.00271,0.26877,-0.34785,-0.24187,983.18000,26.05000,283.53000
-0.01247,0.02844,0.97589,-0.00047,0.00101,0.00271,0.26577,-0.34685,-0.24487,983.20000,26.05000,283.37000
-0.01146,0.02847,0.97790,-0.00047,0.00201,0.00271,0.26677,-0.34585,-0.23987,983.24000,26.06000,283.03000
-0.01338,0.02892,0.99192,-0.00047,0.00201,0.00271,0.26677,-0.34585,-0.23987,983.17000,26.05000,283.57000
-0.01344,0.02864,0.98189,-0.00047,0.00101,0.00271,0.26577,-0.35085,-0.24187,983.16000,26.06000,283.65000
-0.01241,0.02873,0.98591,-0.00047,0.00101,0.00271,0.26577,-0.34785,-0.24187,983.14000,26.05000,283.88000
-0.01341,0.02878,0.98691,-0.00047,0.00201,0.00271,0.27177,-0.34685,-0.23787,983.14000,26.06000,283.86000
-0.01441,0.02883,0.98790,-0.00047,0.00101,0.00271,0.26977,-0.34885,-0.23587,983.13000,26.06000,283.96000
-0.01241,0.02873,0.98591,0.00053,0.00101,0.00271,0.27077,-0.34885,-0.23687,983.29000,26.06000,282.61000
-0.01236,0.02786,0.99089,-0.00047,0.00101,0.00271,0.27277,-0.34785,-0.23887,983.18000,26.05000,283.48000
-0.01243,0.02864,0.98290,-0.00047,0.00101,0.00271,0.27277,-0.34785,-0.24087,983.26000,26.06000,282.82000
-0.01347,0.02964,0.98192,-0.00047,0.00101,0.00271,0.27077,-0.34485,-0.24087,983.21000,26.06000,283.24000
-0.01340,0.02772,0.98487,-0.00047,0.00201,0.00271,0.27177,-0.34485,-0.24287,983.20000,26.05000,283.35000
-0.01339,0.02889,0.99092,-0.00047,0.00201,0.00271,0.26677,-0.34485,-0.23487,983.18000,26.06000,283.49000
-0.01344,0.03090,0.99097,-0.00047,0.00101,0.00271,0.26977,-0.34585,-0.23887,983.19000,26.06000,283.47000
-0.01342,0.02872,0.98490,-0.00047,0.00101,0.00271,0.27277,-0.34685,-0.23887,983.22000,26.05000,283.15000
-0.01344,0.02978,0.98693,-0.00047,0.00101,0.00271,0.27777,-0.34485,-0.23787,983.26000,26.06000,282.86000
-0.01441,0.02883,0.98790,-0.00047,0.00101,0.00271,0.27777,-0.34585,-0.23887,983.24000,26.05000,283.02000
-0.01145,0.02965,0.98394,-0.00047,0.00101,0.00271,0.27277,-0.34585,-0.23887,983.22000,26.06000,283.16000
-0.01242,0.02870,0.98491,-0.00047,0.00101,0.00271,0.27477,-0.34585,-0.23687,983.15000,26.05000,283.78000
-0.01241,0.02873,0.98591,-0.00047,0.00101,0.00271,0.27377,-0.34385,-0.24187,983.17000,26.05000,283.60000
-0.01341,0.02878,0.98691,-0.00047,0.00101,0.00271,0.27677,-0.34885,-0.23887,983.19000,26.06000,283.39000
-0.01444,0.02869,0.98289,-0.00047,0.00101,0.00271,0.26877,-0.34585,-0.24087,983.28000,26.06000,282.70000
-0.01342,0.02875,0.98590,-0.00047,0.00101,0.00271,0.27077,-0.34585,-0.24087,983.25000,26.05000,282.92000
-0.01344,0.02978,0.98693,-0.00047,0.00101,0.00271,0.27177,-0.34485,-0.23587,983.19000,26.05000,283.40000
-0.01343,0.02870,0.98390,-0.00047,0.00101,0.00271,0.27177,-0.34485,-0.23587,983.20000,26.05000,283.32000
-0.01242,0.02870,0.98491,-0.00047,0.00101,0.00271,0.27277,-0.34485,-0.23987,983.23000,26.05000,283.10000
-0.01441,0.02883,0.98790,-0.00047,0.00101,0.00271,0.26877,-0.34285,-0.22887,983.21000,26.05000,283.28000
-0.01444,0.02978,0.98593,-0.00047,0.00101,0.00271,0.27377,-0.34885,-0.23587,983.23000,26.06000,283.07000
-0.01345,0.02973,0.98493,-0.00047,0.00101,0.00271,0.27377,-0.35185,-0.23887,983.23000,26.05000,283.06000
-0.01243,0.02864,0.98290,-0.00047,0.00101,0.00271,0.27677,-0.34785,-0.24487,983.15000,26.05000,283.76000
-0.01442,0.02878,0.98590,-0.00047,0.00101,0.00271,0.27077,-0.35085,-0.24087,983.23000,26.05000,283.11000
-0.01238,0.02890,0.99192,-0.00047,0.00101,0.00271,0.27077,-0.35085,-0.24087,983.22000,26.06000,283.19000
-0.01245,0.02970,0.98494,-0.00047,0.00101,0.00271,0.26777,-0.34785,-0.24487,983.18000,26.05000,283.50000
-0.01343,0.02867,0.98290,-0.00047,0.00001,0.00271,0.26777,-0.34985,-0.23787,983.27000,26.06000,282.75000
-0.01241,0.02873,0.98591,-0.00047,0.00101,0.00271,0.27177,-0.34985,-0.24087,983.27000,26.06000,282.78000
-0.01242,0.02984,0.98995,-0.00047,0.00101,0.00271,0.26977,-0.34585,-0.24287,983.15000,26.05000,283.78000
-0.01245,0.02970,0.98494,-0.00047,0.00001,0.00271,0.27177,-0.34485,-0.24187,983.16000,26.06000,283.66000
-0.01341,0.02878,0.98691,-0.00047,0.00101,0.00271,0.26677,-0.34685,-0.23787,983.15000,26.06000,283.74000
-0.01340,0.02881,0.98791,-0.00047,0.00001,0.00271,0.26677,-0.34685,-0.23787,983.16000,26.06000,283.72000
-0.01245,0.02970,0.98494,-0.00047,0.00001,0.00271,0.26777,-0.34585,-0.23587,983.18000,26.06000,283.53000
-0.01343,0.02867,0.98290,-0.00047,0.00001,0.00271,0.26977,-0.34285,-0.24087,983.17000,26.05000,283.60000
-0.01245,0.02970,0.98494,-0.00047,0.00101,0.00271,0.27077,-0.34085,-0.23887,983.19000,26.06000,283.43000
-0.01342,0.02875,0.98590,-0.00047,0.00101,0.00271,0.27177,-0.34285,-0.24087,983.27000,26.05000,282.78000
-0.01443,0.02984,0.98793,-0.00047,0.00101,0.00171,0.26577,-0.34085,-0.23987,983.22000,26.06000,283.22000
-0.01342,0.02984,0.98894,-0.00047,0.00101,0.00271,0.26577,-0.34385,-0.24087,983.10000,26.06000,284.24000
-0.01248,0.03065,0.98296,-0.00047,0.00101,0.00271,0.26577,-0.34385,-0.24087,983.18000,26.05000,283.56000
-0.01247,0.02959,0.98093,-0.00047,0.00101,0.00271,0.27177,-0.34485,-0.23687,983.22000,26.06000,283.18000
-0.01243,0.02979,0.98794,-0.00047,0.00101,0.00271,0.27277,-0.34585,-0.24087,983.21000,26.06000,283.26000
-0.01337,0.02786,0.98989,-0.00047,0.00101,0.00271,0.27277,-0.34585,-0.23687,983.20000,26.06000,283.32000
-0.01341,0.02878,0.98691,-0.00047,0.00101,0.00271,0.27377,-0.34585,-0.23887,983.18000,26.06000,283.55000
-0.01442,0.02989,0.98994,-0.00047,0.00101,0.00271,0.26877,-0.34585,-0.23987,983.25000,26.05000,282.96000
-0.01346,0.03079,0.98696,-0.00047,0.00101,0.00271,0.27177,-0.34785,-0.23687,983.20000,26.05000,283.32000
-0.01348,0.02958,0.97992,-0.00047,0.00101,0.00271,0.27177,-0.34785,-0.23687,983.16000,26.06000,283.67000
-0.01241,0.02761,0.98187,-0.00047,0.00101,0.00271,0.26877,-0.34685,-0.23487,983.19000,26.05000,283.42000
-0.01345,0.02973,0.98493,-0.00047,0.00101,0.00271,0.27077,-0.34385,-0.23687,983.26000,26.05000,282.80000
-0.01344,0.02975,0.98593,-0.00047,0.00101,0.00271,0.27077,-0.34385,-0.24287,983.31000,26.05000,282.40000
-0.01442,0.02989,0.98994,-0.00047,0.00101,0.00271,0.26677,-0.34485,-0.23787,983.23000,26.06000,283.12000
-0.01542,0.02995,0.99093,-0.00047,0.00201,0.00271,0.26677,-0.34285,-0.24287,983.24000,26.05000,283.04000
-0.01342,0.02872,0.98490,-0.00047,0.00201,0.00171,0.26877,-0.33985,-0.23787,983.13000,26.05000,283.95000
-0.01445,0.02861,0.97988,-0.00047,0.00101,0.00271,0.26877,-0.33985,-0.23787,983.20000,26.06000,283.38000
-0.01543,0.02989,0.98893,-0.00047,0.00101,0.00271,0.26577,-0.34585,-0.23687,983.21000,26.05000,283.29000
-0.01442,0.02875,0.98490,-0.00047,0.00101,0.00271,0.26777,-0.34585,-0.23987,983.24000,26.05000,283.05000
-0.01947,0.02982,0.98289,-0.00047,0.00101,0.00371,0.26877,-0.34685,-0.23687,983.18000,26.05000,283.51000
-0.00940,0.02759,0.98389,0.00053,0.00101,0.00171,0.26977,-0.34785,-0.23987,983.14000,26.06000,283.83000
-0.01340,0.02884,0.98891,0.00053,0.00201,-0.00129,0.26877,-0.34485,-0.23887,983.18000,26.05000,283.49000
-0.01542,0.02992,0.98993,-0.00047,0.00101,0.00171,0.27077,-0.34485,-0.23987,983.18000,26.06000,283.54000
-0.01343,0.02870,0.98390,-0.00047,0.00001,0.00271,0.27077,-0.34485,-0.23987,983.16000,26.06000,283.72000
-0.01248,0.02956,0.97992,-0.00047,0.00001,0.00271,0.26877,-0.34585,-0.23787,983.19000,26.05000,283.47000
-0.01343,0.02758,0.97986,-0.00047,0.00101,0.00271,0.27077,-0.34385,-0.23987,983.19000,26.06000,283.39000
-0.01340,0.02772,0.98487,-0.00047,0.00201,0.00271,0.27177,-0.34285,-0.23487,983.28000,26.06000,282.64000
-0.01342,0.02875,0.98590,-0.00047,0.00101,0.00271,0.26977,-0.34285,-0.23487,983.25000,26.06000,282.91000
-0.01438,0.02783,0.98787,-0.00047,0.00101,0.00271,0.27277,-0.34885,-0.24487,983.20000,26.06000,283.38000
-0.01444,0.02981,0.98693,-0.00047,0.00101,0.00271,0.27277,-0.34785,-0.23487,983.23000,26.06000,283.08000
-0.01344,0.02975,0.98593,-0.00047,0.00001,0.00271,0.27277,-0.34785,-0.23487,983.22000,26.06000,283.19000
-0.01340,0.02881,0.98791,-0.00047,0.00101,0.00271,0.26977,-0.34585,-0.24287,983.18000,26.06000,283.50000
-0.01541,0.02883,0.98689,-0.00047,0.00001,0.00271,0.27077,-0.34585,-0.23587,983.24000,26.06000,283.03000
-0.01542,0.02880,0.98589,-0.00047,0.00001,0.00271,0.26777,-0.34085,-0.24187,983.29000,26.05000,282.61000
-0.01443,0.02986,0.98893,-0.00047,0.00101,0.00271,0.27277,-0.34385,-0.24487,983.24000,26.05000,283.01000
-0.01441,0.02883,0.98790,-0.00047,0.00001,0.00271,0.27377,-0.33985,-0.24387,983.14000,26.06000,283.83000
-0.01342,0.02984,0.98894,-0.00047,0.00001,0.00271,0.26977,-0.34285,-0.24087,983.22000,26.06000,283.21000
-0.01242,0.02984,0.98995,-0.00047,0.00001,0.00271,0.26977,-0.34285,-0.24587,983.20000,26.06000,283.36000
-0.01344,0.02978,0.98693,-0.00047,0.00001,0.00271,0.27177,-0.34285,-0.24587,983.26000,26.06000,282.81000
-0.01444,0.02978,0.98593,-0.00047,0.00001,0.00271,0.27077,-0.34585,-0.24587,983.21000,26.06000,283.26000
-0.01345,0.02973,0.98493,-0.00047,0.00001,0.00271,0.27077,-0.34485,-0.25087,983.26000,26.06000,282.80000
-0.01244,0.02861,0.98190,-0.00047,0.00001,0.00271,0.26877,-0.34285,-0.25387,983.14000,26.06000,283.86000
-0.01444,0.02866,0.98189,-0.00047,0.00101,0.00271,0.26877,-0.34285,-0.24687,983.21000,26.06000,283.27000
-0.01446,0.03081,0.98696,-0.00047,0.00101,0.00271,0.26777,-0.34585,-0.24587,983.14000,26.05000,283.82000
-0.01341,0.02878,0.98691,-0.00147,0.00001,0.00271,0.26777,-0.34685,-0.24387,983.24000,26.06000,283.01000
-0.01245,0.02970,0.98494,-0.00047,0.00001,0.00271,0.26777,-0.34685,-0.24387,983.22000,26.06000,283.17000
-0.01442,0.02878,0.98590,-0.00047,0.00101,0.00271,0.27477,-0.34685,-0.24487,983.25000,26.06000,282.93000
-0.01438,0.02895,0.99191,-0.00047,0.00101,0.00271,0.26877,-0.34785,-0.24187,983.22000,26.06000,283.16000
-0.01444,0.02981,0.98693,-0.00047,0.00101,0.00271,0.27377,-0.34585,-0.24787,983.17000,26.05000,283.57000
-0.01442,0.02878,0.98590,-0.00047,0.00101,0.00271,0.27377,-0.34385,-0.23987,983.34000,26.06000,282.15000
-0.01444,0.02978,0.98593,-0.00047,0.00001,0.00271,0.26877,-0.34685,-0.24687,983.20000,26.06000,283.33000
-0.01439,0.02892,0.99091,-0.00047,0.00001,0.00271,0.26677,-0.34985,-0.24887,983.26000,26.06000,282.86000
-0.01341,0.02766,0.98287,-0.00047,0.00001,0.00271,0.26677,-0.34985,-0.24887,983.20000,26.05000,283.36000
-0.01542,0.02880,0.98589,-0.00047,0.00101,0.00271,0.26677,-0.34985,-0.24687,983.21000,26.05000,283.29000
-0.01441,0.02883,0.98790,-0.00047,0.00001,0.00271,0.26777,-0.34585,-0.24787,983.14000,26.06000,283.83000
-0.01444,0.02978,0.98593,-0.00047,0.00001,0.00271,0.26977,-0.34785,-0.24787,983.19000,26.06000,283.41000
-0.01342,0.02875,0.98590,-0.00047,0.00101,0.00271,0.26977,-0.34585,-0.24587,983.19000,26.05000,283.42000
-0.01240,0.02878,0.98791,-0.00047,0.00101,0.00271,0.27177,-0.34885,-0.24887,983.20000,26.05000,283.31000
-0.01444,0.02981,0.98693,-0.00047,0.00101,0.00271,0.27177,-0.34685,-0.24787,983.27000,26.05000,282.73000
-0.01445,0.02975,0.98492,-0.00047,0.00101,0.00271,0.27177,-0.34685,-0.24787,983.25000,26.05000,282.92000
-0.01444,0.02978,0.98593,-0.00047,0.00001,0.00271,0.27177,-0.34585,-0.24287,983.19000,26.06000,283.39000
-0.01443,0.02984,0.98793,-0.00047,0.00101,0.00271,0.26777,-0.34585,-0.24487,983.16000,26.05000,283.72000
-0.01343,0.02981,0.98794,-0.00047,0.00101,0.00271,0.27277,-0.34385,-0.24387,983.15000,26.06000,283.74000
-0.01441,0.02881,0.98690,-0.00147,0.00001,0.00271,0.26977,-0.34685,-0.23487,983.24000,26.06000,283.03000
-0.01243,0.02979,0.98794,-0.00047,0.00001,0.00271,0.26977,-0.34985,-0.23987,983.27000,26.06000,282.74000
-0.01444,0.02981,0.98693,-0.00147,0.00001,0.00271,0.27077,-0.34685,-0.24187,983.16000,26.06000,283.72000
-0.01342,0.02875,0.98590,-0.00047,0.00001,0.00271,0.27077,-0.34685,-0.24187,983.21000,26.06000,283.27000
-0.01445,0.02975,0.98492,-0.00047,0.00001,0.00271,0.27077,-0.34785,-0.24087,983.23000,26.06000,283.13000
-0.01340,0.02772,0.98487,-0.00047,0.00001,0.00271,0.27077,-0.34585,-0.24287,983.14000,26.06000,283.84000
-0.01543,0.02877,0.98489,-0.00047,0.00001,0.00271,0.27177,-0.34385,-0.24087,983.22000,26.05000,283.16000
-0.01339,0.02889,0.99092,-0.00047,0.00001,0.00271,0.26877,-0.34485,-0.24487,983.22000,26.05000,283.18000
-0.01438,0.02895,0.99191,-0.00147,0.00001,0.00271,0.26877,-0.34685,-0.23887,983.22000,26.06000,283.19000
-0.01443,0.02984,0.98793,-0.00147,0.00001,0.00271,0.26977,-0.34385,-0.24287,983.17000,26.06000,283.59000
-0.01443,0.02872,0.98389,-0.00147,0.00001,0.00271,0.26977,-0.34385,-0.24287,983.18000,26.06000,283.56000
-0.01343,0.02867,0.98290,-0.00047,0.00001,0.00271,0.27477,-0.34385,-0.23787,983.19000,26.06000,283.47000
-0.01342,0.02875,0.98590,-0.00047,0.00001,0.00171,0.27177,-0.34885,-0.23887,983.26000,26.05000,282.81000
-0.01344,0.02978,0.98693,-0.00047,0.00001,0.00271,0.27077,-0.34385,-0.23487,983.19000,26.06000,283.41000
-0.01345,0.02973,0.98493,-0.00047,0.00001,0.00271,0.27177,-0.34485,-0.23787,983.21000,26.05000,283.27000
-0.01241,0.02873,0.98591,-0.00047,0.00101,0.00271,0.26777,-0.34385,-0.24287,983.18000,26.05000,283.53000
-0.01343,0.02981,0.98794,-0.00147,0.00001,0.00271,0.27077,-0.34685,-0.24987,983.22000,26.05000,283.17000
-0.01441,0.02881,0.98690,-0.00047,0.00101,0.00171,0.27077,-0.34685,-0.24987,983.20000,26.05000,283.37000
-0.01440,0.02886,0.98891,-0.00047,0.00001,0.00271,0.27077,-0.34085,-0.24487,983.21000,26.05000,283.26000
-0.01345,0.02973,0.98493,-0.00047,0.00001,0.00271,0.27077,-0.34485,-0.24787,983.18000,26.05000,283.53000
-0.01348,0.03070,0.98396,-0.00047,0.00001,0.00271,0.26877,-0.34485,-0.24487,983.21000,26.06000,283.30000
-0.01241,0.02875,0.98691,-0.00047,0.00001,0.00271,0.27077,-0.34585,-0.23987,983.21000,26.06000,283.29000
-0.01444,0.02981,0.98693,-0.00047,0.00001,0.00271,0.27477,-0.34585,-0.24887,983.23000,26.06000,283.07000
-0.01444,0.02981,0.98693,-0.00047,0.00001,0.00271,0.26977,-0.34585,-0.24187,983.17000,26.06000,283.64000
-0.01343,0.02981,0.98794,-0.00147,0.00001,0.00271,0.26977,-0.34585,-0.24187,983.21000,26.06000,283.24000
-0.01345,0.02970,0.98393,-0.00047,0.00001,0.00271,0.27177,-0.34285,-0.24487,983.24000,26.06000,283.05000
-0.01447,0.02964,0.98091,-0.00047,0.00001,0.00271,0.26777,-0.34485,-0.24187,983.20000,26.06000,283.33000
-0.01444,0.02981,0.98693,-0.00047,0.00001,0.00271,0.27077,-0.34785,-0.24887,983.23000,26.06000,283.13000
-0.01339,0.02886,0.98991,-0.00047,0.00001,0.00271,0.27177,-0.34385,-0.24887,983.22000,26.06000,283.18000
-0.01441,0.02881,0.98690,-0.00047,0.00001,0.00271,0.27277,-0.34385,-0.24987,983.31000,26.05000,282.40000
-0.01439,0.02780,0.98687,-0.00047,0.00001,0.00271,0.26977,-0.34285,-0.25187,983.19000,26.06000,283.46000
-0.01341,0.02878,0.98691,-0.00047,0.00001,0.00271,0.26977,-0.34285,-0.25187,983.16000,26.06000,283.73000
-0.01446,0.02970,0.98292,-0.00047,0.00001,0.00271,0.26677,-0.34685,-0.24787,983.21000,26.05000,283.26000
-0.01245,0.02856,0.97990,-0.00047,0.00001,0.00271,0.26677,-0.34385,-0.24787,983.26000,26.05000,282.82000
-0.01440,0.02775,0.98487,-0.00047,0.00101,0.00271,0.26677,-0.34785,-0.24987,983.16000,26.05000,283.66000
-0.01442,0.02989,0.98994,-0.00047,0.00001,0.00271,0.27077,-0.34585,-0.24487,983.21000,26.05000,283.26000
-0.01342,0.02875,0.98590,-0.00047,0.00001,0.00271,0.27577,-0.35085,-0.24587,983.21000,26.06000,283.30000
-0.01440,0.02886,0.98891,-0.00147,0.00001,0.00171,0.26877,-0.34885,-0.23887,983.20000,26.06000,283.33000
-0.01441,0.02883,0.98790,-0.00147,0.00001,0.00271,0.26877,-0.34885,-0.24687,983.24000,26.05000,282.97000
-0.01442,0.02875,0.98490,-0.00147,0.00001,0.00271,0.26677,-0.34885,-0.24687,983.28000,26.06000,282.70000
-0.01446,0.02970,0.98292,-0.00047,0.00001,0.00271,0.26877,-0.34985,-0.24587,983.20000,26.06000,283.36000
-0.01342,0.02872,0.98490,-0.00047,0.00001,0.00271,0.26777,-0.34885,-0.24587,983.19000,26.06000,283.44000
-0.01443,0.02986,0.98893,-0.00047,0.00001,0.00271,0.26777,-0.34685,-0.24087,983.24000,26.06000,282.98000
-0.01443,0.02986,0.98893,-0.00047,0.00001,0.00271,0.26877,-0.34785,-0.24687,983.22000,26.06000,283.20000
-0.01445,0.02975,0.98492,-0.00047,0.00001,0.00271,0.25977,-0.34485,-0.25087,983.19000,26.06000,283.44000
-0.01245,0.02970,0.98494,-0.00047,0.00001,0.00271,0.25977,-0.35085,-0.24787,983.22000,26.06000,283.22000
-0.01243,0.02976,0.98694,-0.00047,0.00001,0.00271,0.26777,-0.35085,-0.24787,983.22000,26.06000,283.18000
-0.01445,0.02975,0.98492,-0.00047,0.00001,0.00271,0.26677,-0.34985,-0.24287,983.23000,26.06000,283.10000
-0.01543,0.02875,0.98389,-0.00047,0.00001,0.00271,0.26577,-0.34785,-0.25087,983.21000,26.05000,283.25000
-0.01343,0.02870,0.98390,-0.00047,0.00001,0.00271,0.26877,-0.35085,-0.24687,983.26000,26.06000,282.84000
-0.01343,0.02867,0.98290,-0.00047,0.00001,0.00271,0.26577,-0.35185,-0.24187,983.25000,26.06000,282.93000
-0.01444,0.02981,0.98693,-0.00047,0.00001,0.00271,0.26377,-0.34885,-0.24487,983.22000,26.06000,283.16000
-0.01440,0.02886,0.98891,-0.00047,0.00001,0.00271,0.26977,-0.35085,-0.24287,983.20000,26.06000,283.34000
-0.01244,0.02973,0.98594,-0.00147,0.00001,0.00271,0.26977,-0.35085,-0.24287,983.22000,26.06000,283.14000
-0.01344,0.02978,0.98693,-0.00147,0.00101,0.00271,0.26877,-0.35185,-0.24687,983.22000,26.06000,283.14000
-0.01444,0.02981,0.98693,-0.00047,0.00001,0.00271,0.26577,-0.35085,-0.24387,983.23000,26.06000,283.08000
-0.01345,0.02970,0.98393,-0.00047,0.00001,0.00271,0.26677,-0.35285,-0.24187,983.17000,26.05000,283.61000
-0.01243,0.02867,0.98391,-0.00047,0.00001,0.00271,0.26677,-0.34585,-0.24187,983.21000,26.06000,283.22000
-0.01441,0.02881,0.98690,-0.00047,0.00001,0.00271,0.26577,-0.34885,-0.24087,983.19000,26.06000,283.39000
-0.01344,0.02975,0.98593,-0.00047,0.00001,0.00271,0.26477,-0.34985,-0.23787,983.26000,26.06000,282.81000
-0.01341,0.02878,0.98691,-0.00047,0.00001,0.00271,0.26477,-0.34985,-0.23787,983.17000,26.06000,283.63000
-0.01443,0.02984,0.98793,-0.00047,0.00101,0.00271,0.26077,-0.34785,-0.23987,983.19000,26.05000,283.39000
-0.01444,0.02978,0.98593,-0.00047,0.00101,0.00271,0.26677,-0.34785,-0.24087,983.18000,26.06000,283.51000
-0.01541,0.02886,0.98790,-0.00047,0.00001,0.00271,0.26577,-0.34785,-0.24487,983.23000,26.06000,283.12000
-0.01341,0.02878,0.98691,-0.00047,0.00001,0.00271,0.26677,-0.34985,-0.24387,983.17000,26.06000,283.60000
-0.01343,0.02867,0.98290,-0.00047,0.00001,0.00271,0.26777,-0.34585,-0.23287,983.22000,26.06000,283.16000
-0.01343,0.02870,0.98390,-0.00047,0.00001,0.00271,0.26277,-0.34685,-0.23587,983.25000,26.06000,282.92000
-0.01444,0.02981,0.98693,-0.00047,0.00001,0.00271,0.26277,-0.34685,-0.23587,983.20000,26.06000,283.32000
-0.01444,0.02981,0.98693,-0.00047,0.00001,0.00271,0.26477,-0.35185,-0.24187,983.28000,26.06000,282.64000
-0.01444,0.02981,0.98693,-0.00147,0.00001,0.00271,0.26477,-0.34685,-0.23787,983.24000,26.06000,283.05000
-0.01444,0.02981,0.98693,-0.00047,0.00001,0.00271,0.26777,-0.34985,-0.24687,983.12000,26.06000,284.04000
-0.01345,0.02970,0.98393,-0.00047,0.00101,0.00271,0.26577,-0.34985,-0.24587,983.17000,26.06000,283.63000
-0.01345,0.02970,0.98393,-0.00047,0.00101,0.00271,0.26477,-0.35185,-0.24787,983.19000,26.05000,283.39000
-0.01442,0.02878,0.98590,-0.00047,0.00101,0.00271,0.26677,-0.35085,-0.24387,983.19000,26.06000,283.44000
-0.01442,0.02878,0.98590,-0.00047,0.00001,0.00271,0.26677,-0.35085,-0.24387,983.23000,26.06000,283.08000
-0.01336,0.02675,0.98585,-0.00047,0.00001,0.00271,0.26777,-0.35085,-0.24187,983.22000,26.06000,283.15000
-0.01442,0.02989,0.98994,-0.00147,0.00001,0.00271,0.26377,-0.34985,-0.23987,983.16000,26.06000,283.69000
-0.01343,0.02981,0.98794,-0.00047,0.00001,0.00271,0.26477,-0.34985,-0.24687,983.22000,26.05000,283.14000
-0.01343,0.02870,0.98390,-0.00047,0.00001,0.00271,0.26477,-0.34485,-0.24787,983.20000,26.06000,283.38000
-0.01343,0.02870,0.98390,-0.00047,0.00001,0.00271,0.26777,-0.34885,-0.24587,983.20000,26.06000,283.35000
-0.01344,0.02975,0.98593,-0.00047,0.00101,0.00271,0.26577,-0.34585,-0.24287,983.15000,26.06000,283.80000
-0.01446,0.02970,0.98292,-0.00047,0.00101,0.00271,0.26577,-0.34585,-0.24287,983.19000,26.05000,283.45000
-0.01239,0.02770,0.98488,-0.00047,0.00001,0.00271,0.26477,-0.34285,-0.24587,983.27000,26.06000,282.78000
-0.01439,0.02780,0.98687,-0.00047,0.00101,0.00271,0.26277,-0.34785,-0.24287,983.29000,26.05000,282.60000
-0.01443,0.02984,0.98793,-0.00047,0.00001,0.00271,0.26377,-0.34885,-0.24487,983.26000,26.06000,282.87000
-0.01538,0.02786,0.98787,-0.00147,0.00001,0.00271,0.26277,-0.34485,-0.24987,983.23000,26.05000,283.12000
-0.01440,0.02886,0.98891,-0.00147,0.00001,0.00271,0.26277,-0.35085,-0.24987,983.21000,26.06000,283.26000
-0.01343,0.02870,0.98390,-0.00147,0.00001,0.00271,0.26477,-0.34985,-0.24087,983.19000,26.06000,283.43000
-0.01343,0.02867,0.98290,-0.00047,0.00001,0.00271,0.26477,-0.34985,-0.24087,983.25000,26.05000,282.95000
-0.01343,0.02867,0.98290,-0.00047,0.00001,0.00271,0.26777,-0.35085,-0.23987,983.23000,26.06000,283.08000
-0.01342,0.02872,0.98490,-0.00047,0.00101,0.00271,0.26277,-0.34485,-0.24187,983.13000,26.06000,283.96000
-0.01338,0.02778,0.98688,-0.00147,0.00001,0.00271,0.26377,-0.34485,-0.23987,983.23000,26.05000,283.08000
-0.01340,0.02884,0.98891,-0.00047,0.00001,0.00271,0.26577,-0.34785,-0.24687,983.24000,26.05000,283.03000
-0.01341,0.02878,0.98691,-0.00047,0.00001,0.00271,0.26277,-0.34885,-0.24687,983.30000,26.06000,282.48000
-0.01244,0.02973,0.98594,-0.00047,0.00001,0.00271,0.26377,-0.34585,-0.24287,983.20000,26.05000,283.37000
-0.01346,0.02967,0.98293,-0.00047,0.00001,0.00271,0.26377,-0.34585,-0.24287,983.25000,26.06000,282.92000
-0.01243,0.02867,0.98391,-0.00147,0.00001,0.00271,0.26177,-0.34185,-0.25387,983.25000,26.05000,282.89000
-0.01241,0.02873,0.98591,-0.00047,0.00001,0.00271,0.26177,-0.34085,-0.24287,983.20000,26.05000,283.34000
-0.01340,0.02881,0.98791,-0.00047,0.00101,0.00271,0.26377,-0.34585,-0.24787,983.20000,26.06000,283.33000
-0.01441,0.02881,0.98690,-0.00047,0.00101,0.00271,0.26577,-0.34585,-0.24887,983.23000,26.06000,283.10000
-0.01344,0.02978,0.98693,-0.00047,0.00101,0.00271,0.26677,-0.34485,-0.24687,983.22000,26.05000,283.19000
-0.01445,0.02975,0.98492,-0.00147,0.00001,0.00271,0.26277,-0.34585,-0.24887,983.27000,26.05000,282.76000
-0.01346,0.02967,0.98293,-0.00047,0.00001,0.00271,0.26277,-0.34585,-0.24887,983.24000,26.05000,282.97000
-0.01342,0.02872,0.98490,-0.00047,0.00101,0.00271,0.26777,-0.34585,-0.24787,983.19000,26.05000,283.47000
-0.01341,0.02878,0.98691,-0.00047,0.00101,0.00271,0.26777,-0.34885,-0.24687,983.16000,26.06000,283.71000
-0.01444,0.02978,0.98593,-0.00047,0.00001,0.00271,0.26577,-0.34185,-0.24887,983.22000,26.06000,283.18000
-0.01341,0.02878,0.98691,-0.00047,0.00001,0.00271,0.26577,-0.34385,-0.24987,983.20000,26.06000,283.35000
-0.01340,0.02884,0.98891,-0.00047,0.00001,0.00271,0.26677,-0.34685,-0.24487,983.20000,26.05000,283.35000
-0.01342,0.02875,0.98590,-0.00047,0.00001,0.00271,0.26777,-0.34385,-0.24487,983.22000,26.06000,283.15000
-0.01247,0.03070,0.98496,-0.00047,0.00101,0.00271,0.26777,-0.34385,-0.25087,983.22000,26.06000,283.22000
-0.01342,0.02875,0.98590,-0.00047,0.00001,0.00271,0.26977,-0.34585,-0.25087,983.23000,26.06000,283.12000
-0.01342,0.02875,0.98590,-0.00047,0.00001,0.00171,0.26477,-0.34585,-0.24887,983.20000,26.06000,283.36000
-0.01442,0.02878,0.98590,-0.00047,0.00001,0.00271,0.26277,-0.34885,-0.24587,983.22000,26.06000,283.21000
-0.01444,0.02981,0.98693,-0.00047,0.00001,0.00271,0.26377,-0.34785,-0.24587,983.21000,26.05000,283.28000
-0.01345,0.02973,0.98493,-0.00047,0.00001,0.00271,0.26677,-0.34385,-0.24887,983.19000,26.06000,283.42000
-0.01342,0.02875,0.98590,-0.00047,0.00001,0.00271,0.26577,-0.34585,-0.24887,983.18000,26.05000,283.55000
-0.01444,0.02978,0.98593,-0.00047,0.00101,0.00271,0.26577,-0.34685,-0.24787,983.19000,26.06000,283.39000
-0.01342,0.02875,0.98590,-0.00047,0.00101,0.00271,0.26477,-0.34685,-0.24787,983.18000,26.05000,283.49000
-0.01344,0.02978,0.98693,-0.00047,0.00001,0.00271,0.26677,-0.34485,-0.25487,983.19000,26.06000,283.40000
-0.01340,0.02881,0.98791,-0.00047,0.00001,0.00271,0.26577,-0.34885,-0.24487,983.25000,26.06000,282.95000
-0.01442,0.02878,0.98590,-0.00047,0.00001,0.00271,0.26877,-0.34785,-0.24487,983.20000,26.06000,283.38000
-0.01442,0.02878,0.98590,-0.00047,0.00001,0.00271,0.26777,-0.34285,-0.24387,983.24000,26.06000,283.05000
-0.01345,0.02973,0.98493,-0.00047,0.00001,0.00271,0.26777,-0.34385,-0.24587,983.20000,26.06000,283.32000
-0.01342,0.02872,0.98490,-0.00047,0.00001,0.00271,0.26677,-0.34385,-0.24787,983.20000,26.06000,283.38000
-0.01439,0.02780,0.98687,-0.00047,0.00001,0.00171,0.26677,-0.34385,-0.24787,983.25000,26.06000,282.89000
-0.01342,0.02984,0.98894,-0.00047,0.00101,0.00271,0.26977,-0.34485,-0.24387,983.24000,26.06000,283.03000
-0.01343,0.02981,0.98794,-0.00047,0.00001,0.00271,0.26877,-0.34685,-0.24687,983.17000,26.06000,283.57000
-0.01545,0.02978,0.98492,-0.00047,0.00101,0.00271,0.26677,-0.34585,-0.24687,983.21000,26.06000,283.28000
-0.01441,0.02881,0.98690,-0.00147,0.00101,0.00171,0.26777,-0.34585,-0.25087,983.25000,26.06000,282.94000
-0.01443,0.02984,0.98793,-0.00047,0.00101,0.00271,0.26977,-0.34685,-0.24287,983.24000,26.06000,283.03000
-0.01344,0.02975,0.98593,-0.00047,0.00001,0.00271,0.27077,-0.34585,-0.24487,983.23000,26.06000,283.07000
-0.01444,0.02981,0.98693,-0.00047,0.00001,0.00271,0.27077,-0.34585,-0.24487,983.22000,26.06000,283.15000
-0.01444,0.02978,0.98593,-0.00047,0.00001,0.00271,0.26777,-0.34685,-0.24187,983.24000,26.06000,283.02000
-0.01344,0.02978,0.98693,-0.00047,0.00001,0.00271,0.26577,-0.35085,-0.24687,983.30000,26.06000,282.51000
-0.01341,0.02878,0.98691,-0.00047,0.00001,0.00271,0.26877,-0.34785,-0.24387,983.16000,26.05000,283.71000
-0.01344,0.02978,0.98693,-0.00047,0.00001,0.00271,0.26677,-0.35085,-0.24087,983.23000,26.05000,283.13000
-0.01445,0.02975,0.98492,-0.00047,0.00001,0.00171,0.26577,-0.34985,-0.24487,983.17000,26.06000,283.61000
-0.01344,0.02978,0.98693,-0.00147,0.00001,0.00271,0.26377,-0.34785,-0.24487,983.28000,26.05000,282.63000
-0.01440,0.02998,0.99294,-0.00147,-0.00099,0.00271,0.26377,-0.34785,-0.24487,983.21000,26.06000,283.29000
-0.01541,0.02998,0.99194,-0.00147,-0.00199,0.00271,0.26377,-0.34685,-0.24787,983.24000,26.06000,282.98000
-0.01338,0.02892,0.99192,-0.00147,-0.00299,0.00271,0.26477,-0.35185,-0.24187,983.16000,26.06000,283.73000
-0.01343,0.02981,0.98794,-0.00247,-0.00299,0.00271,0.26777,-0.34885,-0.24587,983.20000,26.06000,283.31000
-0.01246,0.02850,0.97789,-0.00147,-0.00299,0.00271,0.26677,-0.34885,-0.24087,983.26000,26.06000,282.87000
-0.01336,0.02677,0.98685,-0.00147,-0.00199,0.00271,0.26577,-0.34685,-0.24287,983.19000,26.06000,283.44000
-0.01355,0.03150,0.97697,-0.00147,-0.00199,0.00171,0.27077,-0.34685,-0.24587,983.21000,26.06000,283.27000
-0.01253,0.02816,0.96586,-0.00147,-0.00099,0.00171,0.27077,-0.34685,-0.24587,983.16000,26.06000,283.65000
-0.01237,0.02666,0.98385,-0.00047,0.00001,0.00271,0.26577,-0.34885,-0.23887,983.19000,26.06000,283.40000
-0.01431,0.02932,1.00494,-0.00047,0.00001,0.00271,0.26677,-0.35085,-0.25087,983.19000,26.06000,283.39000
-0.01441,0.02883,0.98790,-0.00047,-0.00099,0.00171,0.26677,-0.34885,-0.24587,983.24000,26.06000,282.98000
-0.01248,0.02841,0.97488,-0.00047,0.00001,0.00271,0.27277,-0.34785,-0.24787,983.20000,26.06000,283.33000
-0.01237,0.02781,0.98889,-0.00047,0.00001,0.00271,0.26677,-0.34785,-0.24787,983.24000,26.06000,283.02000
-0.01443,0.03098,0.99297,-0.00047,0.00001,0.00271,0.26677,-0.34585,-0.24487,983.29000,26.05000,282.57000
-0.01243,0.02867,0.98391,-0.00147,0.00001,0.00271,0.26677,-0.34585,-0.24487,983.22000,26.05000,283.17000
-0.01344,0.02864,0.98189,-0.00047,0.00001,0.00271,0.26977,-0.34785,-0.24787,983.16000,26.05000,283.71000
-0.01342,0.02875,0.98590,-0.00047,0.00001,0.00271,0.26677,-0.34585,-0.24887,983.23000,26.06000,283.07000
-0.01441,0.02995,0.99194,-0.00147,0.00001,0.00271,0.26677,-0.34785,-0.24587,983.24000,26.05000,283.03000
-0.01342,0.02872,0.98490,-0.00047,0.00001,0.00271,0.26777,-0.34785,-0.24787,983.16000,26.06000,283.68000
-0.01239,0.02770,0.98488,-0.00047,0.00001,0.00271,0.26577,-0.34585,-0.24487,983.21000,26.06000,283.29000
-0.01350,0.03062,0.98095,-0.00047,0.00001,0.00271,0.26777,-0.34485,-0.24587,983.19000,26.05000,283.46000
-0.01247,0.02959,0.98093,-0.00047,0.00001,0.00171,0.26777,-0.34485,-0.24587,983.20000,26.06000,283.33000
-0.01241,0.02873,0.98591,-0.00047,0.00101,0.00271,0.26677,-0.34885,-0.24587,983.23000,26.06000,283.10000
-0.01340,0.02881,0.98791,-0.00047,0.00001,0.00271,0.26577,-0.34885,-0.24187,983.16000,26.06000,283.69000
-0.01342,0.02875,0.98590,-0.00047,0.00001,0.00271,0.26777,-0.34885,-0.24087,983.20000,26.06000,283.31000
-0.01241,0.02873,0.98591,-0.00047,0.00001,0.00271,0.26577,-0.34885,-0.24087,983.23000,26.06000,283.07000
-0.01342,0.02875,0.98590,-0.00147,0.00001,0.00271,0.26677,-0.34885,-0.24387,983.25000,26.06000,282.90000
-0.01443,0.02872,0.98389,-0.00047,0.00001,0.00271,0.26477,-0.34385,-0.24787,983.22000,26.06000,283.15000
-0.01241,0.02873,0.98591,-0.00147,0.00001,0.00271,0.26477,-0.34385,-0.24787,983.23000,26.06000,283.08000
-0.01241,0.02873,0.98591,-0.00047,0.00001,0.00271,0.26777,-0.34885,-0.24487,983.24000,26.06000,283.01000
-0.01339,0.02775,0.98588,-0.00047,0.00001,0.00271,0.26477,-0.35085,-0.23787,983.20000,26.06000,283.33000
-0.01440,0.02775,0.98487,-0.00047,0.00001,0.00271,0.26877,-0.34485,-0.24287,983.13000,26.06000,283.94000
-0.01146,0.02962,0.98294,-0.00047,0.00001,0.00271,0.26777,-0.34785,-0.24287,983.15000,26.06000,283.79000
-0.01345,0.02973,0.98493,-0.00047,0.00001,0.00271,0.26777,-0.34585,-0.23587,983.23000,26.06000,283.10000
-0.01241,0.02873,0.98591,-0.00047,0.00001,0.00271,0.26577,-0.34885,-0.24787,983.21000,26.05000,283.24000
-0.01236,0.02675,0.98686,-0.00047,0.00001,0.00271,0.26577,-0.34885,-0.24787,983.21000,26.06000,283.27000
-0.01241,0.02873,0.98591,-0.00047,0.00001,0.00271,0.26577,-0.35085,-0.24887,983.15000,26.06000,283.76000
-0.01142,0.02864,0.98391,-0.00047,0.00101,0.00271,0.26977,-0.34685,-0.24687,983.26000,26.06000,282.82000
-0.01341,0.02878,0.98691,-0.00047,0.00101,0.00271,0.27077,-0.35085,-0.24487,983.15000,26.06000,283.76000
-0.01441,0.02883,0.98790,-0.00047,0.00101,0.00171,0.26777,-0.34885,-0.24687,983.20000,26.06000,283.33000
-0.01243,0.02976,0.98694,-0.00047,0.00001,0.00271,0.26977,-0.34885,-0.24087,983.16000,26.06000,283.65000
-0.01241,0.02873,0.98591,-0.00047,0.00101,0.00271,0.26677,-0.34885,-0.23787,983.22000,26.05000,283.22000
-0.01341,0.02878,0.98691,-0.00047,0.00101,0.00271,0.26677,-0.34885,-0.24087,983.29000,26.06000,282.57000
-0.01441,0.02881,0.98690,-0.00047,0.00101,0.00271,0.26477,-0.35085,-0.24087,983.24000,26.05000,283.05000
-0.01342,0.02875,0.98590,-0.00047,0.00101,0.00271,0.26077,-0.34885,-0.24087,983.27000,26.06000,282.73000
-0.01242,0.02870,0.98491,-0.00047,0.00101,0.00271,0.26477,-0.34685,-0.24187,983.18000,26.06000,283.54000
-0.01238,0.02775,0.98688,-0.00047,0.00001,0.00271,0.26877,-0.34385,-0.24387,983.22000,26.05000,283.21000
-0.01443,0.02986,0.98893,-0.00047,0.00001,0.00271,0.26377,-0.34785,-0.24587,983.25000,26.06000,282.93000
-0.01340,0.02881,0.98791,-0.00047,0.00001,0.00271,0.26277,-0.34685,-0.24887,983.24000,26.06000,283.01000
-0.01244,0.02973,0.98594,-0.00147,0.00001,0.00271,0.26277,-0.33985,-0.24487,983.23000,26.06000,283.10000
-0.01245,0.02970,0.98494,-0.00047,0.00001,0.00271,0.26577,-0.33985,-0.24487,983.25000,26.06000,282.95000
-0.01342,0.02875,0.98590,-0.00047,0.00001,0.00271,0.26177,-0.34385,-0.24687,983.29000,26.06000,282.56000
-0.01342,0.02875,0.98590,-0.00047,0.00001,0.00271,0.26577,-0.34385,-0.24787,983.17000,26.06000,283.61000
-0.01341,0.02878,0.98691,-0.00047,0.00001,0.00271,0.26877,-0.34085,-0.24087,983.20000,26.06000,283.34000
-0.01342,0.02984,0.98894,-0.00047,0.00001,0.00171,0.26877,-0.34085,-0.23987,983.19000,26.06000,283.39000
-0.01343,0.02981,0.98794,-0.00047,0.00001,0.00271,0.26777,-0.34785,-0.23987,983.19000,26.06000,283.45000
-0.01245,0.02970,0.98494,-0.00147,0.00001,0.00271,0.26777,-0.34485,-0.24687,983.32000,26.06000,282.34000
-0.01245,0.02967,0.98393,-0.00047,0.00001,0.00271,0.26777,-0.34485,-0.24687,983.18000,26.06000,283.50000
-0.01239,0.02770,0.98488,-0.00047,0.00001,0.00171,0.27277,-0.34685,-0.23687,983.11000,26.06000,284.10000
-0.01240,0.02878,0.98791,-0.00047,0.00001,0.00171,0.27077,-0.34485,-0.24187,983.24000,26.06000,283.05000
-0.01342,0.02984,0.98894,-0.00047,0.00101,0.00271,0.26477,-0.34785,-0.24087,983.23000,26.06000,283.13000
-0.01342,0.02875,0.98590,-0.00047,0.00101,0.00271,0.26577,-0.34685,-0.24687,983.21000,26.06000,283.25000
-0.01341,0.02878,0.98691,-0.00047,0.00001,0.00271,0.26677,-0.35185,-0.23987,983.19000,26.06000,283.44000
-0.01241,0.02873,0.98591,-0.00047,0.00001,0.00271,0.26577,-0.35185,-0.24187,983.16000,26.06000,283.70000
-0.01345,0.02970,0.98393,-0.00047,0.00001,0.00271,0.26577,-0.35185,-0.24187,983.23000,26.06000,283.07000
-0.01342,0.02872,0.98490,-0.00047,0.00001,0.00271,0.26377,-0.34985,-0.24187,983.21000,26.06000,283.22000
-0.01344,0.02978,0.98693,-0.00047,0.00101,0.00271,0.26577,-0.34985,-0.23987,983.14000,26.06000,283.87000
-0.01343,0.02981,0.98794,-0.00047,0.00001,0.00171,0.26777,-0.35185,-0.23887,983.23000,26.06000,283.10000
-0.01241,0.02875,0.98691,-0.00047,0.00001,0.00271,0.26277,-0.34985,-0.24787,983.23000,26.06000,283.11000
-0.01241,0.02875,0.98691,-0.00047,0.00001,0.00271,0.26377,-0.35285,-0.24787,983.17000,26.06000,283.61000
-0.01241,0.02875,0.98691,-0.00047,0.00001,0.00271,0.26177,-0.34985,-0.23987,983.13000,26.06000,283.96000
-0.01243,0.02979,0.98794,-0.00047,0.00101,0.00271,0.26177,-0.34985,-0.23987,983.18000,26.05000,283.48000
-0.01241,0.02875,0.98691,-0.00047,0.00001,0.00271,0.26177,-0.34885,-0.23687,983.17000,26.06000,283.60000
-0.01444,0.02978,0.98593,-0.00147,0.00001,0.00271,0.25977,-0.34985,-0.23787,983.22000,26.05000,283.15000
-0.01442,0.02878,0.98590,-0.00047,0.00001,0.00271,0.26277,-0.34485,-0.23787,983.20000,26.06000,283.32000
-0.01344,0.02975,0.98593,-0.00047,0.00001,0.00271,0.26177,-0.34585,-0.23987,983.19000,26.05000,283.41000
-0.01444,0.02978,0.98593,-0.00047,0.00001,0.00271,0.25677,-0.34385,-0.23687,983.26000,26.06000,282.84000
-0.01146,0.03071,0.98597,-0.00047,0.00001,0.00271,0.26177,-0.34585,-0.23987,983.14000,26.06000,283.88000
-0.01241,0.02875,0.98691,-0.00047,0.00001,0.00271,0.26177,-0.34585,-0.23987,983.22000,26.06000,283.14000
-0.01340,0.02884,0.98891,-0.00147,0.00101,0.00271,0.26477,-0.34585,-0.23787,983.17000,26.06000,283.57000
-0.01240,0.02881,0.98892,-0.00047,0.00001,0.00271,0.26077,-0.34685,-0.24187,983.16000,26.06000,283.72000
-0.01239,0.02770,0.98488,-0.00047,0.00001,0.00271,0.26277,-0.34385,-0.24387,983.13000,26.06000,283.98000
-0.01342,0.02872,0.98490,-0.00047,0.00001,0.00271,0.26177,-0.34585,-0.24587,983.25000,26.06000,282.96000
-0.01243,0.02976,0.98694,-0.00047,0.00001,0.00271,0.26277,-0.34685,-0.24387,983.11000,26.06000,284.15000
-0.01344,0.02978,0.98693,-0.00047,0.00001,0.00271,0.26577,-0.34485,-0.23687,983.26000,26.05000,282.87000
-0.01342,0.02875,0.98590,-0.00047,0.00001,0.00171,0.26577,-0.34485,-0.23687,983.17000,26.06000,283.57000
-0.01341,0.02878,0.98691,-0.00047,0.00001,0.00271,0.26377,-0.34385,-0.23487,983.22000,26.06000,283.19000
-0.01245,0.02970,0.98494,-0.00047,0.00001,0.00271,0.26177,-0.34085,-0.24287,983.25000,26.05000,282.89000
-0.01242,0.02870,0.98491,-0.00047,0.00001,0.00271,0.26677,-0.34185,-0.24287,983.17000,26.06000,283.60000
-0.01344,0.02978,0.98693,-0.00047,0.00101,0.00271,0.26277,-0.34285,-0.24887,983.23000,26.06000,283.10000
-0.01439,0.02777,0.98587,-0.00047,0.00001,0.00271,0.26177,-0.34685,-0.24487,983.24000,26.06000,282.97000
-0.01342,0.02872,0.98490,-0.00047,0.00001,0.00271,0.26177,-0.34385,-0.23887,983.21000,26.06000,283.27000
-0.01340,0.02881,0.98791,-0.00047,0.00101,0.00271,0.26177,-0.34385,-0.23887,983.15000,26.06000,283.78000
-0.01344,0.02978,0.98693,-0.00047,0.00001,0.00271,0.26577,-0.34685,-0.23987,983.20000,26.06000,283.37000
-0.01342,0.02872,0.98490,-0.00047,0.00001,0.00271,0.26677,-0.34285,-0.23887,983.17000,26.06000,283.59000
-0.01243,0.02976,0.98694,-0.00047,0.00001,0.00271,0.26877,-0.34385,-0.24087,983.20000,26.06000,283.35000
-0.01341,0.02878,0.98691,-0.00147,0.00001,0.00271,0.27277,-0.34485,-0.24087,983.15000,26.06000,283.80000
-0.01341,0.02878,0.98691,-0.00047,0.00001,0.00271,0.26777,-0.34385,-0.23987,983.14000,26.06000,283.82000
-0.01344,0.02978,0.98693,-0.00047,0.00001,0.00171,0.26277,-0.34485,-0.24087,983.13000,26.06000,283.93000
-0.01244,0.02973,0.98594,-0.00047,0.00101,0.00271,0.26277,-0.34485,-0.24087,983.13000,26.06000,283.94000
-0.01442,0.02875,0.98490,-0.00047,0.00101,0.00171,0.26477,-0.34585,-0.24287,983.20000,26.06000,283.36000
-0.01441,0.02881,0.98690,-0.00047,0.00101,0.00271,0.26777,-0.34585,-0.24287,983.09000,26.06000,284.29000
-0.01338,0.02778,0.98688,-0.00047,0.00001,0.00271,0.26777,-0.34685,-0.23987,983.22000,26.06000,283.17000
