timestamp,ax,ay,az,gx,gy,gz,mx,my,mz,altitude,relative_altitude
031225_15.05.48.377,-0.00200,-0.01800,0.99200,0.05300,-0.12300,-0.03500,0.06900,0.41600,-0.55500,173.60000,0.00000
031225_15.05.48.389,-0.00300,-0.01700,0.99000,0.08700,-0.10500,-0.03500,0.06600,0.41600,-0.54800,174.06000,0.46000
031225_15.05.48.401,-0.00200,-0.01800,0.99100,0.07000,-0.08700,-0.01800,0.06500,0.41200,-0.55300,173.81000,-0.25000
031225_15.05.48.413,-0.00400,-0.01900,0.98900,0.07000,-0.08700,-0.03500,0.06600,0.41200,-0.55700,173.42000,-0.39000
031225_15.05.48.425,-0.00300,-0.01800,0.99100,0.05300,-0.10500,-0.01800,0.06700,0.41200,-0.55200,173.28000,-0.14000
031225_15.05.48.436,-0.00200,-0.01800,0.99100,0.07000,-0.08700,-0.03500,0.06700,0.41200,-0.55200,173.71000,0.43000
031225_15.05.48.448,-0.00100,-0.01800,0.99200,0.07000,-0.08700,-0.03500,0.06600,0.41600,-0.55100,173.80000,0.09000
031225_15.05.48.459,-0.00400,-0.01900,0.99000,0.07000,-0.08700,-0.01800,0.06700,0.41300,-0.55100,173.37000,-0.43000
031225_15.05.48.471,-0.00200,-0.01900,0.99100,0.07000,-0.10500,-0.01800,0.06700,0.41200,-0.55000,174.07000,0.70000
031225_15.05.48.482,-0.00200,-0.01900,0.99100,0.07000,-0.08700,-0.05300,0.06700,0.41200,-0.55000,173.60000,-0.47000
031225_15.05.48.494,-0.00200,-0.01700,0.99100,0.07000,-0.10500,-0.03500,0.06900,0.41000,-0.55300,173.64000,0.04000
031225_15.05.48.505,-0.00100,-0.01700,0.99100,0.05300,-0.12300,-0.03500,0.06900,0.41000,-0.55400,173.75000,0.11000
031225_15.05.48.517,-0.00200,-0.01800,0.99200,0.05300,-0.08700,-0.03500,0.06800,0.41300,-0.55300,173.32000,-0.43000
031225_15.05.48.528,-0.00100,-0.01900,0.99100,0.07000,-0.10500,-0.01800,0.06900,0.41000,-0.54900,174.12000,0.80000
031225_15.05.48.540,-0.00300,-0.01900,0.99000,0.05300,-0.10500,-0.01800,0.06900,0.41000,-0.54900,173.87000,-0.25000
031225_15.05.48.552,-0.00200,-0.01900,0.99000,0.07000,-0.10500,-0.03500,0.06600,0.41300,-0.55200,173.00000,-0.87000
031225_15.05.48.563,-0.00200,-0.01900,0.99200,0.07000,-0.10500,-0.03500,0.07000,0.41100,-0.55000,174.61000,1.61000
031225_15.05.48.575,-0.00200,-0.01800,0.99200,0.08700,-0.08700,-0.01800,0.06900,0.41300,-0.54900,173.47000,-1.14000
031225_15.05.48.587,-0.00200,-0.02000,0.99000,0.08700,-0.08700,-0.03500,0.06900,0.41300,-0.54900,173.73000,0.26000
031225_15.05.48.598,-0.00200,-0.01900,0.99100,0.05300,-0.10500,-0.03500,0.06900,0.41600,-0.55400,173.50000,-0.23000
031225_15.05.48.610,-0.00300,-0.01900,0.99100,0.05300,-0.10500,-0.03500,0.06600,0.41800,-0.54500,173.06000,-0.44000
031225_15.05.48.622,-0.00200,-0.02000,0.99100,0.07000,-0.10500,-0.03500,0.07200,0.41800,-0.54900,173.29000,0.23000
031225_15.05.48.633,-0.00300,-0.01800,0.99000,0.07000,-0.10500,-0.03500,0.07000,0.42100,-0.55500,173.77000,0.48000
031225_15.05.48.645,-0.00200,-0.01900,0.99100,0.07000,-0.08700,-0.03500,0.07000,0.42100,-0.55500,173.21000,-0.56000
031225_15.05.48.657,-0.00200,-0.01900,0.99000,0.07000,-0.07000,-0.03500,0.07200,0.41500,-0.55300,173.74000,0.53000
031225_15.05.48.668,-0.00100,-0.01700,0.99100,0.05300,-0.08700,-0.03500,0.06700,0.41700,-0.55300,174.21000,0.47000
031225_15.05.48.680,-0.00300,-0.01800,0.99000,0.05300,-0.10500,-0.03500,0.06700,0.41500,-0.55000,173.32000,-0.89000
031225_15.05.48.692,-0.00300,-0.02000,0.99100,0.07000,-0.10500,-0.03500,0.06700,0.41500,-0.55100,173.33000,0.01000
031225_15.05.48.704,-0.00200,-0.01700,0.99000,0.07000,-0.12300,-0.01800,0.07100,0.41500,-0.55100,174.41000,1.08000
031225_15.05.48.715,-0.00300,-0.01800,0.99100,0.08700,-0.10500,-0.03500,0.06900,0.41600,-0.55200,173.46000,-0.95000
031225_15.05.48.727,-0.00300,-0.02000,0.99000,0.07000,-0.07000,-0.05300,0.07400,0.42000,-0.54800,173.31000,-0.15000
031225_15.05.48.739,-0.00300,-0.01900,0.99200,0.03500,-0.07000,-0.05300,0.07000,0.41400,-0.54800,173.70000,0.39000
031225_15.05.48.750,-0.00200,-0.01900,0.99200,0.07000,-0.08700,-0.03500,0.07000,0.41400,-0.54800,173.23000,-0.47000
031225_15.05.48.762,-0.00200,-0.01800,0.99000,0.05300,-0.10500,-0.01800,0.06700,0.41200,-0.55300,173.20000,-0.03000
031225_15.05.48.774,-0.00200,-0.01800,0.99100,0.05300,-0.08700,-0.05300,0.06700,0.41700,-0.56200,173.74000,0.54000
031225_15.05.48.785,-0.00300,-0.01700,0.99100,0.07000,-0.10500,-0.01800,0.06600,0.41700,-0.55400,173.71000,-0.03000
031225_15.05.48.797,-0.00300,-0.01900,0.99100,0.05300,-0.08700,-0.03500,0.06400,0.41600,-0.56200,173.62000,-0.09000
031225_15.05.48.809,-0.00300,-0.01800,0.99100,0.05300,-0.08700,-0.03500,0.06400,0.41600,-0.56200,174.02000,0.40000
031225_15.05.48.820,-0.00200,-0.01800,0.99100,0.07000,-0.10500,-0.03500,0.07000,0.41400,-0.56400,173.94000,-0.08000
031225_15.05.48.832,-0.00200,-0.01800,0.99100,0.05300,-0.08700,-0.03500,0.07700,0.41900,-0.55400,173.71000,-0.23000
031225_15.05.48.844,-0.00200,-0.01800,0.99200,0.03500,-0.08700,-0.01800,0.07100,0.41700,-0.55700,173.61000,-0.10000
031225_15.05.48.856,-0.00400,-0.01900,0.99100,0.05300,-0.08700,-0.03500,0.07100,0.41700,-0.55700,173.16000,-0.45000
031225_15.05.48.867,-0.00300,-0.01700,0.99000,0.07000,-0.10500,-0.03500,0.07200,0.41400,-0.56100,173.73000,0.57000
031225_15.05.48.879,-0.00300,-0.01900,0.99200,0.03500,-0.07000,-0.03500,0.07200,0.41700,-0.55400,173.78000,0.05000
031225_15.05.48.891,-0.00200,-0.01800,0.99200,0.05300,-0.10500,-0.03500,0.06900,0.41600,-0.55400,173.48000,-0.30000
031225_15.05.48.903,-0.00200,-0.01800,0.99200,0.07000,-0.10500,-0.03500,0.06900,0.41700,-0.55900,173.33000,-0.15000
031225_15.05.48.914,-0.00200,-0.01900,0.99100,0.10500,-0.12300,-0.01800,0.06900,0.41700,-0.55900,173.55000,0.22000
031225_15.05.48.926,-0.00200,-0.01900,0.99000,0.07000,-0.10500,-0.03500,0.07200,0.41500,-0.55900,174.03000,0.48000
031225_15.05.48.938,-0.00300,-0.01700,0.99100,0.03500,-0.08700,-0.03500,0.07000,0.41400,-0.55600,173.25000,-0.78000
031225_15.05.48.949,-0.00300,-0.01900,0.99100,0.07000,-0.08700,-0.03500,0.07200,0.41500,-0.55400,173.18000,-0.07000
031225_15.05.48.961,-0.00200,-0.01900,0.99300,0.05300,-0.08700,-0.03500,0.07200,0.41500,-0.55400,173.83000,0.65000
031225_15.05.48.973,-0.00200,-0.01900,0.99000,0.05300,-0.10500,-0.01800,0.07100,0.41200,-0.55500,173.07000,-0.76000
031225_15.05.48.984,-0.00300,-0.01800,0.99000,0.05300,-0.08700,-0.03500,0.06800,0.41200,-0.55800,173.18000,0.11000
031225_15.05.48.995,-0.00200,-0.01800,0.99100,0.05300,-0.08700,-0.05300,0.07100,0.41200,-0.56000,174.42000,1.24000
031225_15.05.49.007,-0.00200,-0.01800,0.99100,0.05300,-0.10500,-0.05300,0.07000,0.41300,-0.55800,172.78000,-1.64000
031225_15.05.49.018,-0.00100,-0.01900,0.99000,0.08700,-0.10500,-0.05300,0.07000,0.41300,-0.55800,173.21000,0.43000
031225_15.05.49.030,-0.00300,-0.01900,0.99000,0.07000,-0.08700,-0.01800,0.06900,0.41600,-0.55000,173.69000,0.48000
031225_15.05.49.041,-0.00200,-0.01800,0.99100,0.05300,-0.10500,-0.03500,0.06700,0.41700,-0.55400,173.34000,-0.35000
031225_15.05.49.052,-0.00200,-0.01800,0.99200,0.05300,-0.10500,-0.03500,0.07200,0.41300,-0.55100,174.54000,1.20000
031225_15.05.49.064,-0.00200,-0.01800,0.98900,0.08700,-0.12300,-0.03500,0.07200,0.41400,-0.55300,174.01000,-0.53000
031225_15.05.49.076,-0.00300,-0.01800,0.99000,0.07000,-0.10500,-0.03500,0.07000,0.41400,-0.55300,173.39000,-0.62000
031225_15.05.49.087,-0.00300,-0.01800,0.99200,0.03500,-0.10500,-0.01800,0.06900,0.41400,-0.56000,173.49000,0.10000
031225_15.05.49.099,-0.00200,-0.01800,0.99000,0.07000,-0.12300,-0.01800,0.07200,0.41800,-0.55600,173.81000,0.32000
031225_15.05.49.111,-0.00300,-0.01900,0.99100,0.07000,-0.10500,-0.01800,0.07000,0.41400,-0.55500,173.05000,-0.76000
031225_15.05.49.122,-0.00300,-0.01800,0.99000,0.07000,-0.08700,-0.03500,0.07000,0.41400,-0.55500,173.78000,0.73000
031225_15.05.49.134,-0.00200,-0.01800,0.99000,0.05300,-0.08700,-0.03500,0.06800,0.41800,-0.55300,173.52000,-0.26000
031225_15.05.49.145,-0.00300,-0.01900,0.99200,0.07000,-0.10500,-0.05300,0.06900,0.41700,-0.55300,173.67000,0.15000
031225_15.05.49.157,-0.00200,-0.01900,0.99100,0.08700,-0.08700,-0.05300,0.07400,0.41700,-0.55600,173.61000,-0.06000
031225_15.05.49.169,-0.00200,-0.01800,0.99100,0.07000,-0.08700,-0.03500,0.07600,0.41500,-0.54800,173.58000,-0.03000
031225_15.05.49.180,-0.00200,-0.01800,0.99100,0.07000,-0.10500,-0.05300,0.07600,0.41500,-0.54800,173.53000,-0.05000
031225_15.05.49.192,-0.00300,-0.01700,0.99100,0.08700,-0.10500,-0.03500,0.07300,0.41500,-0.55900,173.20000,-0.33000
031225_15.05.49.204,-0.00300,-0.01700,0.99100,0.05300,-0.10500,-0.03500,0.07400,0.41500,-0.55200,173.41000,0.21000
031225_15.05.49.215,-0.00300,-0.01800,0.99100,0.05300,-0.10500,-0.03500,0.07100,0.41800,-0.55500,173.60000,0.19000
031225_15.05.49.226,-0.00200,-0.01900,0.99000,0.07000,-0.10500,-0.03500,0.07100,0.41800,-0.55500,173.43000,-0.17000
031225_15.05.49.238,-0.00300,-0.01800,0.99100,0.07000,-0.10500,-0.05300,0.07300,0.41400,-0.55300,173.77000,0.34000
031225_15.05.49.249,-0.00200,-0.01700,0.99100,0.07000,-0.08700,-0.03500,0.06900,0.41600,-0.55800,173.99000,0.22000
031225_15.05.49.261,-0.00300,-0.01800,0.99100,0.07000,-0.10500,-0.03500,0.07400,0.41600,-0.56000,173.33000,-0.66000
031225_15.05.49.272,-0.00400,-0.01900,0.99100,0.05300,-0.08700,-0.03500,0.06800,0.41600,-0.55900,173.18000,-0.15000
031225_15.05.49.284,-0.00200,-0.01800,0.99100,0.08700,-0.08700,-0.03500,0.06800,0.41600,-0.55900,173.23000,0.05000
031225_15.05.49.295,-0.00200,-0.01800,0.99100,0.05300,-0.10500,-0.03500,0.07400,0.41100,-0.55700,173.40000,0.17000
031225_15.05.49.307,-0.00200,-0.01900,0.99100,0.05300,-0.10500,-0.03500,0.07100,0.41400,-0.55000,173.03000,-0.37000
031225_15.05.49.318,-0.00300,-0.01900,0.99100,0.05300,-0.08700,-0.01800,0.07200,0.41300,-0.55400,174.55000,1.52000
031225_15.05.49.330,-0.00300,-0.01700,0.99100,0.05300,-0.08700,-0.03500,0.07200,0.41300,-0.55400,174.23000,-0.32000
031225_15.05.49.341,-0.00200,-0.01900,0.99000,0.08700,-0.08700,-0.01800,0.07300,0.41300,-0.55200,173.82000,-0.41000
031225_15.05.49.352,-0.00200,-0.01800,0.99100,0.05300,-0.12300,-0.03500,0.07300,0.41000,-0.55700,173.56000,-0.26000
031225_15.05.49.364,-0.00300,-0.01800,0.99200,0.07000,-0.10500,-0.01800,0.07200,0.41600,-0.55100,173.09000,-0.47000
031225_15.05.49.375,-0.00100,-0.01800,0.99100,0.07000,-0.08700,-0.01800,0.06700,0.41600,-0.55500,173.07000,-0.02000
031225_15.05.49.387,-0.00300,-0.01900,0.99200,0.07000,-0.08700,-0.01800,0.06700,0.41600,-0.55500,173.98000,0.91000
031225_15.05.49.398,-0.00200,-0.01900,0.99200,0.07000,-0.10500,-0.03500,0.06900,0.41400,-0.55400,173.54000,-0.44000
031225_15.05.49.410,-0.00200,-0.01900,0.99200,0.07000,-0.10500,-0.01800,0.06900,0.41500,-0.55300,173.96000,0.42000
031225_15.05.49.422,-0.00300,-0.01800,0.99100,0.01800,-0.10500,-0.03500,0.07200,0.41500,-0.55400,173.50000,-0.46000
031225_15.05.49.433,-0.00200,-0.01900,0.99000,0.05300,-0.10500,-0.03500,0.07100,0.41300,-0.55500,173.33000,-0.17000
031225_15.05.49.445,-0.00200,-0.01900,0.99100,0.05300,-0.08700,-0.03500,0.07100,0.41300,-0.55500,173.90000,0.57000
031225_15.05.49.456,-0.00300,-0.01900,0.99200,0.07000,-0.10500,-0.05300,0.07500,0.41200,-0.55500,173.40000,-0.50000
031225_15.05.49.468,-0.00300,-0.01900,0.99100,0.05300,-0.08700,-0.03500,0.07600,0.41200,-0.55900,173.51000,0.11000
031225_15.05.49.479,-0.00300,-0.01800,0.99100,0.07000,-0.10500,-0.01800,0.07200,0.41600,-0.55300,173.74000,0.23000
031225_15.05.49.490,-0.00300,-0.02000,0.99100,0.07000,-0.10500,-0.03500,0.07200,0.41600,-0.55300,172.72000,-1.02000
031225_15.05.49.502,-0.00300,-0.01800,0.99100,0.05300,-0.08700,-0.03500,0.07100,0.41500,-0.55000,173.40000,0.68000
031225_15.05.49.513,-0.00100,-0.01700,0.99200,0.07000,-0.10500,-0.01800,0.07500,0.41700,-0.55700,173.96000,0.56000
031225_15.05.49.525,-0.00300,-0.01800,0.99100,0.05300,-0.12300,-0.01800,0.07600,0.41400,-0.55600,173.71000,-0.25000
031225_15.05.49.536,-0.00300,-0.01800,0.99100,0.07000,-0.08700,-0.03500,0.07400,0.41900,-0.55000,172.74000,-0.97000
031225_15.05.49.548,-0.00200,-0.01900,0.99100,0.07000,-0.10500,-0.03500,0.07400,0.41900,-0.55000,173.77000,1.03000
031225_15.05.49.560,-0.00300,-0.02100,0.99200,0.07000,-0.08700,-0.03500,0.07400,0.41500,-0.55300,173.53000,-0.24000
031225_15.05.49.571,-0.00300,-0.01800,0.99000,0.07000,-0.12300,-0.03500,0.07400,0.41400,-0.55600,173.93000,0.40000
031225_15.05.49.583,-0.00300,-0.01800,0.99100,0.03500,-0.08700,-0.03500,0.07300,0.41600,-0.55300,173.71000,-0.22000
031225_15.05.49.595,-0.00300,-0.01900,0.99100,0.05300,-0.10500,-0.03500,0.07300,0.41600,-0.55300,173.82000,0.11000
031225_15.05.49.606,-0.00200,-0.01800,0.99100,0.05300,-0.08700,-0.05300,0.07000,0.41800,-0.55600,173.81000,-0.01000
031225_15.05.49.618,-0.00300,-0.01700,0.98900,0.05300,-0.08700,-0.01800,0.07500,0.41300,-0.55900,173.86000,0.05000
031225_15.05.49.629,-0.00300,-0.01800,0.99000,0.07000,-0.08700,-0.05300,0.06900,0.41800,-0.55800,173.66000,-0.20000
031225_15.05.49.641,-0.00200,-0.01800,0.99000,0.05300,-0.10500,-0.01800,0.07200,0.41000,-0.56200,173.93000,0.27000
031225_15.05.49.652,-0.00300,-0.01800,0.99200,0.05300,-0.10500,-0.01800,0.07200,0.41000,-0.56200,173.23000,-0.70000
031225_15.05.49.664,-0.00300,-0.01900,0.99100,0.05300,-0.10500,-0.01800,0.07100,0.41800,-0.55700,173.30000,0.07000
031225_15.05.49.675,-0.00200,-0.01800,0.99100,0.05300,-0.08700,-0.05300,0.07200,0.41900,-0.55400,173.68000,0.38000
031225_15.05.49.687,-0.00200,-0.01800,0.99100,0.05300,-0.10500,-0.03500,0.07400,0.41500,-0.55300,173.61000,-0.07000
031225_15.05.49.698,-0.00200,-0.01800,0.98900,0.03500,-0.08700,-0.01800,0.07400,0.41500,-0.55700,173.24000,-0.37000
031225_15.05.49.710,-0.00200,-0.01800,0.99100,0.07000,-0.10500,-0.03500,0.07000,0.41700,-0.55700,173.26000,0.02000
031225_15.05.49.721,-0.00300,-0.01900,0.99200,0.05300,-0.08700,-0.03500,0.06700,0.41600,-0.55800,173.54000,0.28000
031225_15.05.49.733,-0.00300,-0.01700,0.99100,0.07000,-0.10500,-0.03500,0.06700,0.41500,-0.55700,173.23000,-0.31000
031225_15.05.49.744,-0.00200,-0.01800,0.99100,0.07000,-0.08700,-0.03500,0.07300,0.41200,-0.56000,174.19000,0.96000
031225_15.05.49.756,-0.00200,-0.02000,0.99000,0.07000,-0.08700,-0.01800,0.07300,0.41200,-0.56000,173.45000,-0.74000
031225_15.05.49.767,-0.00300,-0.01800,0.99000,0.07000,-0.10500,-0.01800,0.07300,0.41600,-0.55600,173.89000,0.44000
031225_15.05.49.778,-0.00200,-0.01800,0.99200,0.03500,-0.08700,-0.03500,0.07200,0.41300,-0.56000,172.93000,-0.96000
031225_15.05.49.790,-0.00400,-0.01900,0.99200,0.07000,-0.08700,-0.05300,0.07700,0.41500,-0.55900,173.39000,0.46000
031225_15.05.49.801,-0.00200,-0.01800,0.99000,0.07000,-0.08700,-0.05300,0.07400,0.41400,-0.55800,173.16000,-0.23000
031225_15.05.49.813,-0.00200,-0.01900,0.99100,0.05300,-0.08700,-0.03500,0.07400,0.41400,-0.55800,173.61000,0.45000
031225_15.05.49.824,-0.00300,-0.01800,0.99000,0.08700,-0.10500,-0.03500,0.07400,0.41500,-0.55700,174.21000,0.60000
031225_15.05.49.836,-0.00300,-0.01800,0.99100,0.07000,-0.08700,-0.03500,0.07700,0.41200,-0.55800,173.13000,-1.08000
031225_15.05.49.847,-0.00300,-0.01800,0.99100,0.05300,-0.10500,-0.03500,0.07300,0.41700,-0.56300,173.95000,0.82000
031225_15.05.49.859,-0.00300,-0.01900,0.99100,0.07000,-0.10500,-0.01800,0.07300,0.41700,-0.56300,173.84000,-0.11000
031225_15.05.49.870,-0.00200,-0.01900,0.99100,0.07000,-0.08700,-0.03500,0.07200,0.41800,-0.56500,173.69000,-0.15000
031225_15.05.49.882,-0.00300,-0.01800,0.99100,0.05300,-0.08700,-0.03500,0.07400,0.41100,-0.54900,173.35000,-0.34000
031225_15.05.49.893,-0.00100,-0.01900,0.99200,0.05300,-0.10500,-0.03500,0.07100,0.41200,-0.55500,173.68000,0.33000
031225_15.05.49.905,-0.00300,-0.01900,0.99000,0.07000,-0.08700,-0.03500,0.07300,0.41400,-0.55700,173.87000,0.19000
031225_15.05.49.916,-0.00200,-0.02000,0.99200,0.07000,-0.10500,-0.03500,0.07300,0.41400,-0.55700,173.54000,-0.33000
031225_15.05.49.928,-0.00300,-0.01900,0.99100,0.07000,-0.10500,-0.03500,0.07000,0.41100,-0.55900,173.07000,-0.47000
031225_15.05.49.939,-0.00300,-0.01800,0.99100,0.05300,-0.08700,-0.03500,0.06800,0.41000,-0.55700,173.45000,0.38000
031225_15.05.49.951,-0.00300,-0.01900,0.99200,0.07000,-0.07000,-0.05300,0.07100,0.41100,-0.55700,173.18000,-0.27000
031225_15.05.49.962,-0.00200,-0.01800,0.99200,0.08700,-0.08700,-0.03500,0.07100,0.41100,-0.55700,173.68000,0.50000
031225_15.05.49.974,-0.00200,-0.01900,0.99200,0.07000,-0.08700,-0.03500,0.06900,0.41200,-0.55400,173.14000,-0.54000
031225_15.05.49.985,-0.00300,-0.01800,0.99000,0.07000,-0.12300,-0.03500,0.06700,0.41500,-0.55600,173.29000,0.15000
031225_15.05.49.996,-0.00200,-0.01800,0.99200,0.05300,-0.10500,-0.01800,0.06700,0.41300,-0.56100,173.87000,0.58000
031225_15.05.50.008,-0.00200,-0.01900,0.99100,0.03500,-0.10500,-0.03500,0.06900,0.41700,-0.56000,172.98000,-0.89000
031225_15.05.50.019,-0.00400,-0.01800,0.99100,0.05300,-0.10500,-0.03500,0.06900,0.41700,-0.56000,173.75000,0.77000
031225_15.05.50.031,-0.00300,-0.01800,0.99000,0.05300,-0.08700,-0.03500,0.07500,0.41600,-0.56200,173.89000,0.14000
031225_15.05.50.042,-0.00200,-0.01900,0.99200,0.01800,-0.07000,-0.03500,0.06900,0.41500,-0.55700,173.48000,-0.41000
031225_15.05.50.054,-0.00300,-0.01800,0.99300,0.05300,-0.07000,-0.05300,0.06900,0.41300,-0.55900,173.74000,0.26000
031225_15.05.50.065,-0.00400,-0.01800,0.99100,0.05300,-0.10500,-0.03500,0.06900,0.41500,-0.55700,173.48000,-0.26000
031225_15.05.50.077,-0.00200,-0.01900,0.98900,0.07000,-0.10500,-0.01800,0.07000,0.41500,-0.55700,173.49000,0.01000
031225_15.05.50.088,-0.00200,-0.01800,0.99100,0.05300,-0.08700,-0.03500,0.07300,0.41400,-0.55400,173.78000,0.29000
031225_15.05.50.100,-0.00200,-0.01800,0.99200,0.05300,-0.08700,-0.03500,0.06800,0.41200,-0.55600,173.70000,-0.08000
031225_15.05.50.111,-0.00200,-0.01700,0.99200,0.05300,-0.10500,-0.03500,0.07200,0.41000,-0.55600,173.76000,0.06000
031225_15.05.50.123,-0.00300,-0.01900,0.99000,0.03500,-0.08700,-0.03500,0.07200,0.41000,-0.55600,173.27000,-0.49000
031225_15.05.50.134,-0.00300,-0.01800,0.98900,0.05300,-0.10500,-0.01800,0.06500,0.41400,-0.55300,174.00000,0.73000
031225_15.05.50.146,-0.00300,-0.01800,0.99200,0.05300,-0.07000,-0.01800,0.07000,0.41300,-0.55900,173.70000,-0.30000
031225_15.05.50.157,-0.00200,-0.01900,0.99200,0.08700,-0.10500,-0.03500,0.07100,0.40700,-0.55500,173.04000,-0.66000
031225_15.05.50.168,-0.00300,-0.01800,0.99100,0.08700,-0.12300,-0.03500,0.06700,0.41500,-0.55300,173.88000,0.84000
031225_15.05.50.180,-0.00200,-0.01900,0.98900,0.08700,-0.10500,-0.03500,0.06700,0.41500,-0.55300,173.94000,0.06000
031225_15.05.50.191,-0.00300,-0.01800,0.99100,0.07000,-0.08700,-0.03500,0.07000,0.41600,-0.55900,174.12000,0.18000
031225_15.05.50.203,-0.00300,-0.01900,0.99100,0.07000,-0.08700,-0.03500,0.07400,0.41100,-0.56200,173.35000,-0.77000
031225_15.05.50.214,-0.00200,-0.01800,0.99100,0.07000,-0.08700,-0.03500,0.06900,0.41500,-0.56300,173.90000,0.55000
031225_15.05.50.226,-0.00300,-0.01900,0.99100,0.07000,-0.10500,-0.03500,0.06900,0.41500,-0.56300,173.56000,-0.34000
031225_15.05.50.237,-0.00100,-0.01900,0.99100,0.05300,-0.08700,-0.03500,0.06800,0.41700,-0.56000,173.32000,-0.24000
031225_15.05.50.249,-0.00300,-0.01900,0.99000,0.07000,-0.12300,-0.01800,0.07000,0.41700,-0.55300,173.88000,0.56000
031225_15.05.50.260,-0.00300,-0.01900,0.99000,0.05300,-0.10500,-0.05300,0.07300,0.41600,-0.55300,173.25000,-0.63000
031225_15.05.50.272,-0.00200,-0.01900,0.99000,0.07000,-0.10500,-0.05300,0.07000,0.41800,-0.55300,173.53000,0.28000
031225_15.05.50.283,-0.00200,-0.01800,0.99100,0.05300,-0.12300,-0.03500,0.07000,0.41800,-0.55300,173.52000,-0.01000
031225_15.05.50.295,-0.00100,-0.01900,0.99000,0.05300,-0.10500,-0.01800,0.06700,0.41600,-0.55700,173.50000,-0.02000
031225_15.05.50.306,-0.00100,-0.01900,0.99200,0.07000,-0.10500,-0.03500,0.06800,0.41600,-0.55500,173.60000,0.10000
031225_15.05.50.318,-0.00300,-0.01800,0.99100,0.05300,-0.08700,-0.05300,0.07000,0.41800,-0.55800,173.20000,-0.40000
031225_15.05.50.329,-0.00400,-0.01800,0.99000,0.07000,-0.10500,-0.03500,0.07000,0.41800,-0.55600,173.33000,0.13000
031225_15.05.50.341,-0.00400,-0.01800,0.99100,0.08700,-0.08700,-0.01800,0.07300,0.41400,-0.55600,173.15000,-0.18000
031225_15.05.50.353,-0.00200,-0.01900,0.99200,0.07000,-0.08700,-0.01800,0.07100,0.41700,-0.55400,173.23000,0.08000
031225_15.05.50.364,-0.00200,-0.01900,0.99200,0.05300,-0.05300,-0.03500,0.07100,0.41700,-0.55500,173.86000,0.63000
031225_15.05.50.376,-0.00200,-0.01800,0.98900,0.05300,-0.08700,-0.03500,0.07200,0.41900,-0.55700,173.96000,0.10000
031225_15.05.50.388,-0.00300,-0.02000,0.99100,0.05300,-0.08700,-0.05300,0.07200,0.41900,-0.55700,173.34000,-0.62000
031225_15.05.50.399,-0.00100,-0.01800,0.99100,0.05300,-0.10500,-0.03500,0.07000,0.41500,-0.55900,173.08000,-0.26000
031225_15.05.50.411,-0.00300,-0.01800,0.99200,0.03500,-0.08700,-0.03500,0.07500,0.41800,-0.56300,173.73000,0.65000
031225_15.05.50.423,-0.00300,-0.01700,0.99200,0.03500,-0.08700,-0.03500,0.07300,0.41900,-0.56100,173.95000,0.22000
031225_15.05.50.434,-0.00200,-0.01900,0.99000,0.07000,-0.10500,-0.05300,0.07600,0.41500,-0.55700,173.85000,-0.10000
031225_15.05.50.446,-0.00300,-0.01800,0.99000,0.05300,-0.10500,-0.05300,0.07600,0.41500,-0.55700,174.23000,0.38000
031225_15.05.50.458,-0.00400,-0.01900,0.99000,0.05300,-0.08700,-0.05300,0.07100,0.41400,-0.55600,173.56000,-0.67000
031225_15.05.50.469,-0.00200,-0.01900,0.99100,0.07000,-0.10500,-0.03500,0.07600,0.41600,-0.55500,173.60000,0.04000
031225_15.05.50.481,-0.00200,-0.01900,0.99100,0.07000,-0.07000,-0.03500,0.07200,0.41700,-0.55400,173.19000,-0.41000
031225_15.05.50.493,-0.00200,-0.01900,0.99100,0.07000,-0.08700,-0.01800,0.07200,0.41700,-0.55400,173.40000,0.21000
031225_15.05.50.504,-0.00100,-0.01800,0.99000,0.05300,-0.07000,-0.01800,0.07300,0.41500,-0.55700,173.96000,0.56000
031225_15.05.50.515,-0.00300,-0.01900,0.99000,0.03500,-0.07000,-0.03500,0.07000,0.41200,-0.55400,173.73000,-0.23000
031225_15.05.50.527,-0.00300,-0.01800,0.99100,0.07000,-0.08700,-0.03500,0.07000,0.41100,-0.56200,173.13000,-0.60000
031225_15.05.50.538,-0.00300,-0.01900,0.99000,0.08700,-0.10500,-0.03500,0.07500,0.41600,-0.56500,173.99000,0.86000
031225_15.05.50.550,-0.00300,-0.01900,0.99100,0.03500,-0.10500,-0.03500,0.07500,0.41600,-0.56500,173.25000,-0.74000
031225_15.05.50.561,-0.00300,-0.01900,0.99200,0.05300,-0.08700,-0.03500,0.07300,0.41300,-0.55800,172.71000,-0.54000
031225_15.05.50.573,-0.00300,-0.01800,0.99100,0.05300,-0.08700,-0.03500,0.06900,0.41400,-0.56100,173.88000,1.17000
031225_15.05.50.584,-0.00200,-0.01900,0.99000,0.07000,-0.08700,-0.03500,0.06600,0.41700,-0.55100,173.80000,-0.08000
031225_15.05.50.596,-0.00300,-0.01900,0.99000,0.07000,-0.08700,-0.03500,0.06600,0.41700,-0.55100,173.47000,-0.33000
031225_15.05.50.607,-0.00200,-0.01900,0.99100,0.05300,-0.08700,-0.01800,0.06800,0.41600,-0.55300,173.42000,-0.05000
031225_15.05.50.619,-0.00400,-0.01800,0.99200,0.07000,-0.08700,-0.03500,0.06900,0.41400,-0.55100,173.35000,-0.07000
031225_15.05.50.630,-0.00200,-0.01700,0.99000,0.07000,-0.08700,-0.03500,0.06900,0.41400,-0.55900,173.62000,0.27000
031225_15.05.50.641,-0.00300,-0.01900,0.99100,0.05300,-0.08700,-0.03500,0.07300,0.41300,-0.55200,173.72000,0.10000
031225_15.05.50.653,-0.00300,-0.01900,0.99100,0.05300,-0.10500,-0.03500,0.07300,0.41300,-0.55200,173.73000,0.01000
031225_15.05.50.664,-0.00400,-0.01800,0.99000,0.05300,-0.12300,-0.03500,0.07200,0.41400,-0.55100,173.39000,-0.34000
031225_15.05.50.676,-0.00200,-0.01800,0.99200,0.05300,-0.08700,-0.03500,0.07200,0.41300,-0.55400,174.17000,0.78000
031225_15.05.50.687,-0.00400,-0.01800,0.99100,0.07000,-0.10500,-0.01800,0.06900,0.41700,-0.55500,173.37000,-0.80000
031225_15.05.50.699,-0.00300,-0.01900,0.99100,0.03500,-0.08700,0.00000,0.06900,0.41600,-0.55400,173.44000,0.07000
031225_15.05.50.710,-0.00200,-0.01800,0.99000,0.07000,-0.10500,-0.05300,0.07000,0.41600,-0.55400,173.47000,0.03000
031225_15.05.50.722,-0.00200,-0.01900,0.99100,0.05300,-0.10500,-0.03500,0.07200,0.41500,-0.55300,173.40000,-0.07000
031225_15.05.50.733,-0.00200,-0.01800,0.99100,0.07000,-0.10500,-0.05300,0.07000,0.41400,-0.55300,173.86000,0.46000
031225_15.05.50.745,-0.00300,-0.01900,0.99100,0.05300,-0.10500,-0.03500,0.06800,0.41300,-0.54900,173.41000,-0.45000
031225_15.05.50.756,-0.00300,-0.01900,0.99000,0.08700,-0.12300,-0.03500,0.06800,0.41300,-0.54900,173.69000,0.28000
031225_15.05.50.768,-0.00100,-0.01800,0.99100,0.05300,-0.10500,-0.03500,0.06800,0.41300,-0.55600,173.23000,-0.46000
031225_15.05.50.779,-0.00100,-0.01800,0.99100,0.08700,-0.10500,-0.01800,0.07000,0.41300,-0.55400,173.82000,0.59000
031225_15.05.50.790,-0.00300,-0.01800,0.99200,0.07000,-0.10500,-0.03500,0.06800,0.41600,-0.55300,173.56000,-0.26000
031225_15.05.50.802,-0.00200,-0.01900,0.99000,0.07000,-0.10500,-0.03500,0.07100,0.41100,-0.55400,173.31000,-0.25000
031225_15.05.50.814,-0.00200,-0.01900,0.99000,0.07000,-0.08700,-0.05300,0.07100,0.41100,-0.55400,173.61000,0.30000
031225_15.05.50.825,-0.00200,-0.01800,0.99100,0.05300,-0.10500,-0.03500,0.06900,0.41500,-0.55000,173.75000,0.14000
031225_15.05.50.837,-0.00200,-0.01800,0.99100,0.05300,-0.10500,-0.05300,0.06700,0.41800,-0.55300,173.34000,-0.41000
031225_15.05.50.848,-0.00200,-0.01900,0.99100,0.07000,-0.10500,-0.03500,0.06700,0.41500,-0.55500,173.84000,0.50000
031225_15.05.50.860,-0.00300,-0.01800,0.99000,0.05300,-0.08700,-0.03500,0.06700,0.41500,-0.55500,172.92000,-0.92000
031225_15.05.50.871,-0.00300,-0.01900,0.99000,0.05300,-0.12300,-0.03500,0.06900,0.41600,-0.54700,173.55000,0.63000
031225_15.05.50.883,-0.00300,-0.01800,0.99100,0.05300,-0.10500,-0.01800,0.06900,0.41400,-0.54900,173.57000,0.02000
031225_15.05.50.894,-0.00300,-0.01800,0.99300,0.08700,-0.08700,0.00000,0.06700,0.41700,-0.55100,174.22000,0.65000
031225_15.05.50.906,-0.00300,-0.01800,0.98800,0.07000,-0.10500,-0.03500,0.06800,0.41800,-0.55400,173.54000,-0.68000
031225_15.05.50.917,-0.00400,-0.01800,0.99000,0.07000,-0.08700,-0.03500,0.06800,0.41800,-0.55400,173.55000,0.01000
031225_15.05.50.929,-0.00200,-0.01900,0.99100,0.07000,-0.10500,-0.05300,0.06900,0.41700,-0.55500,173.25000,-0.30000
031225_15.05.50.940,-0.00100,-0.01800,0.99200,0.05300,-0.08700,-0.03500,0.07000,0.41600,-0.54800,173.62000,0.37000
031225_15.05.50.952,-0.00200,-0.01800,0.99200,0.07000,-0.10500,-0.05300,0.06500,0.41700,-0.55100,173.04000,-0.58000
031225_15.05.50.963,-0.00100,-0.01700,0.99100,0.07000,-0.10500,-0.01800,0.06500,0.41700,-0.55500,173.33000,0.29000
031225_15.05.50.975,-0.00300,-0.01800,0.99100,0.07000,-0.10500,-0.01800,0.06500,0.41700,-0.55500,173.71000,0.38000
031225_15.05.50.986,-0.00200,-0.01800,0.99200,0.08700,-0.10500,-0.03500,0.06600,0.41400,-0.54600,173.91000,0.20000
031225_15.05.50.998,-0.00200,-0.01800,0.99100,0.07000,-0.12300,-0.03500,0.07200,0.41500,-0.56000,173.89000,-0.02000
031225_15.05.51.009,-0.00300,-0.01800,0.99100,0.07000,-0.10500,-0.03500,0.06800,0.41600,-0.55500,173.30000,-0.59000
031225_15.05.51.020,-0.00300,-0.01800,0.99000,0.08700,-0.10500,-0.01800,0.06800,0.41600,-0.55500,173.13000,-0.17000
031225_15.05.51.032,-0.00300,-0.01800,0.99000,0.05300,-0.08700,-0.03500,0.07200,0.41700,-0.54900,173.25000,0.12000
031225_15.05.51.043,-0.00200,-0.01800,0.99100,0.03500,-0.10500,-0.03500,0.06800,0.41600,-0.55300,172.91000,-0.34000
031225_15.05.51.055,-0.00200,-0.01800,0.99200,0.05300,-0.08700,-0.05300,0.06600,0.41700,-0.55700,173.87000,0.96000
031225_15.05.51.066,-0.00300,-0.01900,0.99100,0.05300,-0.10500,-0.01800,0.07200,0.41700,-0.55700,173.59000,-0.28000
031225_15.05.51.078,-0.00300,-0.01900,0.99100,0.03500,-0.08700,-0.03500,0.07200,0.41700,-0.55700,173.37000,-0.22000
031225_15.05.51.089,-0.00300,-0.01800,0.99200,0.03500,-0.10500,-0.03500,0.06900,0.41400,-0.55600,173.62000,0.25000
031225_15.05.51.101,-0.00300,-0.01900,0.99100,0.07000,-0.10500,-0.03500,0.06700,0.41100,-0.55600,173.34000,-0.28000
031225_15.05.51.112,-0.00200,-0.01800,0.99100,0.05300,-0.12300,-0.03500,0.06500,0.41700,-0.55600,173.66000,0.32000
031225_15.05.51.124,-0.00200,-0.01800,0.99000,0.07000,-0.10500,-0.03500,0.06500,0.41700,-0.55600,173.65000,-0.01000
031225_15.05.51.135,-0.00300,-0.01800,0.99100,0.03500,-0.12300,-0.05300,0.06800,0.41600,-0.55300,173.48000,-0.17000
031225_15.05.51.147,-0.00300,-0.01800,0.99100,0.05300,-0.12300,-0.03500,0.06700,0.41600,-0.55100,173.11000,-0.37000
031225_15.05.51.158,-0.00200,-0.01900,0.99000,0.07000,-0.10500,-0.01800,0.06700,0.41600,-0.55000,173.19000,0.08000
031225_15.05.51.169,-0.00200,-0.01700,0.99100,0.07000,-0.10500,-0.03500,0.07000,0.41700,-0.55000,173.13000,-0.06000
031225_15.05.51.181,-0.00200,-0.01700,0.99000,0.07000,-0.10500,-0.03500,0.07000,0.41700,-0.55000,173.53000,0.40000
031225_15.05.51.192,-0.00100,-0.01900,0.99100,0.05300,-0.10500,-0.03500,0.06900,0.41700,-0.55100,173.29000,-0.24000
031225_15.05.51.204,-0.00200,-0.01800,0.99100,0.05300,-0.10500,-0.03500,0.06700,0.41500,-0.54900,173.23000,-0.06000
031225_15.05.51.215,-0.00200,-0.01800,0.99100,0.05300,-0.08700,-0.03500,0.06400,0.41900,-0.55300,173.60000,0.37000
031225_15.05.51.227,-0.00300,-0.01800,0.99100,0.07000,-0.10500,-0.03500,0.06400,0.41900,-0.55300,174.00000,0.40000
031225_15.05.51.238,-0.00200,-0.01800,0.99000,0.03500,-0.08700,-0.03500,0.06400,0.41800,-0.55400,173.30000,-0.70000
031225_15.05.51.250,-0.00300,-0.01900,0.99100,0.07000,-0.07000,-0.01800,0.06800,0.41800,-0.55100,173.56000,0.26000
031225_15.05.51.261,-0.00200,-0.01700,0.99000,0.07000,-0.10500,-0.05300,0.06500,0.41600,-0.55100,173.50000,-0.06000
031225_15.05.51.273,-0.00300,-0.01700,0.99000,0.05300,-0.10500,-0.03500,0.06700,0.41700,-0.55300,172.84000,-0.66000
031225_15.05.51.284,-0.00300,-0.01900,0.99100,0.03500,-0.08700,-0.03500,0.06700,0.41700,-0.55300,173.58000,0.74000
031225_15.05.51.296,-0.00200,-0.01700,0.99100,0.07000,-0.08700,-0.03500,0.07000,0.41800,-0.55100,173.22000,-0.36000
031225_15.05.51.307,-0.00100,-0.01800,0.99200,0.07000,-0.10500,-0.01800,0.06400,0.41400,-0.55300,173.50000,0.28000
031225_15.05.51.319,-0.00300,-0.01900,0.99100,0.07000,-0.10500,-0.01800,0.06200,0.41600,-0.55500,173.25000,-0.25000
031225_15.05.51.330,-0.00300,-0.02000,0.99000,0.05300,-0.08700,-0.03500,0.06200,0.41500,-0.55100,173.05000,-0.20000
031225_15.05.51.341,-0.00400,-0.01900,0.99100,0.07000,-0.12300,-0.03500,0.06400,0.41500,-0.55100,173.57000,0.52000
031225_15.05.51.353,-0.00300,-0.01900,0.99300,0.05300,-0.08700,-0.03500,0.06600,0.41600,-0.54400,173.45000,-0.12000
031225_15.05.51.364,-0.00300,-0.01900,0.99200,0.05300,-0.08700,-0.05300,0.06500,0.42000,-0.54800,173.71000,0.26000
031225_15.05.51.376,-0.00300,-0.01800,0.99000,0.05300,-0.12300,-0.05300,0.06400,0.41700,-0.54600,172.59000,-1.12000
031225_15.05.51.387,-0.00300,-0.01700,0.99100,0.07000,-0.10500,-0.05300,0.06400,0.41700,-0.54600,173.92000,1.33000
031225_15.05.51.399,-0.00300,-0.01900,0.99100,0.07000,-0.08700,-0.01800,0.06500,0.41400,-0.55400,172.90000,-1.02000
031225_15.05.51.410,-0.00100,-0.01700,0.99100,0.08700,-0.08700,-0.03500,0.06000,0.41800,-0.54700,173.72000,0.82000
031225_15.05.51.422,-0.00100,-0.01800,0.99100,0.07000,-0.10500,-0.03500,0.06500,0.41800,-0.55400,173.49000,-0.23000
031225_15.05.51.433,-0.00200,-0.01800,0.99200,0.03500,-0.08700,-0.03500,0.06700,0.41900,-0.55300,173.19000,-0.30000
031225_15.05.51.445,-0.00300,-0.01800,0.99100,0.07000,-0.08700,-0.03500,0.06700,0.41900,-0.55300,173.57000,0.38000
031225_15.05.51.456,-0.00100,-0.01800,0.99000,0.08700,-0.08700,-0.03500,0.06500,0.41300,-0.55500,173.46000,-0.11000
031225_15.05.51.468,-0.00300,-0.01900,0.99100,0.05300,-0.08700,-0.05300,0.06700,0.41700,-0.54700,173.47000,0.01000
031225_15.05.51.479,-0.00400,-0.01800,0.99200,0.03500,-0.08700,-0.03500,0.06500,0.41000,-0.54700,173.71000,0.24000
031225_15.05.51.491,-0.00200,-0.01800,0.99200,0.03500,-0.08700,-0.03500,0.06500,0.41000,-0.54700,172.77000,-0.94000
031225_15.05.51.502,-0.00300,-0.01900,0.98900,0.07000,-0.10500,-0.05300,0.06600,0.41700,-0.54400,173.23000,0.46000
031225_15.05.51.513,-0.00300,-0.01800,0.99100,0.07000,-0.10500,-0.05300,0.06400,0.41300,-0.54900,173.60000,0.37000
031225_15.05.51.525,-0.00200,-0.01900,0.99100,0.08700,-0.12300,-0.03500,0.06300,0.41400,-0.54600,173.58000,-0.02000
031225_15.05.51.536,-0.00300,-0.01800,0.99100,0.07000,-0.12300,-0.03500,0.06500,0.41100,-0.55100,173.74000,0.16000
031225_15.05.51.548,-0.00200,-0.01800,0.99100,0.07000,-0.10500,-0.01800,0.06500,0.41100,-0.55100,173.57000,-0.17000
031225_15.05.51.559,-0.00200,-0.02000,0.99200,0.07000,-0.08700,-0.01800,0.06300,0.41400,-0.55400,173.43000,-0.14000
031225_15.05.51.571,-0.00200,-0.01700,0.99100,0.05300,-0.07000,-0.03500,0.06300,0.41200,-0.55200,173.95000,0.52000
031225_15.05.51.582,-0.00300,-0.01700,0.99100,0.07000,-0.08700,-0.03500,0.06200,0.41400,-0.56000,173.56000,-0.39000
031225_15.05.51.594,-0.00300,-0.01800,0.99100,0.07000,-0.12300,-0.03500,0.06200,0.41400,-0.56000,174.21000,0.65000
031225_15.05.51.605,-0.00200,-0.01800,0.99000,0.05300,-0.10500,-0.01800,0.06200,0.41800,-0.55000,173.43000,-0.78000
031225_15.05.51.617,-0.00300,-0.01800,0.99100,0.07000,-0.08700,-0.03500,0.06500,0.41700,-0.55400,173.32000,-0.11000
031225_15.05.51.628,-0.00200,-0.01800,0.99000,0.05300,-0.10500,-0.03500,0.06600,0.41700,-0.54800,172.98000,-0.34000
031225_15.05.51.640,-0.00300,-0.01800,0.99100,0.08700,-0.10500,-0.03500,0.06700,0.41500,-0.55100,173.91000,0.93000
031225_15.05.51.651,-0.00400,-0.01900,0.99000,0.08700,-0.10500,-0.05300,0.06700,0.41500,-0.55100,173.29000,-0.62000
031225_15.05.51.663,-0.00100,-0.01900,0.99100,0.05300,-0.10500,-0.01800,0.06600,0.42000,-0.55500,173.47000,0.18000
031225_15.05.51.674,-0.00200,-0.01800,0.99100,0.07000,-0.10500,-0.03500,0.06700,0.41400,-0.55300,173.26000,-0.21000
031225_15.05.51.686,-0.00200,-0.01700,0.99100,0.05300,-0.10500,-0.03500,0.06800,0.42000,-0.54400,173.61000,0.35000
031225_15.05.51.697,-0.00200,-0.01800,0.99000,0.05300,-0.08700,-0.01800,0.06800,0.42000,-0.54300,173.77000,0.16000
031225_15.05.51.709,-0.00300,-0.01800,0.99100,0.03500,-0.10500,-0.03500,0.06400,0.42000,-0.54300,173.21000,-0.56000
031225_15.05.51.721,-0.00300,-0.01900,0.99000,0.07000,-0.10500,-0.03500,0.06400,0.41800,-0.55100,173.73000,0.52000
031225_15.05.51.733,-0.00200,-0.01700,0.99200,0.07000,-0.08700,-0.01800,0.06500,0.41700,-0.55300,173.16000,-0.57000
031225_15.05.51.744,-0.00300,-0.01800,0.99100,0.07000,-0.10500,-0.01800,0.06200,0.41500,-0.54800,173.07000,-0.09000
031225_15.05.51.756,-0.00200,-0.01900,0.99100,0.07000,-0.10500,-0.03500,0.06200,0.41500,-0.54800,173.65000,0.58000
031225_15.05.51.767,-0.00300,-0.01800,0.99100,0.07000,-0.10500,-0.03500,0.06600,0.41800,-0.55100,172.75000,-0.90000
031225_15.05.51.778,-0.00300,-0.01700,0.99000,0.05300,-0.08700,-0.01800,0.06100,0.41400,-0.54700,173.67000,0.92000
031225_15.05.51.790,-0.00200,-0.01800,0.99200,0.05300,-0.08700,-0.03500,0.06100,0.41800,-0.54800,173.16000,-0.51000
031225_15.05.51.801,-0.00200,-0.01800,0.99100,0.08700,-0.12300,-0.03500,0.06600,0.41800,-0.54900,173.64000,0.48000
031225_15.05.51.813,-0.00300,-0.01900,0.98900,0.07000,-0.10500,-0.03500,0.06600,0.41800,-0.54900,173.39000,-0.25000
031225_15.05.51.824,-0.00300,-0.01800,0.99000,0.05300,-0.12300,-0.03500,0.06200,0.41600,-0.55100,173.83000,0.44000
031225_15.05.51.836,-0.00400,-0.01800,0.99000,0.08700,-0.08700,-0.01800,0.06300,0.41900,-0.54900,173.67000,-0.16000
031225_15.05.51.847,-0.00300,-0.01800,0.99200,0.05300,-0.10500,-0.01800,0.06700,0.41600,-0.54500,173.34000,-0.33000
031225_15.05.51.858,-0.00300,-0.01800,0.98900,0.08700,-0.08700,-0.03500,0.06700,0.41600,-0.54500,173.85000,0.51000
031225_15.05.51.869,-0.00300,-0.01700,0.99100,0.05300,-0.08700,-0.03500,0.06300,0.41100,-0.54600,173.71000,-0.14000
031225_15.05.51.881,-0.00300,-0.01900,0.99200,0.05300,-0.10500,-0.03500,0.06300,0.41500,-0.54700,173.11000,-0.60000
031225_15.05.51.892,-0.00200,-0.01800,0.99200,0.05300,-0.10500,-0.03500,0.06300,0.41000,-0.54700,173.28000,0.17000
031225_15.05.51.904,-0.00200,-0.01900,0.99100,0.03500,-0.08700,-0.03500,0.06300,0.41600,-0.54400,173.44000,0.16000
031225_15.05.51.915,-0.00100,-0.01900,0.99000,0.05300,-0.08700,-0.03500,0.06300,0.41600,-0.54400,173.86000,0.42000
031225_15.05.51.926,-0.00200,-0.01900,0.99000,0.05300,-0.08700,-0.03500,0.06500,0.41700,-0.54700,173.26000,-0.60000
031225_15.05.51.938,-0.00200,-0.01800,0.99300,0.05300,-0.10500,-0.05300,0.06600,0.41800,-0.54700,173.21000,-0.05000
031225_15.05.51.950,-0.00200,-0.01800,0.99200,0.08700,-0.10500,-0.03500,0.06200,0.41500,-0.54500,173.62000,0.41000
031225_15.05.51.961,-0.00100,-0.01800,0.99100,0.07000,-0.14000,-0.03500,0.06200,0.41500,-0.54800,173.34000,-0.28000
031225_15.05.51.973,-0.00300,-0.01900,0.99000,0.05300,-0.08700,-0.03500,0.06700,0.41400,-0.54800,173.26000,-0.08000
031225_15.05.51.984,-0.00300,-0.01900,0.99200,0.05300,-0.08700,-0.05300,0.06900,0.41400,-0.54500,173.33000,0.07000
031225_15.05.51.996,-0.00300,-0.02000,0.99300,0.05300,-0.10500,-0.03500,0.06900,0.41500,-0.55100,173.57000,0.24000
031225_15.05.52.007,-0.00200,-0.01900,0.99100,0.05300,-0.10500,-0.03500,0.06600,0.41800,-0.55100,173.47000,-0.10000
031225_15.05.52.019,-0.00300,-0.01900,0.99100,0.05300,-0.10500,-0.03500,0.06600,0.41800,-0.55100,173.50000,0.03000
031225_15.05.52.030,-0.00200,-0.01900,0.99000,0.07000,-0.12300,-0.01800,0.06600,0.41000,-0.55400,173.34000,-0.16000
031225_15.05.52.042,-0.00300,-0.01900,0.98900,0.05300,-0.08700,-0.01800,0.06500,0.41100,-0.54800,173.55000,0.21000
031225_15.05.52.053,-0.00300,-0.01900,0.99100,0.05300,-0.08700,-0.03500,0.06800,0.41600,-0.55600,173.52000,-0.03000
031225_15.05.52.065,-0.00300,-0.01800,0.99100,0.07000,-0.10500,-0.01800,0.06700,0.41500,-0.54800,173.90000,0.38000
031225_15.05.52.076,-0.00300,-0.01800,0.99100,0.05300,-0.08700,-0.03500,0.06700,0.41500,-0.54800,173.12000,-0.78000
031225_15.05.52.088,-0.00300,-0.01800,0.99100,0.05300,-0.08700,-0.03500,0.06700,0.42000,-0.55000,173.63000,0.51000
031225_15.05.52.099,-0.00300,-0.01800,0.99000,0.07000,-0.10500,-0.01800,0.06700,0.41400,-0.54700,172.90000,-0.73000
031225_15.05.52.111,-0.00200,-0.01800,0.99100,0.07000,-0.07000,-0.03500,0.07000,0.41100,-0.55000,173.65000,0.75000
031225_15.05.52.123,-0.00300,-0.01900,0.99100,0.08700,-0.10500,-0.05300,0.07000,0.41100,-0.55000,173.46000,-0.19000
031225_15.05.52.134,-0.00300,-0.01800,0.99100,0.08700,-0.10500,-0.03500,0.06900,0.41800,-0.55300,173.54000,0.08000
031225_15.05.52.146,-0.00200,-0.01800,0.99000,0.05300,-0.10500,-0.01800,0.07000,0.41600,-0.54900,173.06000,-0.48000
031225_15.05.52.158,-0.00300,-0.01900,0.99100,0.03500,-0.10500,-0.03500,0.07000,0.41700,-0.54700,173.47000,0.41000
031225_15.05.52.169,-0.00400,-0.01800,0.99000,0.07000,-0.08700,-0.03500,0.07300,0.41500,-0.54900,173.03000,-0.44000
031225_15.05.52.181,-0.00300,-0.01800,0.99100,0.05300,-0.10500,-0.03500,0.07300,0.41500,-0.54900,173.88000,0.85000
031225_15.05.52.193,-0.00300,-0.01900,0.98900,0.08700,-0.10500,-0.03500,0.06900,0.41800,-0.55200,173.24000,-0.64000
031225_15.05.52.204,-0.00200,-0.01800,0.99100,0.07000,-0.08700,-0.01800,0.06500,0.41300,-0.54200,173.42000,0.18000
031225_15.05.52.216,-0.00400,-0.01800,0.99200,0.05300,-0.08700,-0.01800,0.06800,0.41600,-0.55000,173.92000,0.50000
031225_15.05.52.228,-0.00200,-0.01800,0.99100,0.05300,-0.12300,-0.01800,0.06800,0.41600,-0.55000,173.73000,-0.19000
031225_15.05.52.239,-0.00200,-0.01800,0.99100,0.07000,-0.10500,-0.03500,0.06300,0.41800,-0.54900,173.96000,0.23000
031225_15.05.52.251,-0.00200,-0.01800,0.99000,0.08700,-0.12300,-0.01800,0.06700,0.41600,-0.55100,173.63000,-0.33000
031225_15.05.52.263,-0.00200,-0.01800,0.99300,0.05300,-0.12300,-0.03500,0.06600,0.42000,-0.54800,173.72000,0.09000
031225_15.05.52.274,-0.00200,-0.01800,0.99000,0.05300,-0.10500,-0.03500,0.06900,0.41400,-0.54600,173.83000,0.11000
031225_15.05.52.286,-0.00300,-0.02000,0.98900,0.07000,-0.12300,-0.03500,0.06900,0.41400,-0.54600,173.46000,-0.37000
031225_15.05.52.298,-0.00300,-0.01800,0.99000,0.05300,-0.08700,-0.03500,0.06900,0.41500,-0.54600,173.83000,0.37000
031225_15.05.52.310,-0.00300,-0.01800,0.99200,0.03500,-0.08700,-0.03500,0.06700,0.42000,-0.54300,172.42000,-1.41000
031225_15.05.52.321,-0.00200,-0.01900,0.99200,0.05300,-0.10500,-0.03500,0.07000,0.41700,-0.54900,173.30000,0.88000
031225_15.05.52.333,-0.00300,-0.01800,0.99000,0.05300,-0.12300,-0.03500,0.07000,0.41700,-0.54800,173.15000,-0.15000
031225_15.05.52.344,-0.00300,-0.01900,0.98900,0.08700,-0.10500,-0.03500,0.06800,0.41900,-0.54800,173.25000,0.10000
031225_15.05.52.356,-0.00300,-0.01900,0.99200,0.07000,-0.10500,-0.01800,0.06700,0.41600,-0.54500,173.92000,0.67000
031225_15.05.52.367,-0.00200,-0.01700,0.99200,0.07000,-0.08700,-0.01800,0.06700,0.42000,-0.54500,173.13000,-0.79000
031225_15.05.52.379,-0.00200,-0.01800,0.99100,0.08700,-0.08700,-0.01800,0.06700,0.41700,-0.55300,173.62000,0.49000
031225_15.05.52.390,-0.00300,-0.01800,0.99000,0.07000,-0.08700,-0.03500,0.06700,0.41700,-0.55300,172.82000,-0.80000
031225_15.05.52.402,-0.00200,-0.01800,0.99000,0.07000,-0.08700,-0.03500,0.06800,0.41800,-0.54700,173.39000,0.57000
031225_15.05.52.413,-0.00300,-0.01800,0.99100,0.03500,-0.08700,-0.03500,0.07300,0.41500,-0.54500,173.31000,-0.08000
031225_15.05.52.425,-0.00200,-0.01900,0.99200,0.05300,-0.08700,-0.05300,0.07000,0.41400,-0.55400,173.78000,0.47000
031225_15.05.52.436,-0.00300,-0.01700,0.99100,0.07000,-0.08700,-0.03500,0.06600,0.41500,-0.55600,173.50000,-0.28000
031225_15.05.52.448,-0.00300,-0.01900,0.99100,0.05300,-0.08700,-0.01800,0.06600,0.41500,-0.55600,173.32000,-0.18000
031225_15.05.52.459,-0.00300,-0.01900,0.99100,0.07000,-0.10500,-0.01800,0.06800,0.41700,-0.54800,173.07000,-0.25000
031225_15.05.52.471,-0.00300,-0.01800,0.99000,0.07000,-0.10500,-0.03500,0.06700,0.42200,-0.55200,173.65000,0.58000
031225_15.05.52.482,-0.00300,-0.01800,0.99100,0.07000,-0.08700,-0.03500,0.06900,0.42000,-0.55100,173.43000,-0.22000
031225_15.05.52.494,-0.00400,-0.01800,0.99000,0.05300,-0.08700,-0.01800,0.06900,0.42000,-0.55100,173.72000,0.29000
031225_15.05.52.505,-0.00200,-0.01800,0.99100,0.05300,-0.10500,-0.03500,0.06700,0.41600,-0.55200,173.88000,0.16000
031225_15.05.52.517,-0.00200,-0.01800,0.99200,0.05300,-0.08700,-0.01800,0.06500,0.41700,-0.55300,174.28000,0.40000
031225_15.05.52.528,-0.00300,-0.01800,0.99100,0.08700,-0.10500,-0.01800,0.06700,0.41800,-0.55200,173.53000,-0.75000
031225_15.05.52.540,-0.00200,-0.01800,0.99000,0.08700,-0.10500,-0.01800,0.07100,0.41900,-0.55100,173.49000,-0.04000
031225_15.05.52.552,-0.00300,-0.01900,0.99200,0.07000,-0.10500,-0.01800,0.07100,0.41900,-0.55100,173.45000,-0.04000
031225_15.05.52.563,-0.00400,-0.01800,0.99100,0.05300,-0.10500,-0.01800,0.06800,0.41800,-0.55300,173.92000,0.47000
031225_15.05.52.574,-0.00200,-0.01800,0.99200,0.08700,-0.08700,-0.01800,0.07000,0.41800,-0.54800,173.11000,-0.81000
031225_15.05.52.586,-0.00200,-0.01900,0.99100,0.08700,-0.12300,-0.03500,0.06800,0.41800,-0.55300,173.55000,0.44000
031225_15.05.52.597,-0.00200,-0.01800,0.99000,0.07000,-0.08700,-0.01800,0.06800,0.41800,-0.55300,173.51000,-0.04000
031225_15.05.52.609,-0.00300,-0.01800,0.99200,0.05300,-0.08700,-0.05300,0.06900,0.41500,-0.54600,173.52000,0.01000
031225_15.05.52.620,-0.00300,-0.01800,0.99300,0.05300,-0.08700,-0.05300,0.06700,0.41700,-0.54400,173.43000,-0.09000
031225_15.05.52.632,-0.00400,-0.01800,0.99000,0.08700,-0.08700,-0.05300,0.06700,0.41700,-0.54600,173.04000,-0.39000
031225_15.05.52.643,-0.00300,-0.01900,0.99000,0.05300,-0.10500,-0.03500,0.06700,0.42000,-0.54500,173.15000,0.11000
031225_15.05.52.655,-0.00300,-0.01900,0.99200,0.05300,-0.07000,-0.05300,0.06700,0.42000,-0.54500,173.55000,0.40000
031225_15.05.52.666,-0.00200,-0.01800,0.99300,0.01800,-0.08700,-0.05300,0.07100,0.41500,-0.54200,173.60000,0.05000
031225_15.05.52.677,-0.00300,-0.01800,0.99100,0.07000,-0.12300,-0.03500,0.06900,0.41900,-0.54800,173.13000,-0.47000
031225_15.05.52.689,-0.00300,-0.01800,0.99000,0.07000,-0.08700,-0.03500,0.06900,0.42200,-0.54900,173.55000,0.42000
031225_15.05.52.700,-0.00200,-0.01900,0.99100,0.05300,-0.10500,-0.05300,0.06900,0.41600,-0.54800,173.72000,0.17000
031225_15.05.52.712,-0.00200,-0.01900,0.99400,0.05300,-0.10500,-0.03500,0.06500,0.41600,-0.54800,173.28000,-0.44000
031225_15.05.52.723,-0.00200,-0.01900,0.99200,0.08700,-0.10500,-0.03500,0.06600,0.41800,-0.54800,173.33000,0.05000
031225_15.05.52.735,-0.00300,-0.01700,0.98900,0.10500,-0.10500,-0.01800,0.06600,0.41700,-0.54600,172.67000,-0.66000
031225_15.05.52.746,-0.00300,-0.01800,0.98900,0.07000,-0.10500,-0.03500,0.06400,0.41300,-0.54600,173.88000,1.21000
031225_15.05.52.758,-0.00300,-0.01900,0.99100,0.03500,-0.08700,-0.01800,0.06400,0.41300,-0.54600,173.39000,-0.49000
031225_15.05.52.769,-0.00300,-0.01800,0.99400,0.03500,-0.08700,-0.03500,0.06700,0.41200,-0.55000,173.60000,0.21000
031225_15.05.52.781,-0.00300,-0.01800,0.99100,0.07000,-0.10500,-0.03500,0.07100,0.41500,-0.55000,173.61000,0.01000
031225_15.05.52.792,-0.00200,-0.01800,0.98900,0.07000,-0.10500,-0.03500,0.07000,0.41500,-0.54300,173.60000,-0.01000
031225_15.05.52.804,-0.00200,-0.01900,0.99100,0.01800,-0.08700,-0.03500,0.06700,0.41800,-0.54600,173.50000,-0.10000
031225_15.05.52.815,-0.00100,-0.01900,0.99200,0.05300,-0.08700,-0.03500,0.06700,0.41800,-0.54600,172.96000,-0.54000
031225_15.05.52.827,-0.00200,-0.01900,0.99000,0.05300,-0.08700,-0.03500,0.06700,0.41900,-0.54500,173.77000,0.81000
031225_15.05.52.838,-0.00100,-0.01900,0.99100,0.05300,-0.10500,-0.05300,0.06700,0.41500,-0.54300,174.15000,0.38000
031225_15.05.52.850,-0.00200,-0.01700,0.99100,0.07000,-0.10500,-0.03500,0.06400,0.41700,-0.54300,173.42000,-0.73000
031225_15.05.52.861,-0.00300,-0.01800,0.99100,0.05300,-0.08700,-0.05300,0.06400,0.41700,-0.54300,172.90000,-0.52000
031225_15.05.52.872,-0.00300,-0.01900,0.99100,0.03500,-0.08700,-0.01800,0.06800,0.41700,-0.55400,173.52000,0.62000
031225_15.05.52.884,-0.00300,-0.01900,0.99100,0.05300,-0.08700,-0.03500,0.06100,0.41600,-0.54900,173.86000,0.34000
031225_15.05.52.895,-0.00300,-0.01900,0.99000,0.07000,-0.08700,-0.01800,0.06700,0.41500,-0.55500,173.83000,-0.03000
031225_15.05.52.907,-0.00200,-0.01800,0.99000,0.05300,-0.10500,-0.03500,0.06600,0.41600,-0.55300,173.43000,-0.40000
031225_15.05.52.918,-0.00100,-0.01900,0.99100,0.05300,-0.10500,-0.03500,0.06600,0.41600,-0.55300,173.29000,-0.14000
031225_15.05.52.930,-0.00300,-0.01900,0.99100,0.05300,-0.10500,-0.03500,0.06600,0.41900,-0.55200,173.76000,0.47000
031225_15.05.52.941,-0.00300,-0.01800,0.99100,0.05300,-0.10500,-0.03500,0.06900,0.41900,-0.55000,173.39000,-0.37000
031225_15.05.52.953,-0.00300,-0.01900,0.99200,0.08700,-0.08700,-0.03500,0.07100,0.41700,-0.55100,173.97000,0.58000
031225_15.05.52.964,-0.00200,-0.01900,0.99100,0.07000,-0.08700,-0.03500,0.07100,0.41700,-0.55100,173.55000,-0.42000
031225_15.05.52.976,-0.00400,-0.01900,0.99100,0.05300,-0.08700,-0.03500,0.06500,0.41600,-0.55600,173.57000,0.02000
031225_15.05.52.987,-0.00400,-0.01900,0.99200,0.05300,-0.08700,-0.03500,0.06800,0.41800,-0.55800,173.89000,0.32000
031225_15.05.52.999,-0.00300,-0.01800,0.99000,0.08700,-0.08700,-0.01800,0.06300,0.41700,-0.55500,173.40000,-0.49000
031225_15.05.53.011,-0.00200,-0.01700,0.99100,0.05300,-0.08700,-0.01800,0.06800,0.41800,-0.55500,174.07000,0.67000
031225_15.05.53.022,-0.00200,-0.01900,0.99100,0.05300,-0.10500,-0.03500,0.06800,0.41800,-0.55500,173.41000,-0.66000
031225_15.05.53.034,-0.00300,-0.02000,0.99000,0.03500,-0.10500,-0.01800,0.06300,0.41700,-0.55700,173.65000,0.24000
031225_15.05.53.045,-0.00300,-0.01800,0.99100,0.07000,-0.08700,-0.03500,0.06300,0.41700,-0.54700,174.12000,0.47000
031225_15.05.53.056,-0.00300,-0.01800,0.99100,0.03500,-0.08700,-0.03500,0.06400,0.41600,-0.55300,173.65000,-0.47000
031225_15.05.53.068,-0.00200,-0.01900,0.99100,0.05300,-0.08700,-0.03500,0.06500,0.41400,-0.55200,173.02000,-0.63000
031225_15.05.53.079,-0.00200,-0.01700,0.99100,0.03500,-0.08700,-0.05300,0.06500,0.41400,-0.55200,173.68000,0.66000
031225_15.05.53.091,-0.00200,-0.01800,0.99100,0.08700,-0.12300,-0.05300,0.06400,0.42000,-0.55100,173.42000,-0.26000
031225_15.05.53.102,-0.00200,-0.01800,0.99000,0.08700,-0.12300,-0.03500,0.06700,0.41400,-0.54900,173.04000,-0.38000
031225_15.05.53.114,-0.00200,-0.01800,0.99200,0.08700,-0.12300,-0.03500,0.06500,0.41500,-0.54500,172.99000,-0.05000
031225_15.05.53.125,-0.00200,-0.01800,0.99200,0.05300,-0.08700,-0.05300,0.06500,0.41500,-0.54500,173.94000,0.95000
031225_15.05.53.137,-0.00100,-0.01900,0.99000,0.05300,-0.10500,-0.01800,0.06600,0.41200,-0.54900,173.53000,-0.41000
031225_15.05.53.148,-0.00300,-0.01700,0.99100,0.05300,-0.10500,-0.03500,0.06600,0.41200,-0.55100,173.56000,0.03000
031225_15.05.53.160,-0.00200,-0.01800,0.99000,0.03500,-0.08700,-0.03500,0.07100,0.41900,-0.54900,173.52000,-0.04000
031225_15.05.53.171,-0.00300,-0.01800,0.99000,0.01800,-0.07000,-0.01800,0.06700,0.42000,-0.54900,172.68000,-0.84000
031225_15.05.53.183,-0.00200,-0.01900,0.99000,0.07000,-0.10500,-0.03500,0.06700,0.42000,-0.54900,173.52000,0.84000
031225_15.05.53.194,-0.00300,-0.01800,0.99000,0.05300,-0.12300,-0.03500,0.06800,0.41700,-0.55000,173.22000,-0.30000
031225_15.05.53.206,-0.00200,-0.01900,0.99200,0.05300,-0.10500,-0.03500,0.07100,0.41800,-0.54800,174.09000,0.87000
031225_15.05.53.217,-0.00200,-0.01900,0.99100,0.05300,-0.12300,-0.05300,0.06700,0.41600,-0.54700,173.81000,-0.28000
031225_15.05.53.229,-0.00200,-0.01900,0.99100,0.05300,-0.12300,-0.03500,0.06700,0.41600,-0.54700,173.94000,0.13000
031225_15.05.53.240,-0.00300,-0.01900,0.98900,0.08700,-0.10500,-0.03500,0.06600,0.41500,-0.54700,173.38000,-0.56000
031225_15.05.53.252,-0.00300,-0.01900,0.99300,0.07000,-0.08700,-0.03500,0.07000,0.41400,-0.54400,173.22000,-0.16000
031225_15.05.53.263,-0.00200,-0.01900,0.99100,0.07000,-0.10500,-0.03500,0.06700,0.41600,-0.55100,174.00000,0.78000
031225_15.05.53.275,-0.00300,-0.01900,0.99200,0.05300,-0.08700,0.00000,0.06500,0.41700,-0.54500,173.45000,-0.55000
031225_15.05.53.286,-0.00300,-0.01800,0.99100,0.07000,-0.10500,-0.03500,0.06500,0.41700,-0.54500,173.86000,0.41000
031225_15.05.53.298,-0.00300,-0.01800,0.99100,0.05300,-0.08700,-0.05300,0.06600,0.41300,-0.54800,172.98000,-0.88000
031225_15.05.53.309,-0.00300,-0.01900,0.99100,0.05300,-0.08700,-0.05300,0.06800,0.41500,-0.54900,173.75000,0.77000
031225_15.05.53.320,-0.00300,-0.01800,0.99200,0.05300,-0.08700,-0.03500,0.06900,0.41300,-0.55300,173.69000,-0.06000
031225_15.05.53.332,-0.00300,-0.01700,0.99000,0.08700,-0.12300,-0.01800,0.06900,0.41300,-0.55300,173.29000,-0.40000
031225_15.05.53.343,-0.00300,-0.01900,0.99200,0.07000,-0.10500,-0.01800,0.06900,0.41400,-0.55300,173.74000,0.45000
031225_15.05.53.355,-0.00300,-0.01900,0.99000,0.07000,-0.08700,-0.01800,0.07200,0.41400,-0.54900,173.88000,0.14000
031225_15.05.53.366,-0.00300,-0.01900,0.99100,0.05300,-0.07000,-0.05300,0.06600,0.41200,-0.54700,173.35000,-0.53000
031225_15.05.53.378,-0.00300,-0.01800,0.99100,0.07000,-0.10500,-0.03500,0.06600,0.41000,-0.54400,173.89000,0.54000
031225_15.05.53.389,-0.00300,-0.01800,0.99200,0.05300,-0.10500,-0.01800,0.06600,0.41000,-0.54400,173.70000,-0.19000
031225_15.05.53.401,-0.00100,-0.01800,0.99200,0.07000,-0.08700,-0.01800,0.07100,0.41400,-0.55000,173.56000,-0.14000
031225_15.05.53.412,-0.00300,-0.01700,0.99100,0.07000,-0.10500,-0.03500,0.06800,0.41600,-0.54900,173.79000,0.23000
031225_15.05.53.424,-0.00200,-0.01900,0.99200,0.07000,-0.08700,-0.03500,0.07100,0.41400,-0.55200,173.61000,-0.18000
031225_15.05.53.435,-0.00200,-0.01800,0.99000,0.07000,-0.12300,-0.03500,0.07100,0.41600,-0.54900,173.51000,-0.10000
031225_15.05.53.447,-0.00200,-0.01900,0.99100,0.03500,-0.10500,-0.03500,0.07100,0.41600,-0.54900,173.49000,-0.02000
031225_15.05.53.458,-0.00300,-0.01700,0.99000,0.05300,-0.10500,-0.01800,0.06800,0.41400,-0.55200,174.25000,0.76000
031225_15.05.53.470,-0.00300,-0.01800,0.99100,0.05300,-0.10500,-0.01800,0.06600,0.41500,-0.54600,173.63000,-0.62000
031225_15.05.53.481,-0.00300,-0.01900,0.99100,0.07000,-0.10500,-0.03500,0.06500,0.41700,-0.55000,174.07000,0.44000
031225_15.05.53.493,-0.00300,-0.01800,0.99100,0.10500,-0.10500,-0.01800,0.06500,0.41700,-0.55000,173.07000,-1.00000
031225_15.05.53.504,-0.00300,-0.01900,0.99100,0.08700,-0.08700,-0.03500,0.06400,0.41800,-0.55500,173.49000,0.42000
031225_15.05.53.516,-0.00200,-0.01800,0.99100,0.07000,-0.10500,-0.03500,0.06400,0.41200,-0.55000,173.28000,-0.21000
031225_15.05.53.527,-0.00300,-0.01900,0.99000,0.07000,-0.12300,-0.01800,0.06900,0.41600,-0.55400,173.85000,0.57000
031225_15.05.53.539,-0.00200,-0.01900,0.99100,0.07000,-0.10500,-0.01800,0.06600,0.41300,-0.55100,173.57000,-0.28000
031225_15.05.53.550,-0.00300,-0.01800,0.99100,0.07000,-0.10500,-0.03500,0.06600,0.41300,-0.55100,173.28000,-0.29000
031225_15.05.53.562,-0.00400,-0.01800,0.99000,0.07000,-0.08700,-0.03500,0.07000,0.41100,-0.54600,173.88000,0.60000
031225_15.05.53.573,-0.00300,-0.01800,0.99100,0.07000,-0.14000,-0.01800,0.06700,0.41200,-0.54600,174.00000,0.12000
031225_15.05.53.584,-0.00300,-0.01900,0.99300,0.05300,-0.08700,-0.03500,0.06800,0.41200,-0.55700,173.81000,-0.19000
031225_15.05.53.596,-0.00400,-0.01900,0.99200,0.08700,-0.08700,-0.03500,0.06800,0.41200,-0.55700,173.77000,-0.04000
031225_15.05.53.608,-0.00200,-0.01900,0.99000,0.07000,-0.07000,-0.05300,0.06300,0.41700,-0.55200,173.29000,-0.48000
031225_15.05.53.619,-0.00300,-0.01900,0.99000,0.05300,-0.10500,-0.03500,0.06100,0.41100,-0.55000,173.86000,0.57000
031225_15.05.53.630,-0.00300,-0.01900,0.99200,0.05300,-0.10500,-0.03500,0.06800,0.41400,-0.55200,173.50000,-0.36000
031225_15.05.53.642,-0.00300,-0.01900,0.99100,0.07000,-0.12300,-0.03500,0.06700,0.41000,-0.55000,173.91000,0.41000
031225_15.05.53.653,-0.00200,-0.01800,0.99100,0.05300,-0.08700,-0.05300,0.06700,0.41000,-0.55000,174.48000,0.57000
031225_15.05.53.665,-0.00200,-0.01800,0.98900,0.08700,-0.10500,-0.03500,0.06500,0.41400,-0.54900,173.58000,-0.90000
031225_15.05.53.676,-0.00200,-0.02000,0.99100,0.07000,-0.08700,-0.05300,0.06400,0.41100,-0.54600,174.04000,0.46000
031225_15.05.53.688,-0.00200,-0.01900,0.99200,0.08700,-0.08700,-0.05300,0.06500,0.41400,-0.55300,174.10000,0.06000
031225_15.05.53.699,-0.00200,-0.01800,0.99100,0.03500,-0.08700,-0.05300,0.06500,0.41400,-0.54900,173.66000,-0.44000
031225_15.05.53.711,-0.00200,-0.01800,0.99100,0.03500,-0.08700,-0.03500,0.06200,0.40800,-0.54900,173.66000,0.00000
031225_15.05.53.722,-0.00200,-0.01900,0.99100,0.07000,-0.08700,-0.03500,0.06500,0.40900,-0.54900,174.31000,0.65000
031225_15.05.53.734,-0.00300,-0.01800,0.99100,0.05300,-0.10500,-0.03500,0.06400,0.41400,-0.55400,173.30000,-1.01000
031225_15.05.53.745,-0.00300,-0.01900,0.99100,0.05300,-0.12300,-0.03500,0.06600,0.41100,-0.55000,173.97000,0.67000
031225_15.05.53.757,-0.00300,-0.01900,0.99200,0.05300,-0.08700,-0.03500,0.06600,0.41100,-0.55000,173.86000,-0.11000
031225_15.05.53.768,-0.00400,-0.01800,0.99000,0.07000,-0.10500,-0.03500,0.06200,0.41300,-0.54700,173.66000,-0.20000
031225_15.05.53.780,-0.00200,-0.01800,0.99100,0.05300,-0.10500,-0.03500,0.06900,0.41300,-0.54700,173.45000,-0.21000
031225_15.05.53.791,-0.00300,-0.01900,0.99100,0.07000,-0.10500,-0.03500,0.06300,0.41200,-0.54400,173.51000,0.06000
031225_15.05.53.803,-0.00200,-0.01800,0.99100,0.05300,-0.08700,-0.03500,0.06500,0.41100,-0.54300,173.52000,0.01000
031225_15.05.53.814,-0.00200,-0.01800,0.99100,0.05300,-0.10500,-0.03500,0.06500,0.41100,-0.54300,173.90000,0.38000
031225_15.05.53.826,-0.00300,-0.01800,0.99000,0.03500,-0.10500,-0.03500,0.06900,0.41000,-0.55100,173.40000,-0.50000
031225_15.05.53.837,-0.00200,-0.01900,0.99100,0.05300,-0.10500,-0.03500,0.06700,0.40900,-0.55700,173.66000,0.26000
031225_15.05.53.848,-0.00300,-0.01900,0.99300,0.07000,-0.10500,-0.03500,0.07000,0.41200,-0.55000,173.50000,-0.16000
031225_15.05.53.860,-0.00100,-0.01900,0.99000,0.08700,-0.10500,-0.03500,0.07000,0.41200,-0.55000,173.20000,-0.30000
031225_15.05.53.871,-0.00200,-0.01800,0.99100,0.07000,-0.08700,-0.03500,0.06900,0.41200,-0.55100,174.14000,0.94000
031225_15.05.53.883,-0.00300,-0.01800,0.99200,0.05300,-0.10500,-0.03500,0.06800,0.41300,-0.55300,173.36000,-0.78000
031225_15.05.53.894,-0.00300,-0.01900,0.99100,0.07000,-0.10500,-0.03500,0.06600,0.41400,-0.55400,172.91000,-0.45000
031225_15.05.53.906,-0.00200,-0.01800,0.99100,0.05300,-0.12300,-0.03500,0.06800,0.41200,-0.55300,174.43000,1.52000
031225_15.05.53.917,-0.00300,-0.01700,0.99100,0.03500,-0.10500,-0.01800,0.06800,0.41200,-0.55300,173.58000,-0.85000
031225_15.05.53.929,-0.00200,-0.01900,0.99000,0.07000,-0.10500,-0.03500,0.06200,0.41600,-0.54900,173.71000,0.13000
031225_15.05.53.940,-0.00200,-0.01800,0.99000,0.07000,-0.08700,-0.05300,0.06700,0.41500,-0.54400,174.09000,0.38000
031225_15.05.53.952,-0.00300,-0.01900,0.99200,0.05300,-0.08700,-0.03500,0.07000,0.41500,-0.54800,173.29000,-0.80000
031225_15.05.53.963,-0.00200,-0.01800,0.99100,0.08700,-0.10500,-0.03500,0.07000,0.41500,-0.54800,173.80000,0.51000
031225_15.05.53.975,-0.00200,-0.01800,0.99200,0.05300,-0.08700,-0.03500,0.06200,0.41300,-0.54800,173.72000,-0.08000
031225_15.05.53.986,-0.00200,-0.01800,0.99000,0.05300,-0.07000,-0.05300,0.06500,0.41400,-0.55100,174.42000,0.70000
031225_15.05.53.998,-0.00300,-0.01800,0.99100,0.03500,-0.08700,-0.03500,0.06600,0.41300,-0.54900,173.71000,-0.71000
031225_15.05.54.009,-0.00300,-0.01800,0.99200,0.07000,-0.10500,-0.03500,0.06400,0.41500,-0.54700,173.43000,-0.28000
031225_15.05.54.021,-0.00200,-0.01900,0.99000,0.08700,-0.10500,-0.03500,0.06400,0.41500,-0.54700,173.70000,0.27000
031225_15.05.54.032,-0.00200,-0.01700,0.99100,0.05300,-0.10500,0.00000,0.06600,0.41000,-0.54300,173.95000,0.25000
031225_15.05.54.044,-0.00300,-0.01800,0.99100,0.07000,-0.10500,-0.03500,0.06600,0.41300,-0.54900,173.79000,-0.16000
031225_15.05.54.055,-0.00100,-0.01800,0.99100,0.05300,-0.08700,-0.03500,0.06900,0.41200,-0.54500,174.05000,0.26000
031225_15.05.54.067,-0.00300,-0.01800,0.99100,0.05300,-0.08700,-0.03500,0.06900,0.41400,-0.55100,173.75000,-0.30000
031225_15.05.54.078,-0.00200,-0.01700,0.99000,0.07000,-0.08700,-0.03500,0.06500,0.41400,-0.55100,173.98000,0.23000
031225_15.05.54.090,-0.00300,-0.01800,0.99100,0.07000,-0.10500,-0.03500,0.06800,0.41500,-0.54800,173.94000,-0.04000
031225_15.05.54.101,-0.00100,-0.01700,0.99100,0.07000,-0.10500,-0.03500,0.06700,0.41700,-0.54900,173.43000,-0.51000
031225_15.05.54.113,-0.00200,-0.01900,0.99300,0.05300,-0.08700,-0.01800,0.06600,0.41900,-0.54300,173.58000,0.15000
031225_15.05.54.124,-0.00300,-0.01800,0.99100,0.07000,-0.10500,-0.01800,0.06600,0.41900,-0.54300,173.60000,0.02000
031225_15.05.54.136,-0.00300,-0.01800,0.99000,0.05300,-0.10500,-0.03500,0.06300,0.41600,-0.54600,173.88000,0.28000
031225_15.05.54.147,-0.00200,-0.01800,0.99100,0.05300,-0.10500,-0.03500,0.06800,0.42000,-0.54500,174.09000,0.21000
031225_15.05.54.159,-0.00200,-0.01800,0.99300,0.01800,-0.08700,-0.05300,0.06500,0.41700,-0.55000,173.54000,-0.55000
031225_15.05.54.170,-0.00300,-0.01900,0.99000,0.07000,-0.12300,-0.03500,0.06800,0.41400,-0.54600,174.09000,0.55000
031225_15.05.54.182,-0.00200,-0.01800,0.99100,0.07000,-0.10500,-0.03500,0.06800,0.41400,-0.54600,173.50000,-0.59000
031225_15.05.54.193,-0.00300,-0.01900,0.99000,0.05300,-0.10500,-0.03500,0.06700,0.41700,-0.54600,173.33000,-0.17000
031225_15.05.54.204,-0.00200,-0.01700,0.99100,0.07000,-0.08700,-0.01800,0.06900,0.41500,-0.55100,173.93000,0.60000
031225_15.05.54.216,-0.00300,-0.01800,0.99200,0.05300,-0.08700,-0.01800,0.07200,0.41600,-0.55100,173.41000,-0.52000
031225_15.05.54.227,-0.00200,-0.01800,0.99100,0.07000,-0.12300,-0.01800,0.07200,0.41600,-0.55100,173.59000,0.18000
031225_15.05.54.239,-0.00300,-0.01800,0.99000,0.03500,-0.08700,-0.03500,0.06600,0.41400,-0.54600,173.98000,0.39000
031225_15.05.54.250,-0.00300,-0.01700,0.99000,0.07000,-0.08700,-0.01800,0.06900,0.41700,-0.55000,173.90000,-0.08000
031225_15.05.54.262,-0.00400,-0.01800,0.99100,0.05300,-0.10500,-0.03500,0.06500,0.41700,-0.55400,173.67000,-0.23000
031225_15.05.54.273,-0.00200,-0.01800,0.99100,0.07000,-0.10500,-0.03500,0.07000,0.41500,-0.55400,174.04000,0.37000
031225_15.05.54.285,-0.00200,-0.01900,0.99200,0.05300,-0.10500,-0.05300,0.07000,0.41500,-0.55400,173.99000,-0.05000
031225_15.05.54.296,-0.00200,-0.01800,0.99100,0.08700,-0.08700,-0.03500,0.06600,0.41400,-0.55000,173.86000,-0.13000
031225_15.05.54.308,-0.00300,-0.01800,0.99100,0.05300,-0.08700,-0.03500,0.07000,0.41500,-0.55400,173.52000,-0.34000
031225_15.05.54.319,-0.00200,-0.01700,0.99100,0.07000,-0.07000,-0.03500,0.06900,0.41100,-0.55300,173.31000,-0.21000
031225_15.05.54.331,-0.00300,-0.02000,0.99100,0.07000,-0.08700,-0.05300,0.06900,0.41100,-0.55300,173.55000,0.24000
031225_15.05.54.342,-0.00200,-0.01800,0.99100,0.05300,-0.10500,-0.07000,0.07000,0.41100,-0.54900,173.31000,-0.24000
031225_15.05.54.354,-0.00200,-0.01900,0.99100,0.05300,-0.08700,-0.03500,0.06900,0.41500,-0.55100,173.48000,0.17000
031225_15.05.54.365,-0.00200,-0.01800,0.99000,0.08700,-0.08700,-0.03500,0.06600,0.41900,-0.54300,173.95000,0.47000
031225_15.05.54.376,-0.00200,-0.01900,0.99200,0.03500,-0.08700,-0.03500,0.06800,0.42100,-0.54900,173.62000,-0.33000
031225_15.05.54.388,-0.00300,-0.01800,0.99100,0.05300,-0.12300,-0.03500,0.06800,0.42100,-0.54900,173.46000,-0.16000
031225_15.05.54.400,-0.00100,-0.01700,0.99100,0.05300,-0.10500,-0.05300,0.06300,0.41300,-0.54600,173.96000,0.50000
031225_15.05.54.411,-0.00300,-0.01800,0.99000,0.05300,-0.08700,-0.03500,0.06400,0.41300,-0.54200,173.32000,-0.64000
031225_15.05.54.423,-0.00100,-0.01800,0.99300,0.05300,-0.08700,-0.03500,0.06400,0.41500,-0.54600,173.76000,0.44000
031225_15.05.54.434,-0.00200,-0.01800,0.99100,0.05300,-0.12300,-0.03500,0.06400,0.41300,-0.54400,173.54000,-0.22000
031225_15.05.54.445,-0.00300,-0.01800,0.99000,0.07000,-0.10500,-0.03500,0.06500,0.41300,-0.54400,173.28000,-0.26000
031225_15.05.54.457,-0.00200,-0.01800,0.99000,0.07000,-0.10500,-0.03500,0.06300,0.41300,-0.55000,174.25000,0.97000
031225_15.05.54.468,-0.00200,-0.01800,0.99100,0.05300,-0.10500,-0.03500,0.06600,0.41300,-0.54800,173.39000,-0.86000
031225_15.05.54.480,-0.00200,-0.01900,0.99300,0.07000,-0.10500,-0.03500,0.06700,0.41500,-0.54800,173.72000,0.33000
031225_15.05.54.491,-0.00300,-0.02000,0.99100,0.07000,-0.08700,-0.03500,0.06700,0.41500,-0.54800,173.72000,0.00000
031225_15.05.54.503,-0.00200,-0.01900,0.99000,0.05300,-0.08700,-0.03500,0.06400,0.41000,-0.54900,174.05000,0.33000
031225_15.05.54.514,-0.00300,-0.01900,0.99200,0.05300,-0.10500,-0.03500,0.06200,0.41100,-0.55500,174.17000,0.12000
031225_15.05.54.526,-0.00200,-0.01800,0.99100,0.05300,-0.08700,-0.03500,0.06000,0.41100,-0.55800,173.72000,-0.45000
031225_15.05.54.537,-0.00200,-0.01800,0.99000,0.07000,-0.08700,-0.03500,0.06700,0.41100,-0.56300,173.71000,-0.01000
031225_15.05.54.549,-0.00200,-0.01900,0.99200,0.07000,-0.08700,-0.03500,0.06700,0.41100,-0.56300,173.61000,-0.10000
031225_15.05.54.560,-0.00200,-0.01900,0.99100,0.08700,-0.10500,-0.03500,0.06600,0.41300,-0.56200,173.81000,0.20000
031225_15.05.54.572,-0.00200,-0.01900,0.99100,0.05300,-0.08700,-0.03500,0.06700,0.41300,-0.55100,172.96000,-0.85000
031225_15.05.54.583,-0.00300,-0.01900,0.99200,0.07000,-0.08700,-0.03500,0.06600,0.41300,-0.54900,173.73000,0.77000
031225_15.05.54.595,-0.00300,-0.01900,0.99200,0.05300,-0.08700,-0.05300,0.06600,0.41300,-0.54900,173.76000,0.03000
031225_15.05.54.606,-0.00200,-0.01800,0.99200,0.05300,-0.10500,-0.03500,0.06600,0.40800,-0.55500,173.80000,0.04000
031225_15.05.54.618,-0.00200,-0.01800,0.99000,0.07000,-0.08700,-0.01800,0.06500,0.41300,-0.56100,173.94000,0.14000
031225_15.05.54.629,-0.00200,-0.01900,0.99200,0.07000,-0.08700,-0.01800,0.06700,0.41200,-0.55600,173.88000,-0.06000
031225_15.05.54.641,-0.00300,-0.01800,0.99000,0.07000,-0.12300,-0.03500,0.06700,0.41300,-0.55400,173.50000,-0.38000
031225_15.05.54.652,-0.00200,-0.01700,0.99100,0.07000,-0.12300,-0.01800,0.06700,0.41300,-0.55400,173.96000,0.46000
031225_15.05.54.664,-0.00100,-0.01900,0.99000,0.03500,-0.10500,-0.03500,0.06400,0.41400,-0.55700,174.50000,0.54000
031225_15.05.54.675,-0.00300,-0.01900,0.99200,0.05300,-0.10500,-0.01800,0.06900,0.41500,-0.55800,173.59000,-0.91000
031225_15.05.54.687,-0.00300,-0.01800,0.99100,0.07000,-0.08700,-0.03500,0.06600,0.41300,-0.54400,173.28000,-0.31000
031225_15.05.54.698,-0.00200,-0.01800,0.99100,0.05300,-0.10500,-0.03500,0.06600,0.41300,-0.54300,174.10000,0.82000
031225_15.05.54.710,-0.00300,-0.01800,0.99000,0.07000,-0.10500,-0.05300,0.06700,0.41600,-0.54300,174.48000,0.38000
031225_15.05.54.721,-0.00200,-0.01900,0.99100,0.07000,-0.10500,-0.03500,0.06200,0.41300,-0.54500,173.78000,-0.70000
031225_15.05.54.733,-0.00300,-0.01900,0.99000,0.07000,-0.10500,-0.03500,0.06600,0.40800,-0.54600,174.39000,0.61000
031225_15.05.54.744,-0.00300,-0.01700,0.99200,0.07000,-0.07000,-0.03500,0.06400,0.40900,-0.54700,173.50000,-0.89000
031225_15.05.54.755,-0.00200,-0.01800,0.98900,0.07000,-0.08700,-0.01800,0.06400,0.40900,-0.54700,173.57000,0.07000
031225_15.05.54.767,-0.00100,-0.01800,0.99100,0.03500,-0.10500,-0.01800,0.06700,0.41000,-0.54300,173.61000,0.04000
031225_15.05.54.778,-0.00300,-0.01900,0.99000,0.07000,-0.08700,-0.01800,0.06700,0.41300,-0.54300,173.65000,0.04000
031225_15.05.54.790,-0.00300,-0.01900,0.99200,0.03500,-0.10500,-0.03500,0.06700,0.41200,-0.55000,173.62000,-0.03000
031225_15.05.54.801,-0.00300,-0.01800,0.99000,0.07000,-0.10500,-0.03500,0.06500,0.41200,-0.54600,173.83000,0.21000
031225_15.05.54.813,-0.00200,-0.01800,0.99100,0.05300,-0.08700,-0.01800,0.06500,0.41200,-0.54600,174.15000,0.32000
031225_15.05.54.825,-0.00300,-0.01800,0.99100,0.05300,-0.07000,-0.03500,0.06300,0.41600,-0.54200,173.37000,-0.78000
031225_15.05.54.836,-0.00300,-0.01800,0.99000,0.07000,-0.10500,-0.05300,0.06800,0.41200,-0.54300,173.68000,0.31000
031225_15.05.54.848,-0.00200,-0.01700,0.99100,0.05300,-0.10500,-0.05300,0.06800,0.41200,-0.54400,173.60000,-0.08000
031225_15.05.54.859,-0.00200,-0.01900,0.99100,0.07000,-0.14000,-0.03500,0.06800,0.41200,-0.54400,174.19000,0.59000
031225_15.05.54.871,-0.00200,-0.01800,0.99000,0.08700,-0.12300,-0.03500,0.06600,0.41200,-0.54500,174.45000,0.26000
031225_15.05.54.882,-0.00200,-0.01900,0.99200,0.07000,-0.07000,-0.03500,0.06400,0.41300,-0.54600,173.65000,-0.80000
031225_15.05.54.894,-0.00300,-0.01900,0.99000,0.07000,-0.08700,-0.01800,0.06700,0.41600,-0.54500,173.74000,0.09000
031225_15.05.54.905,-0.00200,-0.01800,0.99100,0.05300,-0.08700,-0.03500,0.06500,0.41500,-0.54700,174.23000,0.49000
031225_15.05.54.917,-0.00300,-0.01800,0.99100,0.08700,-0.10500,-0.03500,0.06500,0.41500,-0.54700,173.78000,-0.45000
031225_15.05.54.928,-0.00200,-0.01800,0.99200,0.07000,-0.07000,-0.05300,0.06900,0.41200,-0.54400,173.66000,-0.12000
031225_15.05.54.940,-0.00200,-0.01900,0.99000,0.08700,-0.08700,-0.05300,0.06100,0.40800,-0.54700,174.22000,0.56000
031225_15.05.54.951,-0.00100,-0.01800,0.99100,0.07000,-0.10500,-0.01800,0.06700,0.41100,-0.54600,173.85000,-0.37000
031225_15.05.54.962,-0.00400,-0.01900,0.99200,0.05300,-0.10500,-0.03500,0.06700,0.41100,-0.54600,174.57000,0.72000
031225_15.05.54.974,-0.00200,-0.01700,0.99000,0.05300,-0.10500,-0.03500,0.06800,0.41500,-0.54400,173.50000,-1.07000
031225_15.05.54.985,-0.00300,-0.01900,0.99200,0.03500,-0.08700,-0.01800,0.06900,0.41400,-0.54300,174.09000,0.59000
031225_15.05.54.997,-0.00300,-0.01800,0.99000,0.07000,-0.12300,-0.03500,0.06800,0.41500,-0.54900,173.52000,-0.57000
031225_15.05.55.008,-0.00300,-0.01800,0.99100,0.07000,-0.10500,-0.03500,0.06200,0.41600,-0.54500,173.81000,0.29000
031225_15.05.55.020,-0.00200,-0.01800,0.99100,0.05300,-0.12300,-0.01800,0.06200,0.41600,-0.54500,174.48000,0.67000
031225_15.05.55.032,-0.00300,-0.01900,0.99100,0.05300,-0.08700,-0.01800,0.06400,0.41700,-0.55300,173.45000,-1.03000
031225_15.05.55.043,-0.00300,-0.01700,0.98900,0.08700,-0.10500,-0.03500,0.06200,0.41800,-0.54600,173.36000,-0.09000
031225_15.05.55.055,-0.00300,-0.01800,0.99100,0.05300,-0.10500,-0.03500,0.06100,0.41700,-0.55500,173.78000,0.42000
031225_15.05.55.066,-0.00200,-0.01800,0.99000,0.05300,-0.10500,-0.05300,0.06100,0.41700,-0.55200,173.56000,-0.22000
031225_15.05.55.078,-0.00300,-0.01900,0.99200,0.07000,-0.08700,-0.05300,0.06700,0.41700,-0.55200,174.03000,0.47000
031225_15.05.55.090,-0.00300,-0.01900,0.99000,0.05300,-0.08700,-0.03500,0.06500,0.41300,-0.54800,174.14000,0.11000
031225_15.05.55.101,-0.00100,-0.01900,0.99000,0.07000,-0.08700,-0.03500,0.06800,0.41700,-0.54500,173.54000,-0.60000
031225_15.05.55.113,-0.00300,-0.01900,0.99100,0.03500,-0.08700,-0.03500,0.06700,0.41200,-0.55100,174.04000,0.50000
031225_15.05.55.124,-0.00200,-0.01800,0.99000,0.05300,-0.08700,-0.03500,0.06700,0.41200,-0.55100,174.19000,0.15000
031225_15.05.55.136,-0.00300,-0.01800,0.99000,0.05300,-0.08700,-0.03500,0.06800,0.41300,-0.55200,173.43000,-0.76000
031225_15.05.55.148,-0.00300,-0.01900,0.99100,0.07000,-0.08700,-0.01800,0.06300,0.41200,-0.55100,173.34000,-0.09000
031225_15.05.55.159,-0.00200,-0.01900,0.99200,0.07000,-0.10500,0.00000,0.07100,0.41300,-0.54600,173.65000,0.31000
031225_15.05.55.171,-0.00200,-0.01900,0.99100,0.08700,-0.10500,-0.03500,0.07100,0.41200,-0.54700,173.66000,0.01000
031225_15.05.55.183,-0.00200,-0.01900,0.99300,0.08700,-0.10500,-0.01800,0.07100,0.41200,-0.54700,173.92000,0.26000
031225_15.05.55.194,-0.00200,-0.01900,0.99100,0.07000,-0.08700,-0.01800,0.06700,0.41300,-0.54900,173.73000,-0.19000
031225_15.05.55.206,-0.00200,-0.01900,0.99000,0.03500,-0.07000,-0.03500,0.06900,0.41400,-0.55000,173.78000,0.05000
031225_15.05.55.218,-0.00300,-0.01800,0.99100,0.05300,-0.10500,-0.01800,0.06700,0.41500,-0.55300,173.64000,-0.14000
031225_15.05.55.229,-0.00300,-0.01800,0.99200,0.05300,-0.08700,-0.03500,0.06700,0.41500,-0.55300,173.55000,-0.09000
031225_15.05.55.241,-0.00200,-0.01900,0.99100,0.07000,-0.10500,-0.05300,0.06900,0.41600,-0.54800,174.04000,0.49000
031225_15.05.55.252,-0.00300,-0.01900,0.99100,0.05300,-0.10500,-0.01800,0.06600,0.41200,-0.55100,173.62000,-0.42000
031225_15.05.55.264,-0.00100,-0.01900,0.99000,0.07000,-0.10500,-0.05300,0.06300,0.41200,-0.55300,174.11000,0.49000
031225_15.05.55.276,-0.00200,-0.01800,0.99100,0.05300,-0.10500,-0.05300,0.06700,0.41600,-0.55100,173.74000,-0.37000
031225_15.05.55.287,-0.00200,-0.01900,0.99100,0.07000,-0.10500,-0.03500,0.06700,0.41600,-0.55100,173.60000,-0.14000
031225_15.05.55.298,-0.00300,-0.01900,0.99100,0.07000,-0.10500,-0.03500,0.06600,0.41300,-0.54500,173.56000,-0.04000
031225_15.05.55.310,-0.00300,-0.01900,0.99000,0.07000,-0.10500,-0.03500,0.06700,0.41600,-0.55200,173.89000,0.33000
031225_15.05.55.321,-0.00200,-0.01700,0.99100,0.05300,-0.10500,-0.03500,0.06600,0.41500,-0.54900,173.95000,0.06000
031225_15.05.55.333,-0.00200,-0.01800,0.99200,0.07000,-0.10500,-0.03500,0.06600,0.41500,-0.54900,174.42000,0.47000
031225_15.05.55.344,-0.00200,-0.01900,0.99100,0.05300,-0.08700,-0.03500,0.06500,0.41000,-0.54700,173.64000,-0.78000
031225_15.05.55.356,-0.00200,-0.01800,0.99100,0.07000,-0.10500,-0.01800,0.06800,0.41200,-0.55000,174.05000,0.41000
031225_15.05.55.367,-0.00300,-0.01900,0.99200,0.07000,-0.10500,-0.01800,0.06500,0.41000,-0.55000,173.79000,-0.26000
031225_15.05.55.379,-0.00200,-0.01800,0.99200,0.07000,-0.12300,-0.03500,0.06600,0.41000,-0.55300,173.55000,-0.24000
031225_15.05.55.390,-0.00300,-0.01900,0.99100,0.07000,-0.10500,-0.03500,0.06600,0.41000,-0.55300,174.15000,0.60000
031225_15.05.55.402,-0.00300,-0.01700,0.99000,0.07000,-0.10500,-0.03500,0.06500,0.41200,-0.55300,174.06000,-0.09000
031225_15.05.55.413,-0.00300,-0.01800,0.99100,0.05300,-0.12300,-0.01800,0.06100,0.41300,-0.55700,174.45000,0.39000
031225_15.05.55.425,-0.00300,-0.01800,0.99100,0.07000,-0.08700,-0.03500,0.06400,0.41400,-0.55300,174.04000,-0.41000
031225_15.05.55.436,-0.00200,-0.01700,0.99000,0.05300,-0.10500,-0.01800,0.06400,0.41300,-0.55500,174.01000,-0.03000
031225_15.05.55.448,-0.00400,-0.01900,0.99200,0.05300,-0.07000,-0.03500,0.06400,0.41300,-0.55500,173.50000,-0.51000
031225_15.05.55.460,-0.00300,-0.01800,0.99000,0.08700,-0.08700,-0.05300,0.06700,0.41200,-0.55200,174.54000,1.04000
031225_15.05.55.471,-0.00200,-0.01800,0.99100,0.03500,-0.08700,-0.03500,0.06400,0.41400,-0.55500,173.22000,-1.32000
031225_15.05.55.483,-0.00200,-0.01900,0.99100,0.05300,-0.10500,-0.01800,0.06500,0.41200,-0.55500,173.99000,0.77000
031225_15.05.55.495,-0.00200,-0.01900,0.99200,0.03500,-0.08700,-0.03500,0.06500,0.41200,-0.55500,173.97000,-0.02000
031225_15.05.55.506,-0.00300,-0.01800,0.99100,0.07000,-0.10500,-0.03500,0.06600,0.41100,-0.54800,173.77000,-0.20000
031225_15.05.55.517,-0.00200,-0.01800,0.99100,0.07000,-0.08700,0.00000,0.06700,0.41200,-0.54400,173.53000,-0.24000
031225_15.05.55.529,-0.00200,-0.01900,0.99200,0.05300,-0.12300,-0.03500,0.06700,0.41400,-0.54800,173.85000,0.32000
031225_15.05.55.540,-0.00100,-0.01800,0.99100,0.07000,-0.08700,-0.03500,0.06900,0.40900,-0.54700,173.87000,0.02000
031225_15.05.55.552,-0.00200,-0.01800,0.99000,0.07000,-0.12300,-0.03500,0.06900,0.40900,-0.54700,174.07000,0.20000
031225_15.05.55.563,-0.00300,-0.01800,0.99100,0.05300,-0.12300,-0.03500,0.06600,0.41100,-0.54600,174.36000,0.29000
031225_15.05.55.575,-0.00200,-0.01800,0.99000,0.07000,-0.12300,-0.03500,0.06700,0.40900,-0.55100,173.87000,-0.49000
031225_15.05.55.587,-0.00200,-0.01900,0.99100,0.07000,-0.10500,-0.01800,0.07200,0.40700,-0.54700,173.54000,-0.33000
031225_15.05.55.598,-0.00100,-0.01800,0.99000,0.07000,-0.10500,-0.03500,0.07200,0.40700,-0.54700,174.05000,0.51000
031225_15.05.55.614,-0.00300,-0.01900,0.99100,0.03500,-0.12300,-0.03500,0.06700,0.41500,-0.55000,173.74000,-0.31000
031225_15.05.55.626,-0.00400,-0.01900,0.99200,0.03500,-0.12300,-0.03500,0.06800,0.41400,-0.55300,173.86000,0.12000
031225_15.05.55.637,-0.00300,-0.01900,0.99200,0.03500,-0.10500,-0.03500,0.06400,0.41000,-0.55100,174.02000,0.16000
031225_15.05.55.649,-0.00200,-0.02000,0.99100,0.03500,-0.10500,-0.01800,0.06700,0.41000,-0.54600,173.70000,-0.32000
031225_15.05.55.660,-0.00200,-0.01800,0.99000,0.07000,-0.10500,-0.03500,0.06700,0.41000,-0.54600,173.53000,-0.17000
031225_15.05.55.672,-0.00200,-0.01900,0.99000,0.05300,-0.08700,-0.03500,0.06500,0.41100,-0.55100,173.73000,0.20000
031225_15.05.55.683,-0.00200,-0.01800,0.99000,0.07000,-0.08700,-0.03500,0.06400,0.41200,-0.54900,173.64000,-0.09000
031225_15.05.55.695,-0.00200,-0.01800,0.99200,0.08700,-0.12300,-0.01800,0.06300,0.41300,-0.55300,173.87000,0.23000
031225_15.05.55.706,-0.00200,-0.01800,0.99100,0.05300,-0.12300,-0.03500,0.06300,0.41300,-0.55400,173.48000,-0.39000
031225_15.05.55.718,-0.00200,-0.01900,0.99100,0.07000,-0.10500,-0.01800,0.06100,0.41100,-0.55400,174.34000,0.86000
031225_15.05.55.729,-0.00300,-0.01700,0.99100,0.07000,-0.08700,0.00000,0.06500,0.41000,-0.55200,174.14000,-0.20000
031225_15.05.55.741,-0.00300,-0.01800,0.99100,0.05300,-0.10500,-0.01800,0.06900,0.41400,-0.55100,174.12000,-0.02000
031225_15.05.55.752,-0.00300,-0.01900,0.99200,0.07000,-0.08700,-0.03500,0.06700,0.41200,-0.55600,173.53000,-0.59000
031225_15.05.55.764,-0.00200,-0.01900,0.99100,0.07000,-0.08700,-0.01800,0.06700,0.41200,-0.55600,173.42000,-0.11000
031225_15.05.55.775,-0.00300,-0.01900,0.99100,0.07000,-0.08700,-0.01800,0.06900,0.41000,-0.55400,173.70000,0.28000
031225_15.05.55.786,-0.00400,-0.01900,0.99100,0.05300,-0.10500,-0.03500,0.06800,0.41600,-0.54800,174.08000,0.38000
031225_15.05.55.798,-0.00200,-0.01900,0.99100,0.05300,-0.10500,-0.01800,0.07000,0.41500,-0.55300,173.89000,-0.19000
031225_15.05.55.809,-0.00200,-0.01800,0.99200,0.05300,-0.10500,-0.03500,0.06800,0.41600,-0.54900,174.01000,0.12000
031225_15.05.55.821,-0.00100,-0.01800,0.99000,0.07000,-0.10500,-0.01800,0.06800,0.41600,-0.54900,174.13000,0.12000
031225_15.05.55.832,-0.00200,-0.01800,0.99100,0.05300,-0.07000,-0.03500,0.06700,0.41300,-0.55400,174.22000,0.09000
031225_15.05.55.844,-0.00300,-0.01900,0.99000,0.07000,-0.10500,-0.01800,0.06600,0.41300,-0.55700,174.22000,0.00000
031225_15.05.55.855,-0.00300,-0.01900,0.99200,0.07000,-0.08700,-0.03500,0.07400,0.41200,-0.55100,173.42000,-0.80000
031225_15.05.55.867,-0.00200,-0.01800,0.99200,0.07000,-0.14000,-0.01800,0.07400,0.41200,-0.55100,174.17000,0.75000
031225_15.05.55.878,-0.00300,-0.01800,0.99100,0.07000,-0.10500,-0.01800,0.07100,0.41300,-0.55400,174.10000,-0.07000
031225_15.05.55.889,-0.00300,-0.01800,0.99100,0.07000,-0.08700,-0.03500,0.06800,0.41300,-0.55200,174.19000,0.09000
031225_15.05.55.901,-0.00400,-0.01800,0.99200,0.05300,-0.10500,-0.03500,0.06900,0.41300,-0.54700,174.01000,-0.18000
031225_15.05.55.913,-0.00200,-0.01900,0.99100,0.05300,-0.12300,-0.03500,0.06400,0.41100,-0.55100,173.84000,-0.17000
031225_15.05.55.924,-0.00300,-0.01800,0.99100,0.05300,-0.10500,-0.03500,0.06400,0.41100,-0.55100,173.59000,-0.25000
031225_15.05.55.935,-0.00400,-0.01800,0.99100,0.05300,-0.08700,-0.01800,0.06400,0.41400,-0.54900,174.31000,0.72000
031225_15.05.55.946,-0.00300,-0.01800,0.99000,0.05300,-0.10500,-0.03500,0.06900,0.41000,-0.55300,173.92000,-0.39000
031225_15.05.55.958,-0.00300,-0.01800,0.99000,0.05300,-0.12300,-0.05300,0.06500,0.41400,-0.55200,173.56000,-0.36000
031225_15.05.55.969,-0.00200,-0.01800,0.99000,0.05300,-0.10500,-0.03500,0.06500,0.41400,-0.55200,173.57000,0.01000
031225_15.05.55.981,-0.00300,-0.01900,0.99100,0.05300,-0.12300,-0.01800,0.06600,0.41400,-0.54800,173.67000,0.10000
031225_15.05.55.992,-0.00400,-0.01900,0.99100,0.05300,-0.10500,-0.03500,0.07100,0.41200,-0.54900,173.89000,0.22000
031225_15.05.56.004,-0.00300,-0.01900,0.99000,0.05300,-0.08700,-0.01800,0.06800,0.40900,-0.54800,173.37000,-0.52000
031225_15.05.56.015,-0.00300,-0.01800,0.99000,0.07000,-0.10500,-0.01800,0.06400,0.41100,-0.54600,174.15000,0.78000
031225_15.05.56.027,-0.00400,-0.01800,0.99300,0.10500,-0.12300,-0.03500,0.06400,0.41100,-0.54600,174.22000,0.07000
031225_15.05.56.038,-0.00300,-0.01900,0.99200,0.05300,-0.10500,-0.03500,0.07000,0.41400,-0.55400,173.64000,-0.58000
031225_15.05.56.050,-0.00300,-0.01900,0.99200,0.07000,-0.07000,-0.01800,0.06800,0.41100,-0.55200,173.95000,0.31000
031225_15.05.56.061,-0.00300,-0.01800,0.99200,0.07000,-0.08700,-0.01800,0.06900,0.41000,-0.54800,173.63000,-0.32000
031225_15.05.56.073,-0.00300,-0.01800,0.98900,0.08700,-0.10500,-0.03500,0.06900,0.41400,-0.54900,173.90000,0.27000
031225_15.05.56.084,-0.00100,-0.01900,0.99100,0.05300,-0.10500,-0.03500,0.07000,0.41400,-0.54900,173.96000,0.06000
031225_15.05.56.096,-0.00300,-0.01800,0.99200,0.03500,-0.10500,-0.01800,0.06400,0.41400,-0.55700,173.56000,-0.40000
031225_15.05.56.107,-0.00300,-0.01900,0.99100,0.07000,-0.07000,-0.01800,0.06900,0.41100,-0.55400,173.98000,0.42000
031225_15.05.56.119,-0.00200,-0.01800,0.99100,0.05300,-0.07000,-0.01800,0.06600,0.41100,-0.55300,173.82000,-0.16000
031225_15.05.56.130,-0.00200,-0.01800,0.99200,0.05300,-0.08700,-0.05300,0.06600,0.41100,-0.55300,173.68000,-0.14000
031225_15.05.56.142,-0.00300,-0.01900,0.99200,0.05300,-0.08700,-0.05300,0.06800,0.41200,-0.55200,174.36000,0.68000
031225_15.05.56.153,-0.00300,-0.01800,0.99100,0.07000,-0.12300,-0.03500,0.06600,0.40900,-0.55000,173.72000,-0.64000
031225_15.05.56.165,-0.00200,-0.01800,0.99000,0.07000,-0.10500,-0.03500,0.06400,0.41200,-0.55300,173.96000,0.24000
031225_15.05.56.176,-0.00200,-0.01900,0.99100,0.05300,-0.08700,-0.03500,0.06600,0.41400,-0.54900,173.88000,-0.08000
031225_15.05.56.188,-0.00300,-0.01900,0.99100,0.03500,-0.10500,-0.01800,0.06600,0.41400,-0.54900,174.09000,0.21000
031225_15.05.56.199,-0.00300,-0.01800,0.99100,0.07000,-0.10500,-0.03500,0.06900,0.41200,-0.55300,173.61000,-0.48000
031225_15.05.56.211,-0.00300,-0.01900,0.99100,0.03500,-0.12300,-0.03500,0.07100,0.41300,-0.54300,174.29000,0.68000
031225_15.05.56.222,-0.00100,-0.01800,0.99100,0.08700,-0.12300,-0.03500,0.07100,0.41600,-0.55300,174.04000,-0.25000
031225_15.05.56.234,-0.00200,-0.01700,0.99000,0.08700,-0.10500,-0.03500,0.07100,0.41600,-0.55300,174.14000,0.10000
031225_15.05.56.245,-0.00300,-0.01800,0.99100,0.07000,-0.10500,-0.03500,0.07000,0.41500,-0.55100,173.38000,-0.76000
031225_15.05.56.257,-0.00200,-0.01800,0.99100,0.05300,-0.12300,-0.03500,0.07000,0.41600,-0.55600,173.34000,-0.04000
031225_15.05.56.268,-0.00300,-0.01800,0.99100,0.05300,-0.10500,-0.03500,0.07200,0.41400,-0.55600,173.23000,-0.11000
031225_15.05.56.280,-0.00300,-0.01900,0.99200,0.07000,-0.08700,-0.01800,0.06800,0.41400,-0.55800,174.11000,0.88000
031225_15.05.56.291,-0.00500,-0.01800,0.99200,0.05300,-0.08700,-0.03500,0.06800,0.41400,-0.55800,173.54000,-0.57000
031225_15.05.56.303,-0.00300,-0.01800,0.99000,0.08700,-0.12300,-0.03500,0.07100,0.41700,-0.56000,173.76000,0.22000
031225_15.05.56.314,-0.00200,-0.01900,0.99100,0.07000,-0.07000,-0.03500,0.07100,0.41700,-0.55300,173.59000,-0.17000
031225_15.05.56.326,-0.00400,-0.01800,0.99200,0.07000,-0.10500,-0.03500,0.07400,0.42000,-0.55400,173.55000,-0.04000
031225_15.05.56.337,-0.00300,-0.01900,0.99200,0.07000,-0.10500,-0.05300,0.07400,0.42000,-0.55400,174.24000,0.69000
031225_15.05.56.349,-0.00200,-0.01900,0.99000,0.05300,-0.10500,-0.03500,0.07100,0.41200,-0.54800,174.04000,-0.20000
031225_15.05.56.360,-0.00300,-0.01900,0.99100,0.05300,-0.10500,-0.03500,0.07200,0.41100,-0.55800,173.98000,-0.06000
031225_15.05.56.372,-0.00300,-0.01800,0.99200,0.03500,-0.12300,-0.01800,0.07100,0.41400,-0.55300,173.70000,-0.28000
031225_15.05.56.383,-0.00300,-0.01900,0.99000,0.05300,-0.10500,-0.03500,0.07000,0.41700,-0.54800,174.03000,0.33000
031225_15.05.56.395,-0.00200,-0.01900,0.99100,0.05300,-0.10500,-0.03500,0.07000,0.41700,-0.54800,173.64000,-0.39000
031225_15.05.56.406,-0.00300,-0.01800,0.99200,0.05300,-0.08700,-0.03500,0.06900,0.41600,-0.54800,173.60000,-0.04000
031225_15.05.56.418,-0.00200,-0.01900,0.99100,0.08700,-0.08700,-0.03500,0.07000,0.41200,-0.54800,174.02000,0.42000
031225_15.05.56.429,-0.00300,-0.01800,0.99100,0.08700,-0.12300,-0.01800,0.06500,0.41100,-0.54300,173.86000,-0.16000
031225_15.05.56.441,-0.00300,-0.01900,0.99200,0.05300,-0.10500,-0.01800,0.06500,0.41300,-0.54800,173.14000,-0.72000
031225_15.05.56.452,-0.00200,-0.01900,0.99100,0.05300,-0.10500,-0.03500,0.07000,0.41300,-0.54800,173.44000,0.30000
031225_15.05.56.464,-0.00300,-0.01800,0.99200,0.03500,-0.08700,-0.03500,0.06800,0.41500,-0.54900,173.78000,0.34000
031225_15.05.56.475,-0.00200,-0.01900,0.99000,0.03500,-0.10500,-0.01800,0.06900,0.41400,-0.54500,174.08000,0.30000
031225_15.05.56.487,-0.00300,-0.01800,0.99100,0.07000,-0.08700,-0.03500,0.06700,0.41300,-0.55200,174.16000,0.08000
031225_15.05.56.498,-0.00200,-0.01900,0.99200,0.07000,-0.08700,-0.05300,0.06700,0.41300,-0.55200,173.79000,-0.37000
031225_15.05.56.510,-0.00300,-0.01800,0.99100,0.07000,-0.08700,-0.03500,0.06900,0.41700,-0.54900,173.83000,0.04000
031225_15.05.56.521,-0.00200,-0.01800,0.99100,0.08700,-0.10500,-0.03500,0.07100,0.41900,-0.55000,174.49000,0.66000
031225_15.05.56.533,-0.00300,-0.01900,0.99100,0.08700,-0.08700,-0.03500,0.06800,0.41600,-0.54900,173.93000,-0.56000
031225_15.05.56.544,-0.00300,-0.01900,0.99000,0.07000,-0.10500,-0.03500,0.06700,0.41400,-0.55300,173.82000,-0.11000
031225_15.05.56.556,-0.00300,-0.01800,0.99100,0.08700,-0.10500,-0.05300,0.06700,0.41400,-0.55300,173.25000,-0.57000
031225_15.05.56.567,-0.00200,-0.01900,0.99200,0.05300,-0.08700,-0.03500,0.06700,0.41600,-0.55000,173.90000,0.65000
031225_15.05.56.579,-0.00100,-0.01900,0.99000,0.05300,-0.10500,-0.03500,0.07000,0.41700,-0.54800,173.89000,-0.01000
031225_15.05.56.590,-0.00300,-0.01900,0.99000,0.07000,-0.10500,-0.03500,0.07000,0.41000,-0.54700,173.87000,-0.02000
031225_15.05.56.602,-0.00300,-0.01900,0.99100,0.05300,-0.08700,-0.03500,0.07000,0.41000,-0.54700,173.49000,-0.38000
031225_15.05.56.613,-0.00300,-0.01700,0.99000,0.07000,-0.08700,-0.03500,0.06800,0.41300,-0.55200,173.58000,0.09000
031225_15.05.56.625,-0.00200,-0.01900,0.99200,0.03500,-0.07000,-0.01800,0.06600,0.41300,-0.54700,173.67000,0.09000
031225_15.05.56.636,-0.00200,-0.01800,0.99000,0.07000,-0.12300,-0.05300,0.06800,0.41100,-0.54800,173.27000,-0.40000
031225_15.05.56.648,-0.00300,-0.01900,0.99100,0.07000,-0.10500,-0.03500,0.06600,0.41300,-0.54500,173.77000,0.50000
031225_15.05.56.659,-0.00400,-0.01800,0.99200,0.05300,-0.12300,-0.01800,0.06600,0.41300,-0.54500,173.48000,-0.29000
031225_15.05.56.671,-0.00200,-0.01900,0.99000,0.05300,-0.10500,-0.01800,0.06300,0.41300,-0.55000,173.55000,0.07000
031225_15.05.56.682,-0.00400,-0.01800,0.99100,0.05300,-0.12300,-0.03500,0.06600,0.41300,-0.55100,173.68000,0.13000
031225_15.05.56.694,-0.00300,-0.01900,0.99100,0.08700,-0.08700,-0.01800,0.06400,0.41300,-0.54800,173.79000,0.11000
031225_15.05.56.705,-0.00300,-0.01900,0.99000,0.07000,-0.10500,-0.01800,0.06400,0.41300,-0.55700,174.08000,0.29000
031225_15.05.56.717,-0.00100,-0.01900,0.99000,0.08700,-0.12300,-0.03500,0.06300,0.41400,-0.55700,174.06000,-0.02000
031225_15.05.56.728,-0.00300,-0.01800,0.99200,0.05300,-0.08700,-0.03500,0.06700,0.41400,-0.55000,173.77000,-0.29000
031225_15.05.56.740,-0.00400,-0.01800,0.99100,0.07000,-0.08700,-0.03500,0.06600,0.41400,-0.55600,174.09000,0.32000
031225_15.05.56.751,-0.00300,-0.01900,0.99100,0.05300,-0.08700,-0.01800,0.06600,0.41500,-0.54900,174.01000,-0.08000
031225_15.05.56.763,-0.00300,-0.02000,0.99300,0.07000,-0.10500,-0.03500,0.06600,0.41500,-0.54900,173.64000,-0.37000
031225_15.05.56.774,-0.00200,-0.01800,0.99000,0.05300,-0.10500,-0.03500,0.06500,0.41400,-0.55300,173.90000,0.26000
031225_15.05.56.786,-0.00300,-0.01800,0.99000,0.08700,-0.08700,-0.01800,0.06500,0.41500,-0.55300,173.83000,-0.07000
031225_15.05.56.797,-0.00400,-0.01800,0.99000,0.08700,-0.10500,-0.03500,0.06400,0.41300,-0.54500,173.33000,-0.50000
031225_15.05.56.809,-0.00300,-0.01900,0.99200,0.07000,-0.08700,-0.03500,0.06600,0.41800,-0.55100,174.04000,0.71000
031225_15.05.56.820,-0.00300,-0.01800,0.99200,0.03500,-0.08700,-0.03500,0.06600,0.41800,-0.55100,174.57000,0.53000
031225_15.05.56.832,-0.00200,-0.01900,0.99100,0.07000,-0.08700,-0.03500,0.06100,0.41800,-0.54800,173.80000,-0.77000
031225_15.05.56.843,-0.00200,-0.01800,0.99000,0.05300,-0.10500,-0.01800,0.06200,0.41400,-0.55000,173.99000,0.19000
031225_15.05.56.855,-0.00300,-0.01900,0.99100,0.08700,-0.10500,-0.01800,0.06000,0.41600,-0.55200,173.93000,-0.06000
031225_15.05.56.866,-0.00300,-0.01700,0.99100,0.08700,-0.08700,-0.03500,0.06000,0.41600,-0.55200,174.11000,0.18000
031225_15.05.56.878,-0.00200,-0.01800,0.99100,0.05300,-0.10500,-0.03500,0.06100,0.41500,-0.55100,173.83000,-0.28000
031225_15.05.56.889,-0.00300,-0.01900,0.99100,0.07000,-0.10500,-0.01800,0.06100,0.41700,-0.55200,173.82000,-0.01000
031225_15.05.56.901,-0.00300,-0.01900,0.99000,0.08700,-0.05300,-0.03500,0.06800,0.41100,-0.54600,173.64000,-0.18000
031225_15.05.56.912,-0.00300,-0.01800,0.99100,0.08700,-0.08700,-0.03500,0.06800,0.41400,-0.54900,173.58000,-0.06000
031225_15.05.56.924,-0.00300,-0.01800,0.99000,0.05300,-0.08700,-0.03500,0.06800,0.41400,-0.54900,173.94000,0.36000
031225_15.05.56.935,-0.00400,-0.01900,0.99100,0.05300,-0.08700,-0.03500,0.06600,0.41500,-0.55100,173.51000,-0.43000
031225_15.05.56.947,-0.00300,-0.01800,0.99100,0.03500,-0.08700,-0.03500,0.06900,0.41500,-0.55200,174.18000,0.67000
031225_15.05.56.958,-0.00300,-0.01900,0.99200,0.05300,-0.07000,-0.03500,0.06700,0.41100,-0.54900,173.58000,-0.60000
031225_15.05.56.970,-0.00200,-0.01800,0.99100,0.07000,-0.08700,-0.01800,0.06700,0.41100,-0.54900,174.36000,0.78000
031225_15.05.56.981,-0.00200,-0.02000,0.99100,0.03500,-0.08700,-0.01800,0.06700,0.41500,-0.55000,173.71000,-0.65000
031225_15.05.56.992,-0.00200,-0.01900,0.99100,0.07000,-0.08700,-0.01800,0.06600,0.41700,-0.55300,173.94000,0.23000
031225_15.05.57.004,-0.00300,-0.01900,0.99200,0.07000,-0.10500,-0.01800,0.06700,0.41800,-0.55200,174.40000,0.46000
031225_15.05.57.016,-0.00300,-0.01800,0.99100,0.07000,-0.10500,-0.01800,0.06800,0.41600,-0.54900,173.57000,-0.83000
031225_15.05.57.027,-0.00100,-0.01800,0.99100,0.07000,-0.10500,-0.03500,0.06800,0.41600,-0.54900,174.32000,0.75000
031225_15.05.57.038,-0.00200,-0.01800,0.99200,0.07000,-0.08700,-0.03500,0.06500,0.41700,-0.54900,173.92000,-0.40000
031225_15.05.57.050,-0.00300,-0.01900,0.99000,0.07000,-0.10500,-0.03500,0.06400,0.41600,-0.55200,173.34000,-0.58000
031225_15.05.57.061,-0.00400,-0.01900,0.99100,0.07000,-0.07000,-0.03500,0.06800,0.41500,-0.55400,173.48000,0.14000
031225_15.05.57.073,-0.00300,-0.01800,0.99100,0.03500,-0.08700,-0.03500,0.06800,0.41500,-0.54900,174.14000,0.66000
031225_15.05.57.084,-0.00100,-0.01900,0.99200,0.05300,-0.12300,-0.05300,0.06600,0.41000,-0.54900,174.03000,-0.11000
031225_15.05.57.096,-0.00200,-0.01900,0.99100,0.05300,-0.10500,-0.03500,0.06400,0.41500,-0.55100,173.28000,-0.75000
031225_15.05.57.107,-0.00200,-0.01800,0.99100,0.07000,-0.10500,-0.03500,0.06600,0.41300,-0.55400,173.71000,0.43000
031225_15.05.57.119,-0.00200,-0.01900,0.99000,0.05300,-0.12300,-0.03500,0.06500,0.41600,-0.55500,173.89000,0.18000
031225_15.05.57.130,-0.00300,-0.01700,0.99200,0.07000,-0.08700,-0.01800,0.06500,0.41600,-0.55500,173.06000,-0.83000
031225_15.05.57.142,-0.00300,-0.01800,0.99000,0.07000,-0.10500,-0.01800,0.06700,0.41600,-0.55000,173.56000,0.50000
031225_15.05.57.153,-0.00200,-0.01900,0.99100,0.07000,-0.12300,-0.03500,0.06400,0.41700,-0.55400,173.94000,0.38000
031225_15.05.57.165,-0.00300,-0.01800,0.99100,0.07000,-0.10500,-0.05300,0.06500,0.41500,-0.55200,173.57000,-0.37000
031225_15.05.57.176,-0.00200,-0.01700,0.99100,0.07000,-0.10500,-0.05300,0.06400,0.41500,-0.55200,173.99000,0.42000
031225_15.05.57.188,-0.00200,-0.01800,0.99100,0.07000,-0.08700,-0.03500,0.06400,0.41500,-0.55200,173.95000,-0.04000
031225_15.05.57.199,-0.00300,-0.01900,0.99200,0.05300,-0.08700,-0.03500,0.06500,0.41200,-0.54600,174.10000,0.15000
031225_15.05.57.211,-0.00200,-0.01900,0.99000,0.08700,-0.08700,-0.03500,0.06800,0.41700,-0.54800,173.98000,-0.12000
031225_15.05.57.222,-0.00400,-0.01900,0.99000,0.07000,-0.10500,-0.03500,0.06600,0.41400,-0.54900,173.63000,-0.35000
031225_15.05.57.233,-0.00200,-0.01800,0.99100,0.05300,-0.08700,-0.03500,0.06600,0.41400,-0.54900,173.91000,0.28000
031225_15.05.57.245,-0.00300,-0.01800,0.99200,0.07000,-0.08700,-0.03500,0.06700,0.41600,-0.55100,174.30000,0.39000
031225_15.05.57.256,-0.00300,-0.01800,0.99200,0.07000,-0.08700,-0.01800,0.06500,0.41800,-0.54900,173.80000,-0.50000
031225_15.05.57.268,-0.00300,-0.01800,0.99200,0.03500,-0.10500,-0.03500,0.06900,0.41700,-0.55300,173.67000,-0.13000
031225_15.05.57.279,-0.00300,-0.01900,0.99200,0.05300,-0.10500,-0.03500,0.06700,0.41600,-0.55100,173.15000,-0.52000
031225_15.05.57.291,-0.00400,-0.01800,0.99100,0.07000,-0.10500,-0.03500,0.06700,0.41600,-0.55100,173.70000,0.55000
031225_15.05.57.302,-0.00300,-0.01900,0.99100,0.05300,-0.08700,-0.03500,0.06400,0.41000,-0.54700,173.47000,-0.23000
031225_15.05.57.314,-0.00300,-0.01900,0.99000,0.07000,-0.08700,-0.01800,0.06700,0.41400,-0.55300,173.65000,0.18000
031225_15.05.57.325,-0.00400,-0.01900,0.99100,0.07000,-0.10500,-0.03500,0.06900,0.41400,-0.55500,173.61000,-0.04000
031225_15.05.57.337,-0.00200,-0.01800,0.99100,0.07000,-0.12300,-0.03500,0.06900,0.41400,-0.55100,173.83000,0.22000
031225_15.05.57.348,-0.00200,-0.01700,0.99200,0.08700,-0.10500,-0.01800,0.06400,0.41400,-0.55100,174.23000,0.40000
031225_15.05.57.360,-0.00400,-0.01800,0.99200,0.08700,-0.10500,-0.05300,0.06500,0.41100,-0.55700,173.85000,-0.38000
031225_15.05.57.371,-0.00200,-0.01900,0.99100,0.07000,-0.10500,-0.05300,0.06600,0.41400,-0.54900,174.48000,0.63000
031225_15.05.57.383,-0.00200,-0.01900,0.99100,0.07000,-0.08700,-0.03500,0.06100,0.41300,-0.54900,174.00000,-0.48000
031225_15.05.57.394,-0.00300,-0.01800,0.99200,0.05300,-0.10500,-0.01800,0.06100,0.41300,-0.54900,174.07000,0.07000
031225_15.05.57.406,-0.00200,-0.01800,0.99200,0.05300,-0.08700,-0.03500,0.06500,0.41300,-0.55300,174.30000,0.23000
031225_15.05.57.417,-0.00100,-0.01800,0.98900,0.07000,-0.08700,-0.05300,0.06600,0.41800,-0.55200,173.52000,-0.78000
031225_15.05.57.429,-0.00300,-0.01700,0.99100,0.07000,-0.12300,-0.03500,0.06200,0.41600,-0.55400,174.13000,0.61000
031225_15.05.57.440,-0.00200,-0.01800,0.99100,0.05300,-0.08700,-0.03500,0.06600,0.41500,-0.55700,174.02000,-0.11000
031225_15.05.57.451,-0.00200,-0.01800,0.99100,0.05300,-0.10500,-0.03500,0.06600,0.41500,-0.55700,173.78000,-0.24000
031225_15.05.57.463,-0.00200,-0.01900,0.99200,0.03500,-0.10500,-0.03500,0.06300,0.41600,-0.55600,174.21000,0.43000
031225_15.05.57.474,-0.00300,-0.01900,0.98900,0.03500,-0.08700,-0.03500,0.07000,0.41800,-0.56000,173.90000,-0.31000
031225_15.05.57.486,-0.00200,-0.01800,0.99100,0.05300,-0.08700,-0.05300,0.06700,0.41700,-0.55800,173.89000,-0.01000
031225_15.05.57.497,-0.00200,-0.01900,0.99100,0.07000,-0.10500,-0.05300,0.06700,0.41700,-0.55800,173.73000,-0.16000
031225_15.05.57.509,-0.00300,-0.01800,0.99000,0.07000,-0.10500,-0.01800,0.06300,0.42000,-0.55400,174.24000,0.51000
031225_15.05.57.520,-0.00200,-0.01800,0.99100,0.07000,-0.08700,-0.01800,0.06600,0.41600,-0.55700,173.49000,-0.75000
031225_15.05.57.532,-0.00200,-0.01800,0.99000,0.08700,-0.10500,-0.01800,0.06400,0.41800,-0.55800,173.22000,-0.27000
031225_15.05.57.543,-0.00100,-0.01900,0.99200,0.05300,-0.07000,-0.03500,0.06600,0.41800,-0.55100,173.71000,0.49000
031225_15.05.57.555,-0.00200,-0.01900,0.99100,0.07000,-0.08700,0.00000,0.06600,0.41800,-0.55100,173.52000,-0.19000
031225_15.05.57.566,-0.00300,-0.01900,0.99100,0.07000,-0.10500,-0.01800,0.07000,0.41800,-0.55500,173.99000,0.47000
031225_15.05.57.578,-0.00200,-0.01800,0.99100,0.08700,-0.08700,-0.03500,0.07000,0.41400,-0.55100,174.28000,0.29000
031225_15.05.57.589,-0.00300,-0.01900,0.99000,0.07000,-0.08700,-0.03500,0.07200,0.41500,-0.55700,174.39000,0.11000
031225_15.05.57.601,-0.00100,-0.01800,0.99100,0.07000,-0.12300,-0.03500,0.07200,0.41500,-0.55700,173.11000,-1.28000
031225_15.05.57.612,-0.00100,-0.01700,0.99100,0.05300,-0.08700,-0.05300,0.06900,0.41700,-0.55000,173.80000,0.69000
031225_15.05.57.624,-0.00200,-0.01800,0.99100,0.07000,-0.10500,-0.01800,0.06700,0.41600,-0.55400,173.92000,0.12000
031225_15.05.57.635,-0.00400,-0.01800,0.99200,0.03500,-0.10500,-0.03500,0.06800,0.41400,-0.54900,173.39000,-0.53000
031225_15.05.57.647,-0.00200,-0.01800,0.99100,0.07000,-0.08700,-0.03500,0.07200,0.41300,-0.55000,173.81000,0.42000
031225_15.05.57.658,-0.00200,-0.01900,0.99200,0.05300,-0.10500,-0.01800,0.07200,0.41300,-0.55000,173.78000,-0.03000
031225_15.05.57.670,-0.00300,-0.01900,0.99200,0.07000,-0.12300,-0.03500,0.06800,0.41400,-0.55200,173.91000,0.13000
031225_15.05.57.681,-0.00200,-0.01900,0.99100,0.07000,-0.10500,-0.03500,0.06800,0.41400,-0.54900,173.61000,-0.30000
031225_15.05.57.693,-0.00300,-0.01900,0.99100,0.07000,-0.08700,-0.03500,0.06400,0.41500,-0.54900,173.66000,0.05000
031225_15.05.57.704,-0.00300,-0.01800,0.99100,0.03500,-0.07000,-0.03500,0.06400,0.41800,-0.55200,174.33000,0.67000
031225_15.05.57.716,-0.00300,-0.01900,0.99100,0.03500,-0.10500,-0.03500,0.06800,0.41800,-0.55200,173.41000,-0.92000
031225_15.05.57.728,-0.00200,-0.01900,0.99100,0.05300,-0.10500,-0.05300,0.06600,0.41300,-0.54900,173.46000,0.05000
031225_15.05.57.739,-0.00300,-0.01900,0.99100,0.05300,-0.10500,-0.05300,0.06900,0.41300,-0.55400,174.21000,0.75000
031225_15.05.57.751,-0.00300,-0.01900,0.99000,0.07000,-0.12300,-0.03500,0.06800,0.41500,-0.55000,173.93000,-0.28000
031225_15.05.57.763,-0.00100,-0.02000,0.99200,0.05300,-0.12300,-0.03500,0.06800,0.41500,-0.55000,173.51000,-0.42000
031225_15.05.57.774,-0.00400,-0.01900,0.99100,0.07000,-0.10500,-0.03500,0.06700,0.41700,-0.55000,173.52000,0.01000
031225_15.05.57.786,-0.00400,-0.01900,0.99100,0.08700,-0.10500,-0.01800,0.06800,0.41300,-0.55700,173.50000,-0.02000
031225_15.05.57.798,-0.00300,-0.01800,0.99100,0.08700,-0.10500,-0.03500,0.06700,0.41200,-0.55800,173.91000,0.41000
031225_15.05.57.809,-0.00300,-0.01800,0.99100,0.05300,-0.10500,-0.03500,0.06400,0.40700,-0.55100,174.04000,0.13000
031225_15.05.57.821,-0.00200,-0.01800,0.99100,0.07000,-0.08700,-0.03500,0.06400,0.40700,-0.55100,174.67000,0.63000
031225_15.05.57.833,-0.00300,-0.01800,0.99200,0.05300,-0.08700,-0.03500,0.06900,0.40700,-0.55200,173.57000,-1.10000
031225_15.05.57.844,-0.00200,-0.01800,0.98900,0.07000,-0.10500,-0.03500,0.06600,0.40700,-0.55100,173.64000,0.07000
031225_15.05.57.856,-0.00300,-0.01900,0.99100,0.03500,-0.08700,-0.03500,0.06700,0.40600,-0.54900,173.40000,-0.24000
031225_15.05.57.867,-0.00200,-0.01700,0.99100,0.07000,-0.08700,-0.03500,0.06700,0.40600,-0.54900,174.81000,1.41000
031225_15.05.57.879,-0.00200,-0.01800,0.99100,0.07000,-0.12300,-0.03500,0.06800,0.40800,-0.55800,173.87000,-0.94000
031225_15.05.57.890,-0.00300,-0.01800,0.99100,0.07000,-0.10500,-0.03500,0.07200,0.41000,-0.55300,173.90000,0.03000
031225_15.05.57.901,-0.00200,-0.01900,0.99100,0.07000,-0.12300,-0.03500,0.07000,0.40900,-0.55300,174.54000,0.64000
031225_15.05.57.913,-0.00300,-0.01800,0.99100,0.05300,-0.10500,-0.03500,0.06800,0.41000,-0.55500,174.20000,-0.34000
031225_15.05.57.924,-0.00200,-0.01700,0.99100,0.08700,-0.10500,-0.03500,0.06800,0.41000,-0.55500,173.82000,-0.38000
031225_15.05.57.936,-0.00300,-0.01800,0.99000,0.07000,-0.12300,-0.01800,0.06900,0.41000,-0.54900,174.07000,0.25000
031225_15.05.57.947,-0.00300,-0.01900,0.99100,0.05300,-0.10500,-0.01800,0.06800,0.41100,-0.55100,173.38000,-0.69000
031225_15.05.57.959,-0.00300,-0.01800,0.99100,0.08700,-0.08700,-0.05300,0.06900,0.41000,-0.55600,173.88000,0.50000
031225_15.05.57.971,-0.00200,-0.01800,0.99000,0.08700,-0.12300,-0.01800,0.06900,0.41000,-0.55600,173.40000,-0.48000
031225_15.05.57.982,-0.00200,-0.01900,0.99100,0.07000,-0.08700,-0.03500,0.06500,0.41200,-0.55400,173.45000,0.05000
031225_15.05.57.994,-0.00300,-0.01800,0.99100,0.07000,-0.10500,-0.05300,0.06500,0.40900,-0.54400,173.52000,0.07000
031225_15.05.58.006,-0.00300,-0.01800,0.99200,0.07000,-0.10500,-0.03500,0.06800,0.41300,-0.55400,174.05000,0.53000
031225_15.05.58.017,-0.00200,-0.01800,0.99100,0.07000,-0.10500,-0.03500,0.06700,0.41400,-0.55400,173.84000,-0.21000
031225_15.05.58.029,-0.00200,-0.01900,0.99200,0.07000,-0.08700,-0.03500,0.06700,0.41400,-0.55400,173.19000,-0.65000
031225_15.05.58.041,-0.00200,-0.01900,0.99000,0.08700,-0.08700,-0.03500,0.06900,0.41000,-0.55800,174.28000,1.09000
031225_15.05.58.052,-0.00200,-0.01800,0.99100,0.07000,-0.10500,-0.03500,0.06400,0.41600,-0.54900,173.80000,-0.48000
031225_15.05.58.064,-0.00400,-0.01900,0.99100,0.07000,-0.08700,-0.03500,0.06600,0.41600,-0.55000,173.84000,0.04000
031225_15.05.58.075,-0.00300,-0.01800,0.99100,0.05300,-0.10500,-0.03500,0.07300,0.41000,-0.55200,173.67000,-0.17000
031225_15.05.58.087,-0.00300,-0.01900,0.99100,0.05300,-0.10500,-0.03500,0.07300,0.41000,-0.55200,173.78000,0.11000
031225_15.05.58.098,-0.00300,-0.01800,0.99300,0.07000,-0.08700,-0.05300,0.07000,0.41000,-0.55200,173.79000,0.01000
031225_15.05.58.110,-0.00100,-0.01900,0.99000,0.08700,-0.10500,-0.03500,0.07000,0.41200,-0.55200,173.25000,-0.54000
031225_15.05.58.121,-0.00300,-0.01900,0.99100,0.07000,-0.08700,-0.03500,0.07400,0.41400,-0.55500,175.06000,1.81000
031225_15.05.58.133,-0.00300,-0.01700,0.99100,0.05300,-0.08700,-0.03500,0.07400,0.41400,-0.55500,174.03000,-1.03000
031225_15.05.58.144,-0.00200,-0.01800,0.99000,0.07000,-0.08700,-0.01800,0.06800,0.41000,-0.55700,174.30000,0.27000
031225_15.05.58.156,-0.00300,-0.01900,0.99100,0.07000,-0.10500,-0.03500,0.06900,0.41000,-0.55800,174.21000,-0.09000
031225_15.05.58.167,-0.00200,-0.02000,0.99200,0.07000,-0.08700,-0.05300,0.07300,0.41200,-0.56000,173.70000,-0.51000
031225_15.05.58.179,-0.00200,-0.01900,0.99100,0.07000,-0.10500,-0.01800,0.07100,0.41100,-0.56000,173.71000,0.01000
031225_15.05.58.190,-0.00300,-0.02000,0.99100,0.07000,-0.10500,-0.03500,0.07100,0.41100,-0.56000,174.26000,0.55000
031225_15.05.58.202,-0.00300,-0.01800,0.99100,0.07000,-0.08700,-0.03500,0.06800,0.41600,-0.55800,173.54000,-0.72000
031225_15.05.58.213,-0.00300,-0.01800,0.99100,0.07000,-0.10500,-0.03500,0.06400,0.41300,-0.55900,173.59000,0.05000
031225_15.05.58.225,-0.00300,-0.01900,0.99100,0.05300,-0.10500,-0.03500,0.07200,0.41700,-0.56300,173.52000,-0.07000
031225_15.05.58.237,-0.00300,-0.01800,0.99000,0.07000,-0.08700,-0.05300,0.07200,0.41700,-0.56300,173.33000,-0.19000
031225_15.05.58.248,-0.00300,-0.01900,0.99100,0.05300,-0.08700,-0.05300,0.06600,0.40900,-0.55400,173.63000,0.30000
031225_15.05.58.260,-0.00200,-0.01800,0.99100,0.03500,-0.10500,-0.03500,0.06600,0.41100,-0.55800,173.94000,0.31000
031225_15.05.58.272,-0.00200,-0.01900,0.99200,0.07000,-0.08700,-0.03500,0.06800,0.41000,-0.55100,173.83000,-0.11000
031225_15.05.58.283,-0.00200,-0.01900,0.99100,0.07000,-0.08700,-0.03500,0.06900,0.41300,-0.55200,173.52000,-0.31000
031225_15.05.58.295,-0.00300,-0.01900,0.99200,0.08700,-0.08700,-0.01800,0.06900,0.41300,-0.55200,173.74000,0.22000
031225_15.05.58.306,-0.00200,-0.01800,0.99200,0.08700,-0.10500,-0.03500,0.06700,0.41000,-0.55400,173.79000,0.05000
031225_15.05.58.318,-0.00300,-0.01800,0.99200,0.05300,-0.10500,-0.03500,0.06600,0.41300,-0.56000,174.45000,0.66000
031225_15.05.58.329,-0.00200,-0.01800,0.99100,0.08700,-0.10500,-0.03500,0.06500,0.41400,-0.55700,173.30000,-1.15000
031225_15.05.58.341,-0.00200,-0.02000,0.99000,0.07000,-0.08700,-0.03500,0.06500,0.41400,-0.56300,174.33000,1.03000
031225_15.05.58.352,-0.00200,-0.01900,0.99100,0.08700,-0.10500,-0.05300,0.06400,0.41000,-0.56300,173.50000,-0.83000
031225_15.05.58.364,-0.00200,-0.01900,0.99100,0.05300,-0.10500,-0.03500,0.06700,0.40600,-0.56000,173.77000,0.27000
031225_15.05.58.375,-0.00200,-0.01900,0.99200,0.07000,-0.08700,-0.03500,0.06600,0.41200,-0.55700,173.60000,-0.17000
031225_15.05.58.386,-0.00400,-0.01900,0.98900,0.08700,-0.10500,-0.01800,0.06900,0.41300,-0.55700,173.46000,-0.14000
031225_15.05.58.398,-0.00300,-0.01900,0.99100,0.07000,-0.08700,-0.01800,0.06900,0.41300,-0.55700,174.09000,0.63000
031225_15.05.58.409,-0.00200,-0.01800,0.99100,0.08700,-0.10500,-0.01800,0.06400,0.41300,-0.55800,174.61000,0.52000
031225_15.05.58.421,-0.00200,-0.01800,0.99200,0.03500,-0.08700,-0.01800,0.06800,0.41000,-0.55700,173.60000,-1.01000
031225_15.05.58.432,-0.00300,-0.01700,0.99100,0.07000,-0.12300,-0.01800,0.07000,0.41000,-0.55900,173.64000,0.04000
031225_15.05.58.444,-0.00300,-0.01900,0.99000,0.07000,-0.10500,-0.03500,0.06800,0.41100,-0.55900,173.56000,-0.08000
031225_15.05.58.455,-0.00300,-0.01900,0.99100,0.07000,-0.10500,-0.03500,0.06800,0.41100,-0.55900,173.62000,0.06000
031225_15.05.58.467,-0.00200,-0.02000,0.99200,0.05300,-0.08700,-0.03500,0.07100,0.41400,-0.56200,173.67000,0.05000
031225_15.05.58.478,-0.00200,-0.01900,0.99100,0.07000,-0.08700,-0.03500,0.06700,0.41100,-0.56100,173.35000,-0.32000
031225_15.05.58.490,-0.00200,-0.01800,0.99000,0.08700,-0.08700,-0.03500,0.06500,0.41200,-0.55600,174.30000,0.95000
031225_15.05.58.501,-0.00200,-0.01900,0.99100,0.07000,-0.10500,-0.01800,0.06500,0.41200,-0.55600,173.67000,-0.63000
031225_15.05.58.513,-0.00300,-0.01800,0.99100,0.05300,-0.10500,-0.05300,0.07000,0.41300,-0.55700,174.20000,0.53000
031225_15.05.58.525,-0.00300,-0.01700,0.98900,0.07000,-0.10500,-0.03500,0.06800,0.41200,-0.55800,173.77000,-0.43000
031225_15.05.58.536,-0.00300,-0.01800,0.99100,0.07000,-0.10500,-0.03500,0.07100,0.41200,-0.55200,173.34000,-0.43000
031225_15.05.58.548,-0.00200,-0.01800,0.99000,0.07000,-0.08700,-0.03500,0.07100,0.41500,-0.55000,173.60000,0.26000
031225_15.05.58.560,-0.00200,-0.01900,0.99200,0.07000,-0.10500,-0.03500,0.07100,0.41500,-0.55000,173.76000,0.16000
031225_15.05.58.571,-0.00200,-0.02000,0.99200,0.08700,-0.12300,-0.03500,0.07000,0.41200,-0.56000,173.47000,-0.29000
031225_15.05.58.583,-0.00200,-0.01800,0.99000,0.07000,-0.08700,-0.03500,0.07200,0.41200,-0.55300,174.18000,0.71000
031225_15.05.58.595,-0.00200,-0.01800,0.99100,0.07000,-0.10500,-0.01800,0.07100,0.41300,-0.55400,173.43000,-0.75000
031225_15.05.58.606,-0.00400,-0.01900,0.99200,0.05300,-0.12300,-0.01800,0.07100,0.41300,-0.55400,174.20000,0.77000
031225_15.05.58.618,-0.00300,-0.01800,0.99100,0.07000,-0.08700,-0.03500,0.06600,0.41300,-0.55700,174.24000,0.04000
031225_15.05.58.630,-0.00200,-0.01800,0.99100,0.07000,-0.08700,-0.03500,0.07300,0.41300,-0.55500,174.10000,-0.14000
031225_15.05.58.641,-0.00300,-0.01900,0.99000,0.07000,-0.08700,-0.03500,0.07100,0.41500,-0.55100,174.30000,0.20000
031225_15.05.58.653,-0.00300,-0.01900,0.99100,0.03500,-0.08700,-0.03500,0.07300,0.41400,-0.55700,173.98000,-0.32000
031225_15.05.58.665,-0.00300,-0.01800,0.99100,0.05300,-0.08700,-0.03500,0.07300,0.41400,-0.55700,173.70000,-0.28000
031225_15.05.58.676,-0.00300,-0.02000,0.99200,0.05300,-0.08700,-0.03500,0.06700,0.40800,-0.55200,174.23000,0.53000
031225_15.05.58.688,-0.00300,-0.01900,0.99000,0.07000,-0.10500,-0.03500,0.06800,0.41300,-0.55500,173.63000,-0.60000
031225_15.05.58.699,-0.00200,-0.01900,0.99100,0.05300,-0.10500,-0.03500,0.06300,0.41200,-0.55500,174.05000,0.42000
031225_15.05.58.711,-0.00200,-0.02000,0.99100,0.07000,-0.10500,-0.03500,0.06300,0.41400,-0.56100,173.61000,-0.44000
031225_15.05.58.722,-0.00300,-0.02000,0.99100,0.05300,-0.08700,-0.03500,0.06900,0.41400,-0.56100,173.48000,-0.13000
031225_15.05.58.734,-0.00200,-0.01900,0.99200,0.05300,-0.08700,-0.05300,0.06700,0.41500,-0.55600,173.85000,0.37000
031225_15.05.58.745,-0.00200,-0.01800,0.99100,0.08700,-0.10500,-0.05300,0.06400,0.41400,-0.55700,173.75000,-0.10000
031225_15.05.58.756,-0.00300,-0.01800,0.99100,0.07000,-0.08700,-0.03500,0.06700,0.41400,-0.55800,173.66000,-0.09000
031225_15.05.58.768,-0.00300,-0.01700,0.98900,0.07000,-0.08700,-0.01800,0.06700,0.41400,-0.55800,173.55000,-0.11000
031225_15.05.58.779,-0.00300,-0.01900,0.99200,0.07000,-0.08700,-0.03500,0.06900,0.41300,-0.54900,174.23000,0.68000
031225_15.05.58.791,-0.00200,-0.01900,0.99100,0.07000,-0.08700,-0.03500,0.06900,0.41500,-0.55400,173.80000,-0.43000
031225_15.05.58.802,-0.00300,-0.01900,0.99100,0.05300,-0.08700,-0.03500,0.06900,0.41400,-0.55700,174.12000,0.32000
031225_15.05.58.814,-0.00300,-0.01700,0.99000,0.05300,-0.08700,-0.03500,0.07100,0.41400,-0.55200,173.61000,-0.51000
031225_15.05.58.825,-0.00300,-0.01800,0.99100,0.03500,-0.08700,-0.03500,0.07100,0.41400,-0.55200,173.82000,0.21000
031225_15.05.58.836,-0.00200,-0.01800,0.99100,0.07000,-0.08700,-0.03500,0.07000,0.41200,-0.54900,173.69000,-0.13000
031225_15.05.58.848,-0.00300,-0.01900,0.99000,0.05300,-0.08700,-0.01800,0.07000,0.41100,-0.55300,173.40000,-0.29000
031225_15.05.58.860,-0.00200,-0.01900,0.99000,0.07000,-0.10500,-0.03500,0.06600,0.41100,-0.56400,173.43000,0.03000
031225_15.05.58.871,-0.00200,-0.01900,0.99100,0.05300,-0.10500,-0.03500,0.06600,0.41100,-0.56400,173.35000,-0.08000
031225_15.05.58.883,-0.00300,-0.01800,0.99200,0.05300,-0.10500,-0.05300,0.07300,0.41300,-0.55100,173.54000,0.19000
031225_15.05.58.894,-0.00300,-0.01800,0.99100,0.07000,-0.12300,-0.03500,0.06500,0.41200,-0.56000,173.32000,-0.22000
031225_15.05.58.906,-0.00200,-0.01800,0.99100,0.08700,-0.12300,-0.03500,0.07200,0.40900,-0.55500,174.25000,0.93000
031225_15.05.58.917,-0.00200,-0.01800,0.99200,0.05300,-0.12300,-0.01800,0.06900,0.41200,-0.55500,173.67000,-0.58000
031225_15.05.58.929,-0.00200,-0.01900,0.99100,0.05300,-0.10500,-0.03500,0.06900,0.41200,-0.55500,174.13000,0.46000
031225_15.05.58.940,-0.00100,-0.01700,0.99100,0.08700,-0.08700,-0.01800,0.06800,0.41200,-0.55300,173.69000,-0.44000
031225_15.05.58.952,-0.00300,-0.01700,0.99100,0.03500,-0.08700,-0.03500,0.07100,0.41900,-0.54800,174.01000,0.32000
031225_15.05.58.963,-0.00200,-0.01800,0.99000,0.03500,-0.10500,-0.05300,0.06700,0.41600,-0.55100,174.61000,0.60000
031225_15.05.58.975,-0.00200,-0.01800,0.99100,0.07000,-0.10500,-0.03500,0.06700,0.41600,-0.55100,174.19000,-0.42000
031225_15.05.58.986,-0.00200,-0.01900,0.99100,0.08700,-0.10500,-0.03500,0.06700,0.41200,-0.55200,173.94000,-0.25000
031225_15.05.58.998,-0.00300,-0.01900,0.99200,0.08700,-0.08700,-0.03500,0.07000,0.41100,-0.55200,173.65000,-0.29000
031225_15.05.59.009,-0.00400,-0.01700,0.99100,0.05300,-0.08700,-0.01800,0.07000,0.41500,-0.55200,174.01000,0.36000
031225_15.05.59.021,-0.00300,-0.01800,0.99000,0.07000,-0.08700,-0.03500,0.07200,0.41100,-0.54900,174.15000,0.14000
031225_15.05.59.032,-0.00300,-0.01900,0.99200,0.05300,-0.08700,-0.03500,0.07200,0.41100,-0.54900,173.92000,-0.23000
031225_15.05.59.044,-0.00200,-0.01800,0.99000,0.07000,-0.08700,-0.01800,0.07100,0.41500,-0.55400,173.85000,-0.07000
031225_15.05.59.055,-0.00300,-0.01900,0.99200,0.05300,-0.07000,-0.03500,0.06800,0.41100,-0.55600,174.11000,0.26000
031225_15.05.59.067,-0.00200,-0.01900,0.99100,0.10500,-0.10500,-0.01800,0.07100,0.41400,-0.54800,173.79000,-0.32000
031225_15.05.59.078,-0.00200,-0.01800,0.98900,0.07000,-0.10500,-0.03500,0.06800,0.41100,-0.55800,173.93000,0.14000
031225_15.05.59.090,-0.00200,-0.01900,0.99100,0.07000,-0.10500,-0.03500,0.06800,0.41100,-0.55800,173.76000,-0.17000
031225_15.05.59.101,-0.00300,-0.01800,0.99100,0.05300,-0.10500,-0.03500,0.07200,0.41200,-0.55200,173.83000,0.07000
031225_15.05.59.112,-0.00300,-0.01800,0.99200,0.03500,-0.08700,-0.03500,0.07400,0.41000,-0.55100,174.26000,0.43000
031225_15.05.59.124,-0.00300,-0.01800,0.99000,0.07000,-0.10500,-0.01800,0.07000,0.41100,-0.55200,174.31000,0.05000
031225_15.05.59.136,-0.00200,-0.01800,0.99100,0.08700,-0.10500,-0.03500,0.07000,0.41100,-0.55200,174.27000,-0.04000
031225_15.05.59.147,-0.00300,-0.01800,0.99200,0.05300,-0.10500,-0.03500,0.06700,0.41200,-0.54800,173.51000,-0.76000
031225_15.05.59.159,-0.00200,-0.02000,0.99100,0.07000,-0.08700,-0.01800,0.06700,0.41300,-0.55600,173.57000,0.06000
031225_15.05.59.170,-0.00300,-0.01800,0.99200,0.05300,-0.08700,-0.01800,0.06900,0.41600,-0.55600,173.63000,0.06000
031225_15.05.59.181,-0.00200,-0.01800,0.99100,0.03500,-0.10500,-0.03500,0.06800,0.41400,-0.55400,173.30000,-0.33000
031225_15.05.59.193,-0.00200,-0.01900,0.99100,0.03500,-0.08700,-0.01800,0.06800,0.41400,-0.55400,174.04000,0.74000
031225_15.05.59.204,-0.00200,-0.01800,0.99200,0.05300,-0.07000,-0.01800,0.06700,0.41300,-0.55300,173.83000,-0.21000
031225_15.05.59.216,-0.00300,-0.01800,0.99100,0.07000,-0.08700,-0.03500,0.06300,0.41500,-0.55100,173.47000,-0.36000
031225_15.05.59.228,-0.00300,-0.01800,0.99100,0.07000,-0.10500,-0.03500,0.06700,0.41300,-0.55800,173.71000,0.24000
031225_15.05.59.240,-0.00300,-0.01800,0.99100,0.08700,-0.10500,-0.03500,0.06700,0.41300,-0.55800,173.57000,-0.14000
031225_15.05.59.251,-0.00200,-0.01800,0.99100,0.07000,-0.10500,-0.03500,0.06600,0.41700,-0.55200,174.17000,0.60000
031225_15.05.59.263,-0.00200,-0.01700,0.99100,0.07000,-0.08700,-0.01800,0.07200,0.41600,-0.54800,173.97000,-0.20000
031225_15.05.59.275,-0.00200,-0.01900,0.99200,0.05300,-0.08700,-0.03500,0.07100,0.41700,-0.54700,173.18000,-0.79000
031225_15.05.59.286,-0.00400,-0.01800,0.99000,0.07000,-0.12300,-0.01800,0.06800,0.41900,-0.55200,173.83000,0.65000
031225_15.05.59.298,-0.00300,-0.01800,0.99200,0.07000,-0.08700,-0.05300,0.06800,0.41900,-0.55200,173.76000,-0.07000
031225_15.05.59.309,-0.00200,-0.01800,0.99100,0.05300,-0.10500,-0.03500,0.06900,0.41500,-0.55400,173.67000,-0.09000
031225_15.05.59.321,-0.00200,-0.01800,0.99000,0.03500,-0.08700,-0.03500,0.06700,0.41400,-0.55800,173.67000,0.00000
031225_15.05.59.332,-0.00300,-0.01800,0.99000,0.05300,-0.10500,-0.03500,0.07000,0.41300,-0.55200,174.17000,0.50000
031225_15.05.59.344,-0.00300,-0.01800,0.99100,0.07000,-0.08700,-0.01800,0.07000,0.41300,-0.55500,173.48000,-0.69000
031225_15.05.59.355,-0.00200,-0.01700,0.99000,0.05300,-0.10500,-0.01800,0.06400,0.41500,-0.55500,173.89000,0.41000
031225_15.05.59.366,-0.00300,-0.01800,0.99200,0.07000,-0.08700,-0.03500,0.07200,0.41500,-0.55400,173.81000,-0.08000
031225_15.05.59.378,-0.00100,-0.01800,0.99100,0.07000,-0.12300,-0.03500,0.07200,0.41600,-0.55700,173.95000,0.14000
031225_15.05.59.389,-0.00200,-0.01900,0.99100,0.03500,-0.07000,-0.01800,0.06700,0.41500,-0.55800,174.15000,0.20000
031225_15.05.59.401,-0.00300,-0.01800,0.99000,0.07000,-0.08700,-0.03500,0.06700,0.41500,-0.55800,173.59000,-0.56000
031225_15.05.59.412,-0.00500,-0.01900,0.99100,0.03500,-0.07000,-0.03500,0.06900,0.41500,-0.55700,173.94000,0.35000
031225_15.05.59.424,-0.00300,-0.01800,0.99200,0.03500,-0.12300,-0.03500,0.07000,0.41200,-0.55100,174.12000,0.18000
031225_15.05.59.435,-0.00200,-0.01900,0.99300,0.03500,-0.08700,-0.01800,0.07000,0.41000,-0.55700,173.77000,-0.35000
031225_15.05.59.447,-0.00300,-0.01900,0.99000,0.07000,-0.10500,-0.01800,0.06500,0.41200,-0.54800,173.75000,-0.02000
031225_15.05.59.458,-0.00200,-0.01800,0.99000,0.07000,-0.08700,-0.03500,0.06500,0.41200,-0.54800,173.74000,-0.01000
031225_15.05.59.470,-0.00200,-0.01800,0.99000,0.08700,-0.08700,-0.03500,0.06600,0.41000,-0.55300,173.63000,-0.11000
031225_15.05.59.481,-0.00300,-0.01900,0.99200,0.03500,-0.08700,-0.05300,0.06600,0.41400,-0.55600,174.13000,0.50000
031225_15.05.59.492,-0.00100,-0.01800,0.99100,0.07000,-0.08700,-0.01800,0.06700,0.41300,-0.56300,173.76000,-0.37000
031225_15.05.59.504,-0.00200,-0.01800,0.99200,0.05300,-0.08700,-0.01800,0.06700,0.41300,-0.56300,173.14000,-0.62000
031225_15.05.59.516,-0.00300,-0.01900,0.99100,0.05300,-0.10500,-0.03500,0.06200,0.41400,-0.56100,173.39000,0.25000
031225_15.05.59.527,-0.00200,-0.01800,0.99100,0.05300,-0.08700,-0.03500,0.06900,0.41000,-0.56100,174.12000,0.73000
031225_15.05.59.539,-0.00300,-0.01700,0.99000,0.07000,-0.10500,-0.03500,0.06400,0.41200,-0.55200,173.76000,-0.36000
031225_15.05.59.551,-0.00300,-0.01900,0.99100,0.03500,-0.10500,-0.01800,0.06800,0.41100,-0.54700,174.31000,0.55000
031225_15.05.59.563,-0.00300,-0.01800,0.99000,0.05300,-0.12300,-0.01800,0.06800,0.41100,-0.54700,173.71000,-0.60000
031225_15.05.59.574,-0.00200,-0.01800,0.99200,0.05300,-0.08700,-0.01800,0.06700,0.41700,-0.55700,173.94000,0.23000
031225_15.05.59.586,-0.00200,-0.01800,0.99000,0.07000,-0.10500,-0.03500,0.07100,0.41400,-0.55100,174.12000,0.18000
031225_15.05.59.598,-0.00200,-0.01900,0.99300,0.05300,-0.08700,-0.03500,0.07100,0.41100,-0.54400,174.31000,0.19000
031225_15.05.59.609,-0.00300,-0.01900,0.99100,0.05300,-0.10500,-0.03500,0.07100,0.41100,-0.54400,173.79000,-0.52000
031225_15.05.59.621,-0.00300,-0.01900,0.99100,0.05300,-0.10500,-0.03500,0.06800,0.41700,-0.55100,173.94000,0.15000
031225_15.05.59.632,-0.00400,-0.01800,0.99100,0.07000,-0.12300,-0.03500,0.06700,0.41500,-0.55900,173.86000,-0.08000
031225_15.05.59.644,-0.00300,-0.01800,0.99200,0.05300,-0.08700,-0.01800,0.06400,0.41500,-0.55300,173.91000,0.05000
031225_15.05.59.655,-0.00300,-0.02000,0.99400,0.08700,-0.10500,-0.03500,0.06500,0.41800,-0.55600,174.21000,0.30000
031225_15.05.59.667,-0.00300,-0.01900,0.99100,0.07000,-0.08700,-0.03500,0.06500,0.41800,-0.55600,174.12000,-0.09000
031225_15.05.59.679,-0.00300,-0.01800,0.98900,0.08700,-0.08700,-0.01800,0.06600,0.41500,-0.55600,173.64000,-0.48000
031225_15.05.59.691,-0.00300,-0.01700,0.99300,0.01800,-0.10500,-0.01800,0.06600,0.41100,-0.55900,174.29000,0.65000
031225_15.05.59.702,-0.00200,-0.01800,0.99200,0.07000,-0.12300,-0.01800,0.06400,0.41400,-0.55900,173.67000,-0.62000
031225_15.05.59.714,-0.00200,-0.01900,0.99000,0.07000,-0.10500,-0.01800,0.06400,0.41500,-0.55800,174.52000,0.85000
031225_15.05.59.725,-0.00200,-0.01900,0.98900,0.07000,-0.08700,-0.05300,0.06600,0.41500,-0.55800,173.48000,-1.04000
031225_15.05.59.736,-0.00200,-0.01800,0.99300,0.05300,-0.08700,-0.03500,0.06900,0.41600,-0.55800,173.81000,0.33000
031225_15.05.59.748,-0.00200,-0.01800,0.99300,0.05300,-0.10500,-0.03500,0.07200,0.41500,-0.55700,173.48000,-0.33000
031225_15.05.59.759,-0.00300,-0.01900,0.99000,0.08700,-0.10500,-0.03500,0.07200,0.41200,-0.55500,174.00000,0.52000
031225_15.05.59.771,-0.00300,-0.01900,0.99000,0.07000,-0.10500,-0.03500,0.07200,0.41200,-0.55500,173.45000,-0.55000
031225_15.05.59.782,-0.00200,-0.01800,0.98900,0.07000,-0.10500,-0.03500,0.06800,0.41700,-0.55200,173.69000,0.24000
031225_15.05.59.793,-0.00300,-0.01900,0.99300,0.00000,-0.08700,-0.05300,0.06700,0.41500,-0.55700,173.50000,-0.19000
031225_15.05.59.805,-0.00200,-0.01800,0.99300,0.07000,-0.12300,-0.05300,0.06900,0.41300,-0.56200,173.95000,0.45000
031225_15.05.59.816,-0.00300,-0.01900,0.99100,0.07000,-0.10500,-0.03500,0.06900,0.41400,-0.55800,173.61000,-0.34000
031225_15.05.59.828,-0.00200,-0.01800,0.99100,0.07000,-0.10500,-0.01800,0.06900,0.41400,-0.55800,173.32000,-0.29000
031225_15.05.59.839,-0.00300,-0.01800,0.99300,0.05300,-0.10500,-0.03500,0.07200,0.41200,-0.55400,173.96000,0.64000
031225_15.05.59.851,-0.00200,-0.01800,0.99100,0.07000,-0.12300,-0.01800,0.07100,0.41100,-0.55000,173.82000,-0.14000
031225_15.05.59.862,-0.00300,-0.01800,0.99200,0.08700,-0.08700,-0.03500,0.07200,0.41400,-0.55500,173.62000,-0.20000
031225_15.05.59.874,-0.00300,-0.01800,0.99100,0.08700,-0.10500,-0.03500,0.07200,0.41400,-0.55500,174.34000,0.72000
031225_15.05.59.885,-0.00300,-0.01900,0.99200,0.05300,-0.08700,-0.03500,0.07100,0.41400,-0.55800,173.59000,-0.75000
031225_15.05.59.897,-0.00200,-0.01900,0.99100,0.07000,-0.08700,-0.01800,0.07000,0.41300,-0.55800,173.83000,0.24000
031225_15.05.59.908,-0.00400,-0.01900,0.99000,0.05300,-0.08700,-0.03500,0.07100,0.41500,-0.56300,173.97000,0.14000
031225_15.05.59.920,-0.00200,-0.01900,0.98900,0.05300,-0.12300,-0.03500,0.06900,0.41500,-0.55900,173.59000,-0.38000
031225_15.05.59.931,-0.00100,-0.02000,0.99100,0.05300,-0.08700,-0.01800,0.06900,0.41500,-0.55900,174.21000,0.62000
031225_15.05.59.943,-0.00300,-0.02000,0.99100,0.05300,-0.10500,-0.03500,0.07100,0.41700,-0.55100,173.66000,-0.55000
031225_15.05.59.954,-0.00300,-0.01900,0.99100,0.05300,-0.10500,-0.05300,0.07200,0.41400,-0.55100,173.46000,-0.20000
031225_15.05.59.965,-0.00200,-0.01900,0.99100,0.07000,-0.10500,-0.03500,0.06900,0.41500,-0.55300,174.08000,0.62000
031225_15.05.59.977,-0.00300,-0.01800,0.99000,0.07000,-0.10500,-0.01800,0.06900,0.41500,-0.55300,174.65000,0.57000
031225_15.05.59.988,-0.00400,-0.01800,0.99100,0.07000,-0.10500,-0.03500,0.07000,0.41100,-0.55700,173.27000,-1.38000
031225_15.06.00.000,-0.00300,-0.01900,0.99200,0.05300,-0.10500,0.00000,0.07100,0.41200,-0.55300,173.58000,0.31000
031225_15.06.00.011,-0.00300,-0.01900,0.99000,0.07000,-0.10500,-0.03500,0.07300,0.41900,-0.55300,173.86000,0.28000
031225_15.06.00.023,-0.00300,-0.01900,0.99100,0.05300,-0.08700,-0.03500,0.07100,0.41300,-0.55500,174.37000,0.51000
031225_15.06.00.034,-0.00200,-0.01900,0.99000,0.07000,-0.10500,-0.03500,0.07100,0.41300,-0.55500,173.86000,-0.51000
031225_15.06.00.046,-0.00300,-0.01900,0.99000,0.05300,-0.10500,-0.03500,0.06500,0.41800,-0.55800,173.92000,0.06000
031225_15.06.00.057,-0.00100,-0.01800,0.99200,0.05300,-0.10500,-0.03500,0.07000,0.41500,-0.55400,173.69000,-0.23000
031225_15.06.00.069,-0.00200,-0.01800,0.99100,0.07000,-0.10500,-0.01800,0.06800,0.41400,-0.55900,174.18000,0.49000
031225_15.06.00.080,-0.00400,-0.01900,0.99100,0.07000,-0.08700,-0.05300,0.06800,0.41600,-0.55600,173.55000,-0.63000
031225_15.06.00.092,-0.00300,-0.02000,0.99000,0.07000,-0.12300,-0.05300,0.07200,0.41600,-0.55600,173.48000,-0.07000
031225_15.06.00.103,-0.00200,-0.02000,0.99200,0.03500,-0.10500,-0.03500,0.07300,0.41400,-0.55900,173.70000,0.22000
031225_15.06.00.114,-0.00300,-0.01900,0.99200,0.07000,-0.10500,-0.03500,0.07500,0.41700,-0.55800,174.15000,0.45000
031225_15.06.00.126,-0.00300,-0.01800,0.99000,0.07000,-0.10500,-0.03500,0.07400,0.41800,-0.55300,173.43000,-0.72000
031225_15.06.00.137,-0.00300,-0.01900,0.98900,0.07000,-0.10500,-0.03500,0.07400,0.41800,-0.55300,174.01000,0.58000
031225_15.06.00.149,-0.00300,-0.01900,0.99000,0.03500,-0.08700,-0.03500,0.07300,0.42300,-0.54900,173.61000,-0.40000
031225_15.06.00.161,-0.00200,-0.01800,0.99100,0.05300,-0.08700,-0.01800,0.07000,0.41800,-0.55800,173.65000,0.04000
031225_15.06.00.172,-0.00200,-0.01900,0.99100,0.07000,-0.10500,-0.05300,0.06900,0.42200,-0.55700,174.02000,0.37000
031225_15.06.00.184,-0.00200,-0.01800,0.99000,0.07000,-0.10500,-0.03500,0.07300,0.41600,-0.55500,173.50000,-0.52000
031225_15.06.00.195,-0.00300,-0.01900,0.99100,0.07000,-0.07000,-0.03500,0.07300,0.41600,-0.55500,173.86000,0.36000
031225_15.06.00.207,-0.00300,-0.01900,0.99100,0.07000,-0.08700,-0.03500,0.06900,0.41600,-0.55400,173.71000,-0.15000
031225_15.06.00.218,-0.00200,-0.01900,0.99200,0.03500,-0.08700,-0.05300,0.06800,0.42200,-0.56400,173.68000,-0.03000
031225_15.06.00.230,-0.00200,-0.01800,0.99100,0.05300,-0.12300,-0.01800,0.07200,0.41900,-0.55900,173.50000,-0.18000
031225_15.06.00.241,-0.00300,-0.01900,0.99000,0.05300,-0.10500,-0.05300,0.07200,0.41900,-0.55900,173.95000,0.45000
031225_15.06.00.253,-0.00100,-0.01900,0.99100,0.07000,-0.12300,-0.03500,0.06900,0.41800,-0.55900,173.90000,-0.05000
031225_15.06.00.264,-0.00300,-0.01900,0.99300,0.03500,-0.10500,-0.01800,0.07100,0.41600,-0.55300,173.88000,-0.02000
031225_15.06.00.276,-0.00200,-0.01800,0.99100,0.07000,-0.10500,-0.03500,0.07100,0.41500,-0.55300,173.19000,-0.69000
031225_15.06.00.287,-0.00200,-0.01900,0.98900,0.07000,-0.08700,-0.03500,0.07100,0.41500,-0.55100,173.79000,0.60000
031225_15.06.00.299,-0.00200,-0.01800,0.99100,0.07000,-0.08700,-0.03500,0.07100,0.41500,-0.55100,173.38000,-0.41000
031225_15.06.00.310,-0.00300,-0.01900,0.99200,0.03500,-0.08700,0.00000,0.07000,0.41800,-0.55400,173.56000,0.18000
031225_15.06.00.322,-0.00200,-0.01800,0.99100,0.07000,-0.10500,-0.03500,0.06900,0.41500,-0.56000,174.17000,0.61000
