ax,ay,az
0.005,-0.029,0.991
0.008,-0.029,0.982
0.004,-0.03,0.995
0.008,-0.031,1.036
0.006,-0.028,0.97
0.005,-0.03,0.995
0.005,-0.03,1.001
0.008,-0.031,1.009
0.006,-0.03,0.981
0.004,-0.029,0.998
0.008,-0.03,1.001
0.007,-0.029,0.997
0.006,-0.028,0.985
0.006,-0.029,0.996
0.006,-0.031,0.995
0.004,-0.03,0.995
0.005,-0.031,0.992
0.007,-0.03,0.995
0.006,-0.03,0.995
0.006,-0.03,0.997
0.005,-0.03,0.993
0.006,-0.031,0.996
0.005,-0.03,0.992
0.006,-0.031,0.993
0.006,-0.03,0.994
0.006,-0.029,0.996
0.004,-0.03,0.994
0.005,-0.03,0.994
0.007,-0.031,0.995
0.006,-0.03,0.994
0.006,-0.029,0.994
0.006,-0.03,0.993
0.007,-0.03,0.995
0.006,-0.03,0.994
0.005,-0.031,0.993
0.006,-0.03,0.995
0.006,-0.03,0.995
0.006,-0.03,0.995
0.005,-0.031,0.995
0.005,-0.03,0.995
0.005,-0.03,0.994
0.006,-0.031,0.994
0.006,-0.03,0.993
0.006,-0.03,0.993
0.004,-0.029,0.996
0.006,-0.03,0.994
0.005,-0.03,0.994
0.006,-0.03,0.994
0.006,-0.03,0.995
0.005,-0.029,0.995
0.007,-0.03,0.994
0.006,-0.031,0.994
0.005,-0.029,0.995
0.007,-0.03,0.994
0.005,-0.031,0.994
0.005,-0.03,0.993
0.006,-0.029,0.994
0.005,-0.03,0.994
0.005,-0.029,0.994
0.006,-0.03,0.995
0.007,-0.031,0.993
0.006,-0.03,0.995
0.005,-0.031,0.994
0.006,-0.03,0.992
0.005,-0.031,0.993
0.005,-0.029,0.994
0.006,-0.031,0.994
0.005,-0.029,0.995
0.006,-0.031,0.995
0.007,-0.03,0.993
0.005,-0.031,0.993
0.005,-0.031,0.993
0.006,-0.03,0.995
0.005,-0.03,0.996
0.006,-0.03,0.995
0.007,-0.03,0.993
0.006,-0.03,0.994
0.005,-0.03,0.993
0.006,-0.029,0.994
0.005,-0.03,0.994
0.005,-0.03,0.994
0.006,-0.03,0.995
0.006,-0.03,0.995
0.006,-0.029,0.995
0.005,-0.03,0.994
0.005,-0.029,0.992
0.005,-0.03,0.994
0.006,-0.03,0.995
0.006,-0.03,0.995
0.005,-0.029,0.995
0.006,-0.03,0.995
0.005,-0.032,0.996
0.007,-0.03,0.994
0.005,-0.03,0.993
0.006,-0.03,0.994
0.006,-0.029,0.993
0.005,-0.031,0.995
0.006,-0.03,0.995
0.006,-0.03,0.995
0.006,-0.03,0.995
0.008,0.968,-0.01
0.007,0.97,-0.007
0.007,1.068,-0.007
-0.019,0.935,0.068
0.025,1.0,-0.055
-0.012,0.994,0.022
-0.002,1.01,0.004
-0.006,0.942,-0.002
0.016,0.997,-0.023
0.021,0.989,-0.033
0.01,0.982,-0.026
0.024,0.96,-0.032
0.022,1.0,-0.035
0.008,0.99,-0.014
0.007,0.979,-0.007
0.008,0.982,-0.008
0.008,0.99,-0.011
0.008,0.978,-0.009
0.008,0.983,-0.009
0.008,0.981,-0.01
0.009,0.985,-0.011
0.007,0.98,-0.009
0.009,0.98,-0.011
0.009,0.982,-0.01
0.007,0.986,-0.01
0.008,0.98,-0.011
0.008,0.984,-0.012
0.008,0.985,-0.011
0.007,0.982,-0.01
0.009,0.979,-0.01
0.008,0.982,-0.01
0.008,0.984,-0.01
0.008,0.981,-0.01
0.009,0.98,-0.01
0.01,0.983,-0.011
0.008,0.985,-0.011
0.007,0.982,-0.01
0.008,0.983,-0.01
0.008,0.985,-0.01
0.008,0.984,-0.01
0.007,0.983,-0.01
0.009,0.981,-0.01
0.009,0.982,-0.01
0.008,0.984,-0.009
0.008,0.976,-0.01
0.006,0.986,-0.01
0.008,0.986,-0.011
0.008,0.984,-0.01
0.009,0.978,-0.009
0.007,0.986,-0.01
0.008,0.985,-0.011
0.008,0.982,-0.009
0.008,0.978,-0.011
0.007,0.983,-0.01
0.007,0.983,-0.033
0.01,0.98,-0.0
0.009,0.982,-0.008
0.009,0.984,-0.014
0.009,0.985,0.0
0.007,0.981,-0.003
0.007,0.983,-0.009
0.009,0.984,-0.009
0.008,0.983,-0.007
0.008,0.982,-0.01
0.008,0.983,-0.008
0.008,0.984,-0.008
0.008,0.982,-0.009
0.009,0.983,-0.01
0.007,0.982,-0.01
0.009,0.984,-0.009
0.007,0.983,-0.01
0.009,0.981,-0.01
0.009,0.983,-0.009
0.008,0.982,-0.01
0.009,0.983,-0.01
0.008,0.983,-0.01
0.009,0.983,-0.009
0.008,0.983,-0.009
0.008,0.984,-0.009
0.008,0.983,-0.011
0.008,0.983,-0.009
0.008,0.98,-0.009
0.008,0.983,-0.01
0.009,0.982,-0.011
0.008,0.981,-0.01
0.009,0.982,-0.01
0.008,0.984,-0.011
0.008,0.983,-0.009
0.007,0.981,-0.009
0.008,0.982,-0.01
0.008,0.985,-0.008
0.012,0.984,0.016
0.002,0.984,-0.039
0.008,0.982,-0.013
0.008,0.981,-0.011
0.007,0.983,-0.009
0.01,0.983,-0.01
0.009,0.984,-0.01
0.008,0.982,-0.011
0.008,0.982,-0.011
0.042,-0.017,-0.995
0.041,-0.016,-0.992
0.042,-0.019,-1.003
0.041,-0.016,-0.97
0.041,-0.018,-1.011
0.041,-0.016,-1.004
0.043,-0.018,-1.011
0.042,-0.016,-0.986
0.042,-0.018,-1.016
0.043,-0.017,-0.998
0.042,-0.018,-1.0
0.042,-0.015,-0.991
0.043,-0.018,-1.007
0.042,-0.019,-1.008
0.043,-0.016,-1.0
0.042,-0.016,-1.001
0.043,-0.02,-1.005
0.042,-0.017,-0.998
0.042,-0.015,-0.997
0.041,-0.017,-1.003
0.042,-0.017,-1.004
0.042,-0.016,-0.997
0.042,-0.017,-0.998
0.041,-0.017,-1.002
0.041,-0.018,-1.004
0.041,-0.016,-0.997
0.041,-0.017,-1.002
0.041,-0.018,-1.0
0.041,-0.016,-1.0
0.041,-0.017,-0.997
0.042,-0.018,-1.002
0.042,-0.017,-0.999
0.041,-0.016,-0.999
0.041,-0.016,-1.0
0.041,-0.016,-0.999
0.042,-0.017,-1.001
0.041,-0.018,-1.001
0.042,-0.017,-1.0
0.041,-0.017,-1.0
0.041,-0.017,-1.001
0.041,-0.016,-1.0
0.041,-0.017,-1.002
0.041,-0.016,-1.0
0.042,-0.017,-1.001
0.041,-0.016,-1.0
0.041,-0.016,-1.001
0.041,-0.017,-1.0
0.041,-0.017,-1.001
0.04,-0.017,-0.999
0.042,-0.018,-1.001
0.041,-0.017,-1.001
0.041,-0.017,-1.0
0.042,-0.017,-1.0
0.042,-0.017,-0.999
0.041,-0.016,-1.001
0.042,-0.016,-1.0
0.042,-0.017,-1.0
0.041,-0.017,-1.0
0.041,-0.017,-1.002
0.041,-0.017,-1.002
0.042,-0.018,-1.001
0.042,-0.017,-1.001
0.041,-0.017,-1.0
0.04,-0.018,-1.0
0.042,-0.016,-1.001
0.042,-0.017,-1.002
0.042,-0.018,-1.0
0.04,-0.017,-1.0
0.042,-0.017,-1.0
0.042,-0.017,-1.001
0.041,-0.017,-1.001
0.042,-0.016,-1.0
0.042,-0.016,-1.001
0.041,-0.018,-1.0
0.04,-0.018,-1.001
0.041,-0.018,-1.0
0.041,-0.017,-1.001
0.042,-0.017,-0.998
0.041,-0.016,-0.999
0.042,-0.017,-0.999
0.041,-0.018,-1.001
0.041,-0.017,-1.002
0.04,-0.018,-1.0
0.041,-0.017,-1.002
0.041,-0.018,-1.001
0.041,-0.018,-1.002
0.041,-0.016,-1.0
0.042,-0.017,-1.0
0.041,-0.017,-1.0
0.041,-0.018,-1.0
0.042,-0.018,-1.001
0.04,-0.017,-1.0
0.041,-0.017,-1.001
0.041,-0.017,-1.0
0.041,-0.017,-1.0
0.041,-0.017,-1.0
0.041,-0.016,-1.0
0.041,-0.018,-1.001
0.042,-0.018,-1.0
0.041,-0.016,-0.999
0.037,-1.003,-0.017
0.036,-1.005,-0.016
0.037,-0.998,-0.017
0.04,-1.025,-0.014
0.037,-0.994,-0.015
0.036,-1.004,-0.016
0.038,-1.007,-0.017
0.039,-1.011,-0.015
0.036,-0.994,-0.019
0.037,-1.007,-0.017
0.037,-1.006,-0.016
0.038,-0.998,-0.017
0.036,-1.007,-0.017
0.037,-1.007,-0.017
0.037,-1.005,-0.018
0.037,-1.002,-0.018
0.036,-1.005,-0.017
0.037,-1.004,-0.017
0.038,-1.005,-0.017
0.036,-1.004,-0.017
0.038,-1.007,-0.015
0.039,-1.007,-0.016
0.038,-1.003,-0.018
0.037,-1.004,-0.017
0.038,-1.007,-0.017
0.038,-1.004,-0.016
0.037,-1.004,-0.016
0.037,-1.004,-0.016
0.037,-1.005,-0.017
0.038,-1.005,-0.017
0.038,-1.006,-0.017
0.038,-1.004,-0.018
0.037,-1.005,-0.016
0.038,-1.006,-0.016
0.037,-1.005,-0.017
0.038,-1.006,-0.016
0.038,-1.006,-0.015
0.036,-1.004,-0.016
0.037,-1.002,-0.016
0.038,-1.005,-0.018
0.038,-1.006,-0.016
0.038,-1.005,-0.018
0.039,-1.005,-0.017
0.037,-1.004,-0.016
0.036,-1.004,-0.016
0.036,-1.003,-0.016
0.039,-1.006,-0.017
0.036,-1.006,-0.017
0.037,-1.004,-0.017
0.037,-1.005,-0.017
0.036,-1.006,-0.018
0.038,-1.006,-0.018
0.037,-1.004,-0.016
0.037,-1.005,-0.017
0.037,-1.006,-0.017
0.038,-1.006,-0.017
0.037,-1.006,-0.017
0.037,-1.005,-0.017
0.038,-1.004,-0.017
0.037,-1.004,-0.017
0.037,-1.004,-0.017
0.037,-1.006,-0.017
0.038,-1.004,-0.018
0.038,-1.005,-0.017
0.038,-1.004,-0.017
0.038,-1.006,-0.016
0.038,-1.006,-0.016
0.038,-1.006,-0.016
0.037,-1.005,-0.016
0.037,-1.005,-0.016
0.037,-1.005,-0.018
0.039,-1.005,-0.018
0.037,-1.005,-0.018
0.037,-1.005,-0.016
0.038,-1.007,-0.016
0.038,-1.006,-0.018
0.038,-1.004,-0.016
0.038,-1.004,-0.018
0.037,-1.006,-0.018
0.037,-1.005,-0.016
0.039,-1.005,-0.017
0.037,-1.005,-0.017
0.036,-1.006,-0.015
0.038,-1.005,-0.017
0.037,-1.006,-0.017
0.038,-1.004,-0.017
0.035,-1.005,-0.016
0.037,-1.006,-0.017
0.037,-1.005,-0.017
0.038,-1.004,-0.017
0.038,-1.006,-0.017
0.037,-1.006,-0.017
0.036,-1.005,-0.016
0.038,-1.005,-0.017
0.038,-1.005,-0.018
0.038,-1.007,-0.017
0.037,-1.005,-0.016
0.036,-1.005,-0.017
0.037,-1.005,-0.016
0.038,-1.006,-0.017
-0.989,-0.034,-0.026
-0.979,-0.034,-0.026
-0.99,-0.034,-0.027
-0.98,-0.034,-0.027
-0.99,-0.035,-0.026
-0.984,-0.033,-0.026
-0.989,-0.034,-0.025
-0.983,-0.035,-0.027
-0.989,-0.033,-0.026
-0.978,-0.034,-0.027
-0.987,-0.034,-0.025
-0.985,-0.034,-0.027
-0.987,-0.034,-0.026
-0.982,-0.034,-0.025
-0.987,-0.035,-0.027
-0.983,-0.034,-0.026
-0.984,-0.034,-0.027
-0.984,-0.034,-0.026
-0.986,-0.035,-0.027
-0.985,-0.035,-0.027
-0.985,-0.035,-0.027
-0.982,-0.035,-0.026
-0.984,-0.034,-0.025
-0.985,-0.034,-0.026
-0.985,-0.033,-0.027
-0.985,-0.034,-0.028
-0.984,-0.034,-0.026
-0.985,-0.035,-0.027
-0.984,-0.034,-0.026
-0.985,-0.034,-0.026
-0.986,-0.034,-0.026
-0.986,-0.034,-0.027
-0.984,-0.034,-0.026
-0.984,-0.035,-0.027
-0.985,-0.034,-0.026
-0.986,-0.034,-0.027
-0.986,-0.034,-0.027
-0.985,-0.034,-0.026
-0.986,-0.034,-0.026
-0.984,-0.034,-0.026
-0.985,-0.034,-0.026
-0.984,-0.033,-0.027
-0.984,-0.035,-0.027
-0.984,-0.033,-0.026
-0.985,-0.035,-0.026
-0.986,-0.034,-0.026
-0.986,-0.033,-0.025
-0.986,-0.033,-0.025
-0.985,-0.034,-0.027
-0.984,-0.035,-0.026
-0.985,-0.035,-0.027
-0.984,-0.035,-0.026
-0.986,-0.034,-0.026
-0.986,-0.034,-0.025
-0.984,-0.033,-0.027
-0.985,-0.035,-0.026
-0.986,-0.034,-0.028
-0.984,-0.035,-0.025
-0.984,-0.035,-0.026
-0.982,-0.034,-0.025
-0.985,-0.034,-0.026
-0.986,-0.033,-0.025
-0.985,-0.032,-0.026
-0.985,-0.034,-0.026
-0.985,-0.035,-0.027
-0.985,-0.034,-0.027
-0.984,-0.034,-0.027
-0.986,-0.034,-0.027
-0.985,-0.034,-0.026
-0.985,-0.034,-0.026
-0.985,-0.033,-0.026
-0.984,-0.034,-0.027
-0.985,-0.034,-0.026
-0.985,-0.034,-0.026
-0.983,-0.034,-0.026
-0.986,-0.035,-0.026
-0.989,-0.034,-0.026
-0.987,-0.033,-0.026
-0.983,-0.034,-0.027
-0.984,-0.034,-0.026
-0.985,-0.034,-0.026
-0.981,-0.034,-0.025
-0.983,-0.034,-0.026
-0.986,-0.034,-0.026
-0.989,-0.035,-0.027
-0.985,-0.033,-0.026
-0.984,-0.035,-0.025
-0.985,-0.033,-0.025
-0.985,-0.033,-0.027
-0.984,-0.034,-0.026
-0.985,-0.035,-0.027
-0.986,-0.035,-0.027
-0.985,-0.034,-0.026
-0.984,-0.033,-0.026
-0.987,-0.035,-0.025
-0.985,-0.034,-0.025
-0.984,-0.033,-0.026
-0.985,-0.033,-0.026
-0.986,-0.034,-0.026
-0.985,-0.034,-0.027
1.009,-0.006,0.054
0.997,-0.005,0.053
1.085,-0.006,0.064
1.041,-0.005,0.056
0.956,-0.006,0.054
1.008,-0.005,0.056
1.007,-0.004,0.055
1.042,-0.005,0.061
0.986,-0.005,0.052
1.015,-0.007,0.052
1.017,-0.005,0.057
1.024,-0.008,0.059
0.987,-0.006,0.052
1.008,-0.005,0.058
1.011,-0.005,0.058
1.005,-0.006,0.055
1.001,-0.006,0.054
1.014,-0.007,0.057
1.01,-0.006,0.056
1.004,-0.007,0.054
1.007,-0.005,0.057
1.014,-0.005,0.058
1.006,-0.006,0.055
1.004,-0.005,0.055
1.01,-0.005,0.055
1.01,-0.005,0.054
1.003,-0.006,0.054
1.007,-0.006,0.056
1.011,-0.006,0.058
1.013,-0.005,0.057
1.007,-0.005,0.054
1.01,-0.005,0.057
1.011,-0.006,0.056
1.008,-0.006,0.055
1.004,-0.006,0.055
1.009,-0.005,0.056
1.011,-0.006,0.057
1.007,-0.005,0.056
1.008,-0.005,0.056
1.011,-0.005,0.056
1.009,-0.005,0.057
1.008,-0.005,0.056
1.008,-0.005,0.055
1.01,-0.006,0.055
1.009,-0.005,0.056
1.009,-0.004,0.056
1.009,-0.006,0.056
1.011,-0.005,0.056
1.008,-0.006,0.055
1.004,-0.006,0.055
1.014,-0.006,0.056
1.012,-0.005,0.056
1.01,-0.006,0.056
1.004,-0.006,0.054
1.011,-0.006,0.055
1.01,-0.005,0.057
1.008,-0.005,0.056
1.007,-0.006,0.054
1.01,-0.005,0.055
1.009,-0.006,0.056
1.006,-0.006,0.055
1.011,-0.006,0.056
1.011,-0.006,0.056
1.009,-0.004,0.057
1.008,-0.005,0.055
1.007,-0.006,0.055
1.008,-0.005,0.054
1.009,-0.005,0.056
1.008,-0.007,0.055
1.008,-0.005,0.056
1.009,-0.005,0.056
1.009,-0.005,0.056
1.009,-0.004,0.056
1.007,-0.006,0.055
1.007,-0.006,0.055
1.009,-0.006,0.056
1.009,-0.005,0.055
1.007,-0.005,0.055
1.008,-0.005,0.057
1.01,-0.005,0.057
1.008,-0.004,0.054
1.008,-0.006,0.055
1.008,-0.006,0.055
1.008,-0.006,0.055
1.009,-0.005,0.055
1.007,-0.005,0.055
1.007,-0.006,0.055
1.011,-0.004,0.055
1.01,-0.004,0.055
1.009,-0.006,0.055
1.009,-0.005,0.056
1.009,-0.005,0.054
1.009,-0.005,0.056
1.01,-0.006,0.055
1.008,-0.004,0.055
1.008,-0.005,0.055
1.01,-0.006,0.056
1.009,-0.006,0.055
1.01,-0.005,0.056
1.007,-0.004,0.054
