timestamp,ax,ay,az,gx,gy,gz,mx,my,mz,altitude,relative_altitude
041225_02.59.12.340,-0.25700,-0.84600,-0.19200,31.01000,-3.97300,-30.69500,-0.43500,0.65200,-0.79400,86.54000,0.00000
041225_02.59.12.352,-0.26100,-0.89100,-0.14100,28.03500,-5.30300,-30.80000,-0.43500,0.65200,-0.79400,86.56000,0.02000
041225_02.59.12.363,-0.32100,-0.93200,-0.08900,27.05500,-10.39500,-31.34300,-0.44100,0.64100,-0.80000,86.44000,-0.12000
041225_02.59.12.375,-0.26900,-0.93500,-0.08000,26.58300,-15.40000,-33.07500,-0.44500,0.63100,-0.79800,86.55000,0.11000
041225_02.59.12.386,-0.10800,-0.91900,-0.13400,24.69200,-13.75500,-32.44500,-0.44800,0.62700,-0.80900,86.04000,-0.51000
041225_02.59.12.398,-0.05400,-0.82300,-0.17000,22.29500,-5.74000,-27.00300,-0.45400,0.61700,-0.80900,85.96000,-0.08000
041225_02.59.12.409,-0.04300,-0.80900,-0.22200,20.79000,-0.36800,-21.94500,-0.45400,0.61700,-0.80900,86.29000,0.33000
041225_02.59.12.421,-0.09200,-0.80000,-0.22000,19.32000,1.76800,-18.72500,-0.45600,0.61300,-0.81100,86.65000,0.36000
041225_02.59.12.432,-0.05800,-0.94400,-0.21900,19.61800,3.39500,-1.47000,-0.45500,0.60400,-0.81600,86.35000,-0.30000
041225_02.59.12.444,-0.09800,-0.93700,-0.10900,16.48500,-0.99800,13.38700,-0.44900,0.59900,-0.81800,86.59000,0.24000
041225_02.59.12.456,-0.10800,-0.85300,-0.10900,7.36700,-12.54700,34.16000,-0.44600,0.59500,-0.81300,86.56000,-0.03000
041225_02.59.12.467,-0.21900,-0.71300,-0.10100,-10.71000,-31.95500,80.51800,-0.44600,0.59500,-0.81300,86.76000,0.20000
041225_02.59.12.479,-0.28700,-1.05400,-0.14400,-1.90800,-30.53800,89.67000,-0.45200,0.60000,-0.81900,85.95000,-0.81000
041225_02.59.12.490,-0.27000,-1.05100,-0.14400,0.15700,-13.82500,8.31300,-0.45500,0.59900,-0.81600,86.85000,0.90000
041225_02.59.12.502,0.28400,-0.51700,-0.01000,2.22300,-1.15500,-23.95800,-0.45600,0.59000,-0.81700,86.45000,-0.40000
041225_02.59.12.513,0.11500,-0.94800,0.00900,18.42700,-1.48700,11.88200,-0.45700,0.58600,-0.82400,87.14000,0.69000
041225_02.59.12.525,-0.13200,-0.89800,0.03600,17.06200,10.13200,11.77800,-0.45700,0.58600,-0.82400,86.48000,-0.66000
041225_02.59.12.536,-0.06900,-0.91600,0.06200,6.96500,20.10800,7.80500,-0.45200,0.57400,-0.82500,86.49000,0.01000
041225_02.59.12.548,0.00800,-0.88800,-0.11500,4.51500,15.62800,12.67000,-0.45300,0.56900,-0.82300,86.46000,-0.03000
041225_02.59.12.559,0.11300,-0.82800,-0.27000,24.41300,13.61500,27.31800,-0.45000,0.56400,-0.83300,85.87000,-0.59000
041225_02.59.12.571,-0.07700,-0.91300,0.01100,28.00000,29.55800,25.88200,-0.44900,0.55400,-0.83700,86.55000,0.68000
041225_02.59.12.582,-0.33600,-0.95800,0.14900,18.79500,46.70800,24.18500,-0.44900,0.55400,-0.83600,86.67000,0.12000
041225_02.59.12.594,-0.43700,-1.00900,0.15800,7.70000,48.59700,23.87000,-0.44400,0.55300,-0.83600,86.52000,-0.15000
041225_02.59.12.605,-0.33800,-1.23200,0.16200,-1.36500,39.27000,21.26300,-0.44000,0.54400,-0.83800,86.05000,-0.47000
041225_02.59.12.617,-0.31800,-0.95800,-0.03800,-9.39800,34.65000,21.35000,-0.43800,0.54100,-0.83400,86.23000,0.18000
041225_02.59.12.628,-0.12400,-0.90700,-0.10200,-7.00000,34.52800,25.09500,-0.43200,0.53900,-0.84100,86.00000,-0.23000
041225_02.59.12.640,-0.21700,-0.99300,-0.13500,-3.48300,36.87300,31.76300,-0.43200,0.53900,-0.84400,86.78000,0.78000
041225_02.59.12.651,-0.78800,-1.12500,-0.24700,-15.01500,50.52200,20.54500,-0.43200,0.53500,-0.84400,86.44000,-0.34000
041225_02.59.12.663,-0.58000,-1.08300,-0.65600,-34.54500,84.33200,7.77000,-0.42100,0.53800,-0.84500,85.88000,-0.56000
041225_02.59.12.674,-0.04900,-1.01100,-1.42900,-17.23700,133.35000,19.25000,-0.38900,0.53300,-0.86000,87.05000,1.17000
041225_02.59.12.686,0.74700,-0.53900,-1.09700,27.33500,357.87500,25.37500,-0.32700,0.51500,-0.86800,86.98000,-0.07000
041225_02.59.12.697,-0.52900,-0.66500,0.68200,32.30500,295.71500,23.80000,-0.32700,0.51500,-0.87600,86.40000,-0.58000
041225_02.59.12.709,-0.94300,-1.24200,0.50000,21.98000,87.76200,53.00700,-0.27100,0.50100,-0.87600,86.55000,0.15000
041225_02.59.12.720,-0.96100,-1.69100,0.22000,36.05000,-50.82000,75.95000,-0.27600,0.48500,-0.87800,86.20000,-0.35000
041225_02.59.12.732,-0.85000,-1.41500,-0.04000,37.52000,-49.40300,41.82500,-0.29900,0.47300,-0.87700,85.86000,-0.34000
041225_02.59.12.743,-0.64300,-1.03700,-0.09200,23.39800,-8.01500,23.11800,-0.30700,0.46400,-0.87900,86.04000,0.18000
041225_02.59.12.755,-0.58500,-1.28700,-0.06400,10.34200,2.43300,23.11800,-0.30700,0.46400,-0.87900,86.12000,0.08000
041225_02.59.12.766,-0.56100,-1.17900,-0.17400,1.64500,-6.31800,16.48500,-0.30800,0.46100,-0.87900,86.20000,0.08000
041225_02.59.12.778,-0.47800,-1.15300,-0.11800,3.83200,-16.15300,11.98800,-0.31700,0.46100,-0.87600,86.41000,0.21000
041225_02.59.12.789,-0.47800,-1.14200,-0.01200,2.73000,-23.45000,8.24300,-0.32000,0.45800,-0.88100,85.87000,-0.54000
041225_02.59.12.801,-0.32800,-1.09200,0.04800,-7.43700,-18.30500,4.44500,-0.32400,0.46000,-0.87800,85.86000,-0.01000
041225_02.59.12.812,-0.30500,-1.02000,-0.07000,-22.03200,1.34700,4.51500,-0.32400,0.46000,-0.87800,85.94000,0.08000
041225_02.59.12.824,-0.18100,-0.84100,-0.35900,-23.81700,15.73300,7.22700,-0.32500,0.46900,-0.87800,86.43000,0.49000
041225_02.59.12.835,-0.18200,-0.89400,-0.45600,-26.60000,45.34200,14.24500,-0.32200,0.47400,-0.88000,86.38000,-0.05000
041225_02.59.12.847,-0.32000,-0.93400,-0.40700,-25.07700,67.18300,19.02300,-0.31500,0.48000,-0.87500,86.26000,-0.12000
041225_02.59.12.858,-0.47500,-1.05500,-0.26400,-23.32700,74.72500,20.94800,-0.30100,0.48000,-0.88300,86.96000,0.70000
041225_02.59.12.870,-0.60400,-1.14800,-0.14300,-24.30800,67.83000,16.20500,-0.30100,0.48400,-0.88100,86.22000,-0.74000
041225_02.59.12.882,-0.64600,-1.16200,-0.09800,-26.35500,54.95000,7.21000,-0.29100,0.48400,-0.88100,85.97000,-0.25000
041225_02.59.12.893,-0.56200,-1.16000,-0.14200,-28.52500,46.41000,-4.30500,-0.28100,0.49100,-0.87700,86.67000,0.70000
041225_02.59.12.905,-0.49900,-1.06200,-0.20300,-34.77200,53.20000,-15.33000,-0.26800,0.50100,-0.87900,86.25000,-0.42000
041225_02.59.12.916,-0.44700,-1.01100,-0.14600,-38.71000,53.44500,-16.55500,-0.25600,0.51100,-0.87100,86.72000,0.47000
041225_02.59.12.928,-0.42500,-0.99700,-0.05300,-35.70000,9.55500,-16.73000,-0.25600,0.51800,-0.86800,86.06000,-0.66000
041225_02.59.12.940,-0.34200,-0.95400,-0.17600,-46.84700,2.55500,-19.44200,-0.25200,0.51800,-0.86800,86.69000,0.63000
041225_02.59.12.951,-0.06400,-0.85500,-0.24900,-53.62000,-1.06700,-16.76500,-0.25500,0.53300,-0.86200,86.50000,-0.19000
041225_02.59.12.963,-0.07300,-0.84500,-0.21700,-56.35000,-0.94500,-8.06800,-0.25500,0.54800,-0.86300,86.39000,-0.11000
041225_02.59.12.974,-0.29200,-0.83900,-0.24800,-58.36200,-0.07000,-0.10500,-0.25500,0.56400,-0.84700,85.77000,-0.62000
041225_02.59.12.986,-0.56300,-0.89800,-0.48100,-53.91700,-4.00800,-0.47200,-0.25500,0.57800,-0.84300,86.57000,0.80000
041225_02.59.12.997,-0.56200,-1.06700,-0.48100,-50.24300,5.53000,-5.05700,-0.26100,0.57800,-0.84300,86.52000,-0.05000
041225_02.59.13.009,-0.44900,-0.90000,-0.43300,-59.18500,17.99000,-15.33000,-0.26000,0.59200,-0.83500,85.95000,-0.57000
041225_02.59.13.021,-0.43700,-0.88700,-0.31400,-62.31800,26.89800,-19.95000,-0.25300,0.60900,-0.82600,86.43000,0.48000
041225_02.59.13.032,-0.44400,-0.86000,-0.31300,-64.43500,24.97200,-21.63000,-0.25400,0.62400,-0.81700,86.64000,0.21000
041225_02.59.13.044,-0.37100,-0.74400,-0.39500,-66.64000,26.98500,-23.67700,-0.25400,0.64100,-0.79500,85.96000,-0.68000
041225_02.59.13.054,-0.30100,-0.56200,-0.46700,-67.13000,58.45000,-18.90000,-0.25200,0.64100,-0.79500,86.00000,0.04000
041225_02.59.13.066,-0.17100,-0.46500,-0.66600,-61.79200,77.33200,-7.49000,-0.24300,0.65600,-0.78600,85.84000,-0.16000
041225_02.59.13.077,-0.01000,-0.37200,-0.72100,-44.41500,94.85000,3.69300,-0.23000,0.66700,-0.78400,86.18000,0.34000
041225_02.59.13.089,-0.03300,-0.35000,-0.70900,-24.09700,108.97300,16.32700,-0.21900,0.67300,-0.77500,86.36000,0.18000
041225_02.59.13.101,-0.04800,-0.44800,-0.69100,-13.80700,114.20500,24.97200,-0.21900,0.67800,-0.76100,85.67000,-0.69000
041225_02.59.13.112,-0.07500,-0.55600,-0.77900,-9.06500,110.74000,27.65000,-0.19900,0.67800,-0.76100,85.82000,0.15000
041225_02.59.13.124,-0.14700,-0.63000,-0.90200,1.27800,110.46000,27.14200,-0.18400,0.68400,-0.75700,85.95000,0.13000
041225_02.59.13.135,-0.22000,-0.61300,-0.98200,14.96200,120.78500,23.04800,-0.16700,0.68200,-0.75700,86.14000,0.19000
041225_02.59.13.147,-0.24300,-0.53600,-0.94900,30.95800,137.77700,17.62200,-0.15100,0.67700,-0.75200,86.07000,-0.07000
041225_02.59.13.158,-0.22400,-0.49000,-0.79100,45.93800,150.65800,13.09000,-0.12900,0.67600,-0.74400,85.89000,-0.18000
041225_02.59.13.170,-0.15000,-0.48500,-0.65200,56.12300,157.50000,5.18000,-0.12900,0.67600,-0.74400,86.26000,0.37000
041225_02.59.13.181,-0.08900,-0.43600,-0.60400,54.84500,178.18500,-3.64000,-0.11200,0.66700,-0.73200,86.33000,0.07000
041225_02.59.13.193,0.13600,-0.15600,-0.79400,56.21000,205.50300,-5.30300,-0.09100,0.66900,-0.71800,85.79000,-0.54000
041225_02.59.13.204,-0.05900,-0.18600,-0.41800,77.54300,226.71200,-11.44500,-0.07000,0.66500,-0.70500,86.32000,0.53000
041225_02.59.13.216,0.17300,-0.09900,0.02600,108.53500,217.10500,-24.65700,-0.05200,0.65600,-0.69900,85.90000,-0.42000
041225_02.59.13.227,0.36800,-0.29900,0.05800,120.99500,194.74000,-35.75200,-0.05200,0.65600,-0.69900,86.09000,0.19000
041225_02.59.13.239,0.50700,-0.58500,0.11800,122.76200,175.59500,-45.69300,-0.04800,0.65100,-0.69800,85.93000,-0.16000
041225_02.59.13.250,0.40200,-0.89100,0.11900,123.09500,154.63000,-58.04800,-0.04300,0.64600,-0.70100,85.68000,-0.25000
041225_02.59.13.262,0.30200,-1.08900,0.29200,113.26000,130.67300,-76.30000,-0.05200,0.64700,-0.69900,85.98000,0.30000
041225_02.59.13.273,0.19200,-1.37500,0.29700,92.26000,96.84500,-107.10000,-0.06500,0.65500,-0.70700,86.72000,0.74000
041225_02.59.13.285,0.35700,-1.40000,0.46800,50.89000,69.51000,-140.31500,-0.06500,0.65500,-0.70700,86.25000,-0.47000
041225_02.59.13.296,0.55500,-1.23500,0.45700,2.24000,48.24800,-156.87000,-0.07700,0.66300,-0.70700,86.51000,0.26000
041225_02.59.13.308,0.60000,-1.03500,0.21600,-95.28700,36.50500,-140.24500,-0.08800,0.67200,-0.70600,86.91000,0.40000
041225_02.59.13.319,0.39100,-1.02200,-0.12300,-146.44000,58.92300,-125.82500,-0.11000,0.70200,-0.68600,86.16000,-0.75000
041225_02.59.13.331,0.22900,-0.77000,-0.56300,-199.81500,101.27200,-113.55800,-0.12300,0.72900,-0.65100,86.93000,0.77000
041225_02.59.13.343,0.27400,-0.37700,-1.19900,-252.84000,171.55300,-92.43500,-0.12300,0.72900,-0.65100,86.56000,-0.37000
041225_02.59.13.354,0.58000,-0.58000,-0.44300,-260.45300,242.44500,-72.90500,-0.13100,0.76200,-0.60500,86.39000,-0.17000
041225_02.59.13.366,0.91800,-0.33200,0.04300,-257.23300,288.41800,-69.31700,-0.13700,0.78600,-0.55900,85.81000,-0.58000
041225_02.59.13.377,1.17200,-0.20600,0.50300,-241.16700,281.13800,-70.35000,-0.14400,0.80600,-0.51400,86.65000,0.84000
041225_02.59.13.389,1.55500,-0.12600,0.99900,-186.37500,222.07500,-67.35700,-0.16200,0.82200,-0.50000,86.06000,-0.59000
041225_02.59.13.400,1.31900,-0.10600,0.66600,-115.57000,120.29500,-49.38500,-0.16200,0.82200,-0.50000,86.33000,0.27000
041225_02.59.13.412,0.97700,-0.15000,-0.07500,-41.49300,53.58500,-19.74000,-0.17600,0.83700,-0.49900,86.22000,-0.11000
041225_02.59.13.424,1.01200,-0.22600,-0.56200,18.27000,43.92500,12.95000,-0.17400,0.83900,-0.51500,86.33000,0.11000
041225_02.59.13.435,1.11200,-0.40800,-0.43100,99.89000,69.79000,21.36800,-0.17100,0.83800,-0.53400,85.88000,-0.45000
041225_02.59.13.447,1.12800,-0.75300,0.06300,122.43000,69.30000,31.65700,-0.16700,0.84000,-0.57000,86.70000,0.82000
041225_02.59.13.458,1.03300,-0.84200,0.19700,131.65200,59.55300,47.47800,-0.16700,0.84000,-0.57000,86.12000,-0.58000
041225_02.59.13.470,0.94600,-0.92500,0.22600,120.13700,48.23000,62.12500,-0.15300,0.82700,-0.59600,86.67000,0.55000
041225_02.59.13.481,0.88700,-0.93000,0.17600,96.23200,44.71300,66.43000,-0.13500,0.81900,-0.61000,86.69000,0.02000
041225_02.59.13.493,0.92000,-0.77000,0.16700,68.09200,51.43200,63.38500,-0.11600,0.81000,-0.62900,86.62000,-0.07000
041225_02.59.13.504,1.01800,-0.56500,0.04600,45.93800,62.54500,61.00500,-0.10300,0.80600,-0.64100,85.58000,-1.04000
041225_02.59.13.515,1.01300,-0.55700,0.01100,39.14700,75.74000,63.66500,-0.10300,0.80600,-0.64100,85.95000,0.37000
041225_02.59.13.527,0.96200,-0.74200,0.16800,41.19500,76.54500,68.77500,-0.08200,0.79400,-0.65400,86.42000,0.47000
041225_02.59.13.538,0.90100,-0.95500,0.32200,55.51000,55.26500,72.08200,-0.06400,0.78300,-0.66700,85.83000,-0.59000
041225_02.59.13.550,0.88700,-1.01900,0.37200,75.91500,-2.88800,76.28300,-0.04600,0.76600,-0.68600,85.90000,0.07000
041225_02.59.13.561,0.83300,-1.06000,0.33100,96.44200,-7.99700,74.76000,-0.02600,0.74500,-0.70400,86.29000,0.39000
041225_02.59.13.573,0.87100,-0.98300,0.24300,81.16500,7.71800,70.08800,-0.02600,0.74500,-0.70400,86.04000,-0.25000
041225_02.59.13.584,0.86400,-0.99900,0.17000,69.98200,33.98500,64.36500,-0.01300,0.72300,-0.70900,85.98000,-0.06000
041225_02.59.13.596,0.82600,-1.12700,0.22100,68.95000,57.45200,50.64500,0.00900,0.70400,-0.72100,86.50000,0.52000
041225_02.59.13.607,0.79300,-1.38000,0.41200,80.08000,72.06500,31.60500,0.02600,0.68400,-0.72000,86.20000,-0.30000
041225_02.59.13.619,0.77800,-1.38100,0.46900,100.71300,75.70500,12.96700,0.03900,0.66600,-0.72900,86.18000,-0.02000
041225_02.59.13.630,0.82000,-1.16300,0.51800,134.34800,69.63200,4.70700,0.03900,0.66600,-0.72900,86.02000,-0.16000
041225_02.59.13.642,0.82000,-1.01800,0.62900,164.64000,58.25700,10.22000,0.05300,0.63600,-0.73600,86.03000,0.01000
041225_02.59.13.653,0.82200,-0.96400,0.64300,178.06200,46.84700,22.89000,0.06700,0.60200,-0.73300,86.60000,0.57000
041225_02.59.13.665,0.78300,-0.91000,0.67500,176.97700,39.41000,34.73700,0.08100,0.57400,-0.73300,86.33000,-0.27000
041225_02.59.13.676,0.58500,-0.99500,0.29700,170.17000,61.09200,36.66200,0.09600,0.54300,-0.71700,86.05000,-0.28000
041225_02.59.13.688,0.56400,-0.96600,0.76900,143.86800,61.05700,37.43200,0.09600,0.54300,-0.71700,86.54000,0.49000
041225_02.59.13.699,0.66800,-0.82100,0.85400,139.63300,47.26800,44.29200,0.10300,0.51800,-0.71700,85.67000,-0.87000
041225_02.59.13.711,0.63700,-0.76400,0.86600,128.01200,40.05700,57.12000,0.11500,0.49400,-0.69500,86.55000,0.88000
041225_02.59.13.722,0.60800,-0.76700,0.90400,110.88000,38.83300,76.00300,0.12100,0.47300,-0.68500,85.95000,-0.60000
041225_02.59.13.734,0.63800,-0.76400,0.97400,99.76800,25.18300,95.76000,0.12500,0.44400,-0.66800,86.41000,0.46000
041225_02.59.13.745,0.75100,-0.66800,0.89500,92.54000,7.40300,118.58000,0.12500,0.44400,-0.66800,86.59000,0.18000
041225_02.59.13.757,0.67900,-0.54800,0.56200,94.51800,-8.19000,146.79000,0.12700,0.41300,-0.65900,85.87000,-0.72000
041225_02.59.13.768,0.58600,-0.51800,0.44800,118.82500,-25.88200,167.68500,0.12500,0.37500,-0.65000,86.91000,1.04000
041225_02.59.13.780,0.50300,-0.45400,0.45100,130.55000,-25.35800,182.56000,0.12000,0.33900,-0.63800,86.33000,-0.58000
041225_02.59.13.791,0.25100,-0.49700,0.48800,117.42500,-6.52800,192.02700,0.11800,0.30900,-0.63000,86.38000,0.05000
041225_02.59.13.803,0.30900,-0.45200,0.63100,77.82300,9.55500,186.74300,0.11800,0.30900,-0.63000,86.36000,-0.02000
041225_02.59.13.814,0.25000,-0.51900,0.64500,60.46300,21.15700,183.66300,0.11800,0.27700,-0.62400,86.24000,-0.12000
041225_02.59.13.826,0.41200,-0.41800,0.58900,42.15800,46.25200,179.30500,0.10800,0.25500,-0.61600,86.44000,0.20000
041225_02.59.13.837,0.61000,-0.25400,0.57400,26.70500,86.39700,174.98200,0.10600,0.22600,-0.58800,87.20000,0.76000
041225_02.59.13.849,0.68000,-0.20400,0.58900,10.55200,126.52500,165.32200,0.10700,0.20700,-0.56100,86.22000,-0.98000
041225_02.59.13.860,0.41100,-0.26500,0.65900,-9.48500,159.39000,154.84000,0.10700,0.20700,-0.56100,86.13000,-0.09000
041225_02.59.13.872,0.05400,-0.48300,0.79400,-21.38500,171.65800,143.02700,0.10700,0.18400,-0.53000,86.22000,0.09000
041225_02.59.13.883,-0.00700,-0.54100,0.85300,-20.86000,166.40800,126.92700,0.10300,0.16800,-0.50300,86.23000,0.01000
041225_02.59.13.895,0.17100,-0.57400,0.77900,-11.00700,160.24700,113.13700,0.09700,0.15600,-0.47700,86.22000,-0.01000
041225_02.59.13.906,0.32300,-0.51500,0.63600,6.38700,163.76500,101.67500,0.09200,0.14900,-0.44000,86.26000,0.04000
041225_02.59.13.918,0.33900,-0.43200,0.59400,28.64800,177.57200,86.03000,0.09200,0.14900,-0.44000,86.54000,0.28000
041225_02.59.13.930,0.22400,-0.27200,0.58600,21.49000,216.19500,58.60800,0.08600,0.13700,-0.40000,86.92000,0.38000
041225_02.59.13.941,-0.35800,0.03600,0.52900,-11.74300,214.51500,60.72500,0.07900,0.13000,-0.36800,86.41000,-0.51000
041225_02.59.13.953,-0.54000,-0.27800,0.42200,-35.43800,202.45800,65.17000,0.06100,0.12300,-0.33400,85.63000,-0.78000
041225_02.59.13.965,-0.54000,-0.46900,0.35900,-30.62500,212.34500,69.49300,0.03700,0.10300,-0.30700,85.94000,0.31000
041225_02.59.13.977,-0.44900,-0.31100,0.32400,-13.38700,243.67000,77.82300,0.03700,0.10300,-0.30700,86.85000,0.91000
041225_02.59.13.989,-0.45200,-0.23600,0.44200,-4.69000,264.21500,93.95700,0.01100,0.09500,-0.27300,86.76000,-0.09000
041225_02.59.14.000,-0.51800,-0.14100,0.35700,0.12300,261.55500,109.77800,-0.02500,0.07600,-0.24900,86.42000,-0.34000
041225_02.59.14.012,-0.64200,-0.17100,0.27600,5.04000,252.31500,121.80000,-0.07000,0.06900,-0.22700,86.24000,-0.18000
041225_02.59.14.023,-0.70000,-0.08800,0.17000,4.46300,251.82500,130.37500,-0.11800,0.04800,-0.20900,87.01000,0.77000
041225_02.59.14.035,-0.92700,0.05100,0.01500,2.74700,263.84800,141.31200,-0.11800,0.04800,-0.20900,85.91000,-1.10000
041225_02.59.14.046,-0.93300,0.01000,-0.12300,3.02700,263.63800,149.64300,-0.16800,0.03900,-0.19800,86.27000,0.36000
041225_02.59.14.058,-1.03000,0.07000,-0.12200,9.73000,254.73000,156.29200,-0.22100,0.03300,-0.19000,86.14000,-0.13000
041225_02.59.14.070,-1.08500,0.03100,-0.36600,21.94500,261.94000,160.12500,-0.27200,0.03300,-0.18600,86.43000,0.29000
041225_02.59.14.082,-1.16600,0.16300,-0.49000,33.00500,283.13300,169.69700,-0.33300,0.03300,-0.18400,85.98000,-0.45000
041225_02.59.14.093,-1.25100,-0.05200,-0.61600,33.26800,317.45000,180.61800,-0.33300,0.03300,-0.18400,86.74000,0.76000
041225_02.59.14.105,-1.12600,0.07400,-0.50400,50.82000,353.90200,176.94300,-0.40000,0.04400,-0.19300,86.41000,-0.33000
041225_02.59.14.116,-0.90500,-0.14400,-0.27200,55.38800,383.67000,167.35200,-0.46700,0.06200,-0.20700,86.35000,-0.06000
041225_02.59.14.128,-0.29900,0.71400,-0.27600,57.03300,375.07800,146.51000,-0.51300,0.07800,-0.23000,85.97000,-0.38000
041225_02.59.14.140,-0.29000,0.10700,-0.50900,14.35000,351.34800,147.15800,-0.56700,0.09200,-0.26000,86.20000,0.23000
041225_02.59.14.151,-0.31900,0.56700,-0.65600,14.50700,311.79800,117.33800,-0.56700,0.09200,-0.26000,86.01000,-0.19000
041225_02.59.14.163,-0.53000,0.19100,-0.74800,-1.62800,312.35800,102.09500,-0.59700,0.10400,-0.29200,86.54000,0.53000
041225_02.59.14.174,-0.45700,0.30700,-0.68800,-1.36500,328.02000,65.38000,-0.62000,0.11200,-0.34000,86.31000,-0.23000
041225_02.59.14.186,0.29600,0.51500,-0.55500,-25.97000,336.68200,29.03200,-0.63400,0.10800,-0.38600,86.63000,0.32000
041225_02.59.14.197,0.05400,0.14100,-0.78900,-20.73700,280.01700,56.70000,-0.64100,0.10700,-0.42100,86.63000,0.00000
041225_02.59.14.209,-0.22500,0.08100,-1.07400,-17.51700,254.24000,60.11200,-0.64100,0.10700,-0.42100,86.89000,0.26000
041225_02.59.14.221,-0.14700,0.16800,-1.19200,-5.19800,272.93000,57.68000,-0.64500,0.11300,-0.45100,85.84000,-1.05000
041225_02.59.14.232,-0.08400,0.19600,-1.19500,5.23300,299.05700,69.65000,-0.64900,0.11700,-0.48700,85.98000,0.14000
041225_02.59.14.244,0.12200,0.18200,-1.32000,30.34500,316.57500,77.96300,-0.64400,0.12100,-0.52500,86.81000,0.83000
041225_02.59.14.255,0.32400,0.25300,-1.16200,73.62200,329.43700,71.34800,-0.64100,0.12700,-0.55500,86.08000,-0.73000
041225_02.59.14.267,0.47500,0.25700,-1.02100,97.37000,320.14500,56.40300,-0.64100,0.12700,-0.55500,86.71000,0.63000
041225_02.59.14.278,0.64900,0.28700,-0.92000,108.34200,284.63800,28.47200,-0.62400,0.12900,-0.57500,85.59000,-1.12000
041225_02.59.14.290,0.67400,0.35700,-1.08000,113.99500,228.97000,-0.31500,-0.61000,0.11900,-0.58600,86.07000,0.48000
041225_02.59.14.301,0.63100,0.30000,-1.15000,117.09200,133.61300,-3.83200,-0.60500,0.10800,-0.58000,85.77000,-0.30000
041225_02.59.14.313,0.67300,0.21100,-1.04400,94.16800,105.87500,12.84500,-0.60500,0.09900,-0.58400,86.70000,0.93000
041225_02.59.14.324,0.80800,0.30900,-0.90300,71.97800,83.47500,23.92300,-0.60500,0.09900,-0.58400,86.34000,-0.36000
041225_02.59.14.336,0.88100,0.32800,-0.76700,47.23300,63.92800,34.02000,-0.60100,0.10100,-0.58200,85.97000,-0.37000
041225_02.59.14.347,0.93100,0.18100,-0.73100,27.30000,49.54200,43.50500,-0.59600,0.09700,-0.58800,86.48000,0.51000
041225_02.59.14.359,0.98500,0.10400,-0.93300,9.06500,44.10000,53.35800,-0.59900,0.09500,-0.59200,86.61000,0.13000
041225_02.59.14.370,1.16800,0.12300,-0.69000,2.41500,51.81800,71.29500,-0.60800,0.11600,-0.59700,86.99000,0.38000
041225_02.59.14.382,1.22800,0.29200,-0.56300,-15.76700,54.26800,100.01200,-0.60800,0.11600,-0.59700,86.50000,-0.49000
041225_02.59.14.393,1.18000,0.34900,-0.59000,-42.24500,56.15800,135.80000,-0.62000,0.14000,-0.62000,86.35000,-0.15000
041225_02.59.14.405,0.97000,0.52600,-0.65400,-66.29000,71.38200,165.90000,-0.62300,0.17700,-0.63800,86.27000,-0.08000
041225_02.59.14.416,0.78400,0.46800,-0.67200,-90.42300,91.82300,179.00800,-0.63400,0.22000,-0.65900,86.60000,0.33000
041225_02.59.14.428,0.75800,0.02600,-0.62100,-104.09000,104.93000,184.39800,-0.63300,0.26800,-0.68200,86.00000,-0.60000
041225_02.59.14.439,0.83000,-0.26300,-0.53200,-87.78000,91.26200,193.79500,-0.63300,0.26800,-0.68200,86.10000,0.10000
041225_02.59.14.451,0.96200,-0.20300,-0.43700,-65.17000,71.97800,207.16500,-0.63400,0.31000,-0.69800,86.20000,0.10000
041225_02.59.14.462,0.89400,-0.16600,-0.57400,-50.90800,54.96700,211.94300,-0.63300,0.35500,-0.71300,86.51000,0.31000
041225_02.59.14.474,0.78900,-0.24800,-0.53900,-25.04200,25.93500,197.68000,-0.63500,0.39700,-0.71800,86.34000,-0.17000
041225_02.59.14.485,0.59700,-0.35400,-0.48900,-7.19300,5.33800,169.43500,-0.63600,0.42900,-0.72300,86.24000,-0.10000
041225_02.59.14.497,0.66200,-0.31900,-0.63200,-3.78000,3.93800,139.17800,-0.63600,0.42900,-0.72300,86.21000,-0.03000
041225_02.59.14.508,0.68200,-0.42200,-0.60800,2.83500,10.99000,117.65300,-0.62800,0.44900,-0.72300,86.15000,-0.06000
041225_02.59.14.520,0.66100,-0.43900,-0.55500,9.95800,20.77300,104.05500,-0.62700,0.46900,-0.72400,85.74000,-0.41000
041225_02.59.14.531,0.65300,-0.42800,-0.41900,10.34200,31.41300,98.96300,-0.62000,0.47500,-0.73300,85.76000,0.02000
041225_02.59.14.543,0.64200,-0.46500,-0.31900,4.84700,29.45200,97.28300,-0.60800,0.48700,-0.73700,86.50000,0.74000
041225_02.59.14.554,0.64800,-0.43300,-0.31100,-7.85800,2.32800,96.65300,-0.60800,0.48700,-0.73700,86.23000,-0.27000
041225_02.59.14.566,0.55500,-0.44100,-0.25200,-9.15300,-12.56500,96.02200,-0.60100,0.50000,-0.73600,86.67000,0.44000
041225_02.59.14.578,0.45300,-0.44300,-0.21300,-9.69500,-20.05500,88.72500,-0.59900,0.51500,-0.73200,86.49000,-0.18000
041225_02.59.14.589,0.18400,-0.35800,-0.23500,-6.16000,-27.24700,86.46700,-0.59700,0.52200,-0.72700,85.81000,-0.68000
041225_02.59.14.601,0.38700,-0.45500,-0.42500,-2.22300,-31.27300,98.12200,-0.60000,0.53700,-0.72600,86.22000,0.41000
041225_02.59.14.612,0.61600,-0.59500,-0.49700,-9.85200,-35.57700,105.64700,-0.60000,0.53700,-0.72600,86.71000,0.49000
041225_02.59.14.624,0.65400,-0.70900,-0.53600,-20.66700,-51.41500,103.40800,-0.59600,0.54700,-0.72000,85.81000,-0.90000
041225_02.59.14.635,0.59300,-0.83400,-0.57400,-19.09300,-73.46500,99.34800,-0.60900,0.56700,-0.70700,86.20000,0.39000
041225_02.59.14.647,0.46300,-0.98600,-0.67600,-2.10000,-92.34800,101.81500,-0.61400,0.58000,-0.69200,85.86000,-0.34000
041225_02.59.14.658,0.32400,-0.97700,-0.77500,14.50700,-95.81300,106.80200,-0.61600,0.59200,-0.68100,86.52000,0.66000
041225_02.59.14.670,0.28200,-0.80000,-0.85400,21.77000,-76.65000,107.41500,-0.61600,0.59200,-0.68100,86.38000,-0.14000
041225_02.59.14.682,0.30000,-0.73400,-0.84600,22.15500,0.17500,82.42500,-0.61600,0.60700,-0.68200,86.41000,0.03000
041225_02.59.14.693,0.27100,-0.88500,-0.79000,22.38200,24.71000,65.03000,-0.60500,0.61500,-0.68500,86.20000,-0.21000
041225_02.59.14.705,0.34700,-0.91900,-0.68500,13.35200,30.43300,55.91200,-0.59700,0.61800,-0.69700,86.70000,0.50000
041225_02.59.14.716,0.29200,-0.91800,-0.63100,6.98300,20.59700,50.97800,-0.59100,0.63100,-0.69700,86.02000,-0.68000
041225_02.59.14.728,0.22600,-0.90600,-0.57900,4.27000,9.17000,43.90800,-0.59100,0.63100,-0.69700,86.40000,0.38000
041225_02.59.14.740,0.14800,-0.88900,-0.51700,-0.54300,4.67300,33.70500,-0.58300,0.63700,-0.69700,86.06000,-0.34000
041225_02.59.14.751,0.15300,-0.87300,-0.53000,-8.76700,1.62800,23.06500,-0.58100,0.64200,-0.69700,86.74000,0.68000
041225_02.59.14.763,0.18000,-0.85400,-0.59500,-18.39200,-6.24700,13.31800,-0.58000,0.64600,-0.69400,86.25000,-0.49000
041225_02.59.14.775,0.21100,-0.81400,-0.62600,-25.00700,-15.17200,4.55000,-0.58100,0.65200,-0.69000,86.13000,-0.12000
041225_02.59.14.786,0.13100,-0.82300,-0.52800,-29.03200,-24.50000,-1.17300,-0.58100,0.65200,-0.69000,86.49000,0.36000
041225_02.59.14.798,0.12900,-0.81100,-0.57000,-35.66500,-39.74300,-26.79200,-0.58100,0.65100,-0.67800,85.90000,-0.59000
041225_02.59.14.810,0.20200,-0.76100,-0.74400,-44.04800,-52.36000,-33.33800,-0.59200,0.65700,-0.66500,86.64000,0.74000
041225_02.59.14.822,0.26800,-0.66400,-0.70700,-48.73700,-47.37300,-36.50500,-0.59400,0.65800,-0.65400,86.39000,-0.25000
041225_02.59.14.834,0.26600,-0.61200,-0.71100,-50.82000,-40.18000,-36.33000,-0.60900,0.66700,-0.64600,86.37000,-0.02000
041225_02.59.14.845,0.34400,-0.52200,-0.77200,-46.32200,-35.03500,-31.44800,-0.60900,0.66700,-0.64600,86.43000,0.06000
041225_02.59.14.857,0.27100,-0.59100,-0.71500,-33.54800,-36.17300,-19.16300,-0.61100,0.66800,-0.63400,86.56000,0.13000
041225_02.59.14.869,0.25200,-0.63500,-0.62400,-27.30000,-35.03500,-12.60000,-0.61400,0.67300,-0.61900,86.38000,-0.18000
041225_02.59.14.880,0.29400,-1.11200,-0.82200,-24.58700,-29.57500,-12.84500,-0.61900,0.67400,-0.61000,85.97000,-0.41000
041225_02.59.14.892,0.14200,-0.74500,-0.47100,-18.18300,-18.58500,-30.43300,-0.61800,0.67300,-0.60400,85.88000,-0.09000
041225_02.59.14.903,0.22700,-0.36000,-0.52300,-28.54200,-33.23300,-33.81000,-0.61800,0.67300,-0.60400,86.54000,0.66000
041225_02.59.14.915,0.20600,-0.48900,-0.66900,-47.26800,-41.21300,-13.66800,-0.61800,0.67300,-0.59500,85.90000,-0.64000
041225_02.59.14.927,0.13100,-0.49800,-0.78100,-52.74500,-31.78000,-13.07300,-0.62200,0.67900,-0.58200,85.90000,0.00000
041225_02.59.14.938,0.19000,-0.47600,-0.79100,-58.55500,-30.62500,-7.15800,-0.62500,0.68500,-0.56500,86.69000,0.79000
041225_02.59.14.950,0.21900,-0.54300,-0.81400,-64.59200,-28.03500,1.33000,-0.62800,0.69000,-0.55400,85.64000,-1.05000
041225_02.59.14.962,0.22100,-0.62300,-0.80000,-74.51500,-25.21800,3.41200,-0.62800,0.69000,-0.55400,86.13000,0.49000
041225_02.59.14.973,0.19200,-0.61300,-0.80700,-89.86300,-28.71800,-0.57700,-0.62700,0.69600,-0.53200,87.00000,0.87000
041225_02.59.14.985,0.21000,-0.54500,-0.85400,-111.17700,-31.20200,-6.49200,-0.62600,0.70400,-0.51900,86.76000,-0.24000
041225_02.59.14.996,0.29300,-0.46000,-0.93700,-134.85500,-25.91700,-11.16500,-0.63600,0.70800,-0.50000,86.01000,-0.75000
041225_02.59.15.008,0.34000,-0.44800,-0.99100,-155.90800,-18.53200,-14.28000,-0.63500,0.70800,-0.47900,86.82000,0.81000
041225_02.59.15.019,0.32200,-0.47300,-1.05700,-172.21700,-12.96700,-20.42300,-0.63500,0.70800,-0.47900,86.33000,-0.49000
041225_02.59.15.031,0.36100,-0.42500,-1.06800,-183.34800,-6.96500,-28.77000,-0.63500,0.70500,-0.44900,85.94000,-0.39000
041225_02.59.15.042,0.43700,-0.33700,-1.04600,-190.62800,-1.76800,-34.42300,-0.63900,0.69300,-0.42000,85.85000,-0.09000
041225_02.59.15.054,0.39600,-0.25800,-1.07500,-201.09200,7.01700,-33.89700,-0.64700,0.68300,-0.39500,85.83000,-0.02000
041225_02.59.15.065,0.38600,-0.14100,-1.08500,-200.63700,11.63700,-34.31800,-0.65100,0.67400,-0.37400,86.50000,0.67000
041225_02.59.15.077,0.25600,0.00400,-1.07000,-200.48000,20.94800,-37.53700,-0.65100,0.67400,-0.37400,86.32000,-0.18000
041225_02.59.15.089,0.25500,0.15300,-1.00900,-199.85000,29.89000,-42.00000,-0.65800,0.66300,-0.35000,85.98000,-0.34000
041225_02.59.15.100,0.27000,0.22200,-0.84900,-198.20500,33.95000,-44.06500,-0.65800,0.64400,-0.33800,86.06000,0.08000
041225_02.59.15.112,0.28200,0.21600,-0.70500,-199.85000,33.56500,-42.94500,-0.66200,0.62700,-0.31800,85.95000,-0.11000
041225_02.59.15.123,0.32600,0.22700,-0.65900,-210.07000,35.66500,-43.80300,-0.67100,0.60400,-0.29700,86.37000,0.42000
041225_02.59.15.135,0.38000,0.28800,-0.65900,-229.81000,40.33800,-50.01500,-0.67100,0.60400,-0.29700,86.53000,0.16000
041225_02.59.15.146,0.42000,0.39800,-0.63300,-255.58700,46.37500,-59.20200,-0.67900,0.56900,-0.28600,86.60000,0.07000
041225_02.59.15.158,0.43200,0.55900,-0.59800,-282.95700,57.48700,-65.99300,-0.68800,0.53900,-0.27100,86.63000,0.03000
041225_02.59.15.169,0.37900,0.69900,-0.57000,-302.89000,70.28000,-69.12500,-0.69700,0.49900,-0.26900,86.57000,-0.06000
041225_02.59.15.181,0.32600,0.83900,-0.56300,-296.59000,88.23500,-69.24700,-0.70500,0.46200,-0.28200,86.15000,-0.42000
041225_02.59.15.192,0.29500,0.99600,-0.41200,-279.68500,97.37000,-68.39000,-0.70500,0.46200,-0.28200,86.38000,0.23000
041225_02.59.15.204,0.28000,0.98200,-0.32100,-262.83200,106.33000,-65.67700,-0.71500,0.42200,-0.29000,86.48000,0.10000
041225_02.59.15.215,0.27100,0.97200,-0.24500,-247.13500,111.09000,-62.44000,-0.72300,0.39500,-0.30600,86.71000,0.23000
041225_02.59.15.227,0.29400,1.01100,-0.13800,-235.27000,110.26800,-59.48300,-0.72400,0.36800,-0.33900,86.27000,-0.44000
041225_02.59.15.238,0.25700,1.04200,0.03400,-228.83000,107.97500,-56.21000,-0.73000,0.34500,-0.36000,86.02000,-0.25000
041225_02.59.15.250,0.14800,1.03000,0.18100,-225.94300,106.33000,-55.17800,-0.73000,0.34500,-0.36000,86.45000,0.43000
041225_02.59.15.261,0.08900,0.92800,0.30600,-229.74000,108.37800,-55.91200,-0.73200,0.32800,-0.38200,86.38000,-0.07000
041225_02.59.15.273,0.06900,0.79300,0.34800,-245.01800,116.90000,-59.79800,-0.73400,0.31100,-0.40900,86.59000,0.21000
041225_02.59.15.284,0.00400,0.71200,0.35000,-268.04800,130.11300,-65.78300,-0.73100,0.29400,-0.44500,86.57000,-0.02000
041225_02.59.15.296,-0.05300,0.67800,0.41600,-291.23500,144.25300,-73.62200,-0.73000,0.28200,-0.48500,86.24000,-0.33000
041225_02.59.15.307,-0.11300,0.71000,0.51900,-305.79500,166.07500,-91.35000,-0.73000,0.28200,-0.48500,86.27000,0.03000
041225_02.59.15.319,-0.21300,0.82800,0.55000,-290.62200,172.48000,-94.71000,-0.72500,0.26900,-0.53000,86.62000,0.35000
041225_02.59.15.330,-0.15600,0.91600,0.65000,-264.00500,170.69500,-96.82700,-0.70800,0.27200,-0.56600,85.49000,-1.13000
041225_02.59.15.342,-0.05300,1.02100,0.77600,-234.11500,166.79200,-94.53500,-0.68900,0.27600,-0.60000,86.96000,1.47000
041225_02.59.15.353,0.27800,1.09700,0.97400,-211.61000,170.78300,-74.84800,-0.67600,0.28300,-0.64200,86.42000,-0.54000
041225_02.59.15.365,-0.10200,0.89300,1.03900,-199.69300,156.45000,-61.47800,-0.67600,0.28300,-0.64200,86.60000,0.18000
041225_02.59.15.376,0.13200,1.00900,1.03700,-167.42300,126.59500,-69.30000,-0.66200,0.28700,-0.66100,86.87000,0.27000
041225_02.59.15.388,-0.00000,0.81600,1.00800,-143.43000,88.51500,-56.57700,-0.64800,0.29700,-0.66700,86.56000,-0.31000
041225_02.59.15.400,-0.16500,0.66800,0.88300,-128.76500,56.14000,-51.90500,-0.64500,0.30100,-0.68600,86.15000,-0.41000
041225_02.59.15.411,-0.24900,0.49900,0.76500,-138.37200,39.76000,-50.94300,-0.64300,0.31900,-0.69200,86.61000,0.46000
041225_02.59.15.423,-0.25300,0.42300,0.65600,-166.05700,41.02000,-42.26300,-0.64300,0.31900,-0.69200,86.88000,0.27000
041225_02.59.15.434,-0.23200,0.48900,0.58400,-199.74500,78.33000,-43.87300,-0.63100,0.33000,-0.69400,85.74000,-1.14000
041225_02.59.15.446,-0.17800,0.66700,0.73200,-185.64000,94.93800,-43.05000,-0.62200,0.34800,-0.70900,86.67000,0.93000
041225_02.59.15.457,-0.15000,0.55900,0.86100,-162.64500,90.19500,-39.77800,-0.61800,0.36000,-0.72400,86.19000,-0.48000
041225_02.59.15.469,-0.19600,0.42000,0.85400,-143.06200,69.02000,-35.40300,-0.60900,0.37000,-0.73500,86.16000,-0.03000
041225_02.59.15.480,-0.33000,0.36700,0.67700,-130.51500,49.52500,-30.41500,-0.60900,0.37000,-0.73500,85.90000,-0.26000
041225_02.59.15.492,-0.40200,0.24900,0.56300,-117.40800,42.07000,-25.55000,-0.60700,0.39000,-0.73600,86.63000,0.73000
041225_02.59.15.503,-0.35300,0.23400,0.57000,-106.73200,41.59700,-21.10500,-0.59700,0.39800,-0.74400,86.22000,-0.41000
041225_02.59.15.515,-0.40000,0.23200,0.56200,-111.19500,43.24300,-11.42700,-0.59700,0.41500,-0.74800,86.59000,0.37000
041225_02.59.15.526,-0.42300,0.21800,0.53100,-103.30200,48.26500,-6.52800,-0.58700,0.43000,-0.75100,85.68000,-0.91000
041225_02.59.15.538,-0.47000,0.10500,0.58900,-96.49500,46.97000,-5.12800,-0.58700,0.43000,-0.75100,86.57000,0.89000
041225_02.59.15.549,-0.55500,0.01600,0.62300,-92.15500,38.69300,-0.71800,-0.58000,0.44400,-0.75300,85.72000,-0.85000
041225_02.59.15.561,-0.64800,-0.06500,0.56900,-89.65300,40.16200,0.78800,-0.57500,0.45800,-0.75800,85.89000,0.17000
041225_02.59.15.572,-0.72800,-0.16900,0.65400,-95.18300,47.02200,-2.53700,-0.56400,0.46600,-0.75900,86.34000,0.45000
041225_02.59.15.584,-0.69900,-0.14600,0.57900,-108.01000,53.32200,-7.43700,-0.55600,0.48200,-0.75900,86.23000,-0.11000
041225_02.59.15.596,-0.66900,-0.10300,0.47500,-111.82500,56.28000,-10.37700,-0.55600,0.48200,-0.75900,86.58000,0.35000
041225_02.59.15.607,-0.67700,-0.12000,0.51600,-101.60500,56.78700,-10.85000,-0.54700,0.50100,-0.76000,86.05000,-0.53000
041225_02.59.15.619,-0.74300,-0.24200,0.61100,-84.52500,51.41500,-10.36000,-0.53500,0.51200,-0.76300,86.68000,0.63000
041225_02.59.15.630,-0.82300,-0.32500,0.65500,-68.30200,37.27500,-12.60000,-0.53200,0.52700,-0.76700,86.30000,-0.38000
041225_02.59.15.642,-0.88100,-0.35900,0.67500,-55.91200,20.54500,-18.98700,-0.52500,0.53300,-0.77000,86.39000,0.09000
041225_02.59.15.653,-0.91000,-0.38400,0.67600,-55.91200,10.48300,-27.42300,-0.52500,0.53300,-0.77000,86.22000,-0.17000
041225_02.59.15.665,-0.86700,-0.36400,0.60800,-68.46000,7.00000,-35.38500,-0.52600,0.54000,-0.75900,86.26000,0.04000
041225_02.59.15.676,-0.76000,-0.32300,0.54800,-75.58200,6.54500,-45.53500,-0.52900,0.54900,-0.76200,87.40000,1.14000
041225_02.59.15.688,-0.70600,-0.22600,0.63100,-50.85500,0.78800,-40.96700,-0.53300,0.54900,-0.75300,86.57000,-0.83000
041225_02.59.15.699,-0.53400,-0.21700,0.72000,-40.07500,-11.81300,-33.96700,-0.53400,0.55200,-0.74800,86.58000,0.01000
041225_02.59.15.711,-0.48300,-0.19300,0.77000,-25.35800,-33.70500,-25.72500,-0.53400,0.55200,-0.74800,86.01000,-0.57000
041225_02.59.15.722,-0.46400,-0.17800,0.75100,-4.70700,-62.51000,-15.05000,-0.53900,0.55600,-0.74000,86.46000,0.45000
041225_02.59.15.734,-0.44300,-0.22000,0.73700,16.25700,-91.26200,-0.56000,-0.55400,0.55700,-0.73400,87.02000,0.56000
041225_02.59.15.745,-0.39400,-0.24600,0.69900,32.69000,-113.97800,13.35200,-0.56500,0.55300,-0.73000,86.33000,-0.69000
041225_02.59.15.757,-0.32200,-0.17800,0.58600,47.09200,-126.28000,22.01500,-0.57900,0.55400,-0.71800,86.89000,0.56000
041225_02.59.15.769,-0.17800,-0.15200,0.55100,66.08000,-127.73200,24.29000,-0.57900,0.55400,-0.71800,86.08000,-0.81000
041225_02.59.15.780,-0.03300,-0.09400,0.56500,86.87000,-126.99700,24.25500,-0.58700,0.54800,-0.70700,86.92000,0.84000
041225_02.59.15.792,0.00800,-0.00500,0.61600,108.15000,-129.78000,26.07500,-0.59900,0.54100,-0.70000,85.63000,-1.29000
041225_02.59.15.804,-0.02300,0.08600,0.66100,149.20500,-142.29200,40.02200,-0.61100,0.53800,-0.69100,86.33000,0.70000
041225_02.59.15.816,-0.11100,0.08300,0.78100,169.96000,-148.36500,48.51000,-0.62000,0.52900,-0.68100,86.69000,0.36000
041225_02.59.15.827,-0.20400,0.14400,0.90500,192.13300,-154.92800,51.01300,-0.62000,0.52900,-0.68100,86.41000,-0.28000
041225_02.59.15.839,-0.29100,0.19500,1.01800,213.69300,-158.76000,48.49300,-0.62900,0.51500,-0.67700,86.48000,0.07000
041225_02.59.15.850,-0.35000,0.23500,1.06600,230.26500,-160.75500,37.94000,-0.64500,0.50800,-0.67500,86.36000,-0.12000
041225_02.59.15.862,-0.35000,0.27500,1.08800,240.03000,-158.37500,22.57500,-0.65300,0.48400,-0.66600,86.61000,0.25000
041225_02.59.15.874,-0.34400,0.29700,1.10500,244.38700,-151.25300,5.96800,-0.66700,0.45800,-0.65700,86.29000,-0.32000
041225_02.59.15.886,-0.32500,0.33100,1.08800,245.77000,-143.04500,-12.72200,-0.66700,0.45800,-0.65700,86.52000,0.23000
041225_02.59.15.897,-0.31600,0.34900,1.14800,246.08500,-133.96200,-31.92000,-0.68100,0.42400,-0.64700,86.10000,-0.42000
041225_02.59.15.909,0.16300,-0.91000,3.35500,213.60500,-149.92300,-60.39300,-0.69000,0.38600,-0.62200,86.32000,0.22000
041225_02.59.15.921,-0.58200,0.02300,1.83500,126.66500,-208.56500,-79.01200,-0.71100,0.37200,-0.60200,86.25000,-0.07000
041225_02.59.15.933,-0.46100,0.18100,1.03900,67.84800,-20.66700,-21.61200,-0.71000,0.35800,-0.60300,85.90000,-0.35000
041225_02.59.15.944,0.04600,0.59200,1.04500,32.84700,2.66000,-16.59000,-0.71000,0.35800,-0.60300,86.50000,0.60000
041225_02.59.15.956,0.05100,0.55800,1.15400,35.73500,-13.03800,-21.63000,-0.71200,0.35100,-0.59500,86.83000,0.33000
041225_02.59.15.968,0.02700,0.51000,1.01400,50.89000,-20.38800,-19.30200,-0.71600,0.34700,-0.58900,86.12000,-0.71000
041225_02.59.15.979,0.08100,0.59000,0.87100,63.45500,-14.42000,-18.88200,-0.71700,0.33800,-0.59100,86.83000,0.71000
041225_02.59.15.991,0.14800,0.65300,0.83900,76.14300,-8.15500,-24.90300,-0.71800,0.32700,-0.58700,86.44000,-0.39000
041225_02.59.16.003,0.10000,0.67300,0.78800,83.96500,2.87000,-27.96500,-0.71800,0.32700,-0.58700,86.69000,0.25000
041225_02.59.16.014,0.03600,0.69600,0.74200,83.86000,21.47200,-22.82000,-0.71500,0.31800,-0.59200,86.27000,-0.42000
041225_02.59.16.026,0.07100,0.69200,0.70800,82.02200,35.59500,-11.93500,-0.71800,0.31300,-0.58700,86.13000,-0.14000
041225_02.59.16.038,0.24900,0.80200,0.70100,78.19000,41.10800,1.97700,-0.71000,0.31100,-0.59800,86.56000,0.43000
041225_02.59.16.049,0.32700,0.89200,0.67800,70.56000,34.44000,19.81000,-0.71300,0.30700,-0.59800,86.96000,0.40000
041225_02.59.16.061,0.37900,0.92200,0.59500,50.15500,-14.84000,53.18200,-0.71300,0.30700,-0.59800,85.98000,-0.98000
041225_02.59.16.073,0.18700,0.78300,0.62800,33.19700,-20.42300,60.11200,-0.71100,0.31300,-0.59300,86.32000,0.34000
041225_02.59.16.085,0.16600,0.79200,0.71600,28.35000,-10.67500,53.18200,-0.71200,0.32700,-0.58500,85.72000,-0.60000
041225_02.59.16.096,0.09900,0.78600,0.79000,31.99000,-0.03500,45.20200,-0.71400,0.32800,-0.58500,85.92000,0.20000
041225_02.59.16.108,0.02900,0.82500,0.81900,41.82500,7.75300,32.39300,-0.71700,0.32800,-0.58500,86.50000,0.58000
041225_02.59.16.119,0.00100,0.82700,0.86800,52.29000,14.38500,19.47800,-0.71700,0.32800,-0.58500,86.58000,0.08000
041225_02.59.16.131,-0.00300,0.96100,0.74400,58.55500,17.86800,10.60500,-0.71900,0.32600,-0.58400,85.88000,-0.70000
041225_02.59.16.143,0.17600,0.94000,0.96100,73.22000,20.49300,1.73200,-0.71500,0.31900,-0.58200,86.65000,0.77000
041225_02.59.16.154,0.22300,1.00700,0.97500,85.24300,5.60000,-6.30000,-0.71400,0.31400,-0.57700,85.69000,-0.96000
041225_02.59.16.166,0.17400,1.08700,0.85500,103.95000,-17.08000,-11.91800,-0.71400,0.30100,-0.56600,86.60000,0.91000
041225_02.59.16.177,0.12400,1.18000,0.71400,132.72000,-37.48500,-25.83000,-0.71400,0.30100,-0.56600,86.38000,-0.22000
041225_02.59.16.189,0.03800,1.24300,0.00000,199.65800,-44.80000,-24.85000,-0.71800,0.29200,-0.54700,86.27000,-0.11000
041225_02.59.16.200,0.28300,1.00800,0.87600,234.36000,-22.97800,-24.58700,-0.71800,0.27700,-0.52500,86.38000,0.11000
041225_02.59.16.212,0.19600,0.99400,0.75400,226.88700,-47.49500,-19.04000,-0.72200,0.26500,-0.50900,86.67000,0.29000
041225_02.59.16.223,0.01100,1.21500,0.40100,211.22500,-61.53000,-4.16500,-0.71800,0.26600,-0.47700,86.02000,-0.65000
041225_02.59.16.235,0.00300,1.44100,0.25100,210.54200,-55.19500,9.85200,-0.71800,0.26600,-0.47700,86.31000,0.29000
041225_02.59.16.246,0.03100,1.49800,0.22200,230.09000,-47.39000,20.56200,-0.72500,0.26600,-0.45300,86.06000,-0.25000
041225_02.59.16.258,0.02600,1.16700,0.22200,255.79800,-49.61200,25.53200,-0.72400,0.28000,-0.42300,86.57000,0.51000
041225_02.59.16.269,-0.17000,0.94000,0.03000,264.14500,-55.98300,14.82300,-0.72700,0.29300,-0.39800,86.60000,0.03000
041225_02.59.16.280,-0.28400,0.91200,-0.06800,267.96000,-47.07500,4.72500,-0.72700,0.30600,-0.38400,85.49000,-1.11000
041225_02.59.16.292,-0.23800,0.81000,-0.17700,275.94000,-29.41700,-5.26700,-0.72700,0.30600,-0.38400,86.02000,0.53000
041225_02.59.16.304,-0.24500,0.69000,-0.32600,289.46700,1.43500,-48.51000,-0.72200,0.31800,-0.35700,85.64000,-0.38000
041225_02.59.16.315,-0.22100,0.63000,-0.47400,320.54800,16.24000,-66.58800,-0.72400,0.32400,-0.35700,86.60000,0.96000
041225_02.59.16.327,-0.03400,0.67400,-0.47000,325.13300,32.79500,-72.15300,-0.72700,0.33100,-0.34500,85.58000,-1.02000
041225_02.59.16.339,-0.06600,0.67500,-0.43800,324.52000,51.39700,-70.33200,-0.72700,0.33900,-0.35000,86.41000,0.83000
041225_02.59.16.351,-0.09500,0.77400,-0.48500,321.94800,71.05000,-71.66200,-0.72700,0.33900,-0.35000,86.58000,0.17000
041225_02.59.16.362,-0.01100,0.86300,-0.53600,318.09800,93.53700,-68.82700,-0.73400,0.34700,-0.35700,86.92000,0.34000
041225_02.59.16.374,0.06300,0.81500,-0.46700,307.14200,112.78700,-55.16000,-0.73300,0.35300,-0.36900,86.45000,-0.47000
041225_02.59.16.386,0.05000,0.59500,-0.27300,294.75300,122.08000,-43.52200,-0.74100,0.36700,-0.38300,85.89000,-0.56000
041225_02.59.16.398,0.00100,0.62700,-0.26700,280.12200,126.78700,-37.20500,-0.74700,0.37200,-0.39900,86.56000,0.67000
041225_02.59.16.409,-0.01700,0.51400,-0.14000,264.49500,132.09000,-24.37800,-0.74700,0.37200,-0.39900,86.01000,-0.55000
041225_02.59.16.421,-0.02700,0.34500,-0.04400,244.09000,137.81200,-12.60000,-0.75000,0.37900,-0.42900,86.21000,0.20000
041225_02.59.16.433,-0.00900,0.15200,0.01800,204.59200,134.20800,0.77000,-0.75000,0.38600,-0.46600,86.54000,0.33000
041225_02.59.16.445,0.14500,-0.17000,-0.02300,188.05500,125.91200,6.14200,-0.74600,0.38300,-0.48000,86.33000,-0.21000
041225_02.59.16.456,0.24700,-0.26400,-0.08100,181.16000,113.33000,13.89500,-0.74500,0.38200,-0.50800,86.45000,0.12000
041225_02.59.16.468,0.32000,-0.35200,-0.13100,187.40800,96.14500,25.44500,-0.74500,0.38200,-0.50800,86.06000,-0.39000
041225_02.59.16.480,0.37400,-0.47200,-0.15400,198.76500,81.70700,36.69700,-0.74100,0.37900,-0.52500,86.87000,0.81000
041225_02.59.16.491,0.44000,-0.57600,-0.39600,202.17800,68.84500,41.68500,-0.74300,0.38400,-0.53800,86.11000,-0.76000
041225_02.59.16.503,0.59500,-0.52700,-0.86000,187.65200,66.64000,46.42800,-0.74200,0.38200,-0.54600,86.47000,0.36000
041225_02.59.16.515,0.72800,-0.33900,-0.79800,150.62200,78.82000,54.07500,-0.73400,0.38600,-0.55900,85.79000,-0.68000
041225_02.59.16.527,0.68700,-0.66200,-0.58200,140.57700,60.74300,51.66000,-0.73400,0.38600,-0.55900,85.87000,0.08000
041225_02.59.16.538,0.64400,-0.71200,-0.34000,145.72300,17.95500,41.17800,-0.73800,0.38300,-0.55900,86.14000,0.27000
041225_02.59.16.550,0.89100,-0.70300,-0.13900,147.31500,-26.75700,41.44000,-0.73900,0.37700,-0.54700,86.10000,-0.04000
041225_02.59.16.562,1.10500,-0.79800,-0.25300,116.18300,-58.59000,34.58000,-0.74000,0.37400,-0.53200,86.41000,0.31000
041225_02.59.16.573,0.72100,-0.92200,-0.84000,97.84200,-21.75300,14.54300,-0.75100,0.37200,-0.52700,85.84000,-0.57000
041225_02.59.16.585,0.67100,-0.97000,-0.71200,85.64500,-1.45200,-4.00800,-0.75100,0.37200,-0.52700,86.04000,0.20000
041225_02.59.16.596,0.65800,-0.92100,-0.49200,79.22300,-3.34200,-19.40700,-0.74400,0.36300,-0.52600,86.19000,0.15000
041225_02.59.16.608,0.68900,-0.93100,-0.18000,91.40300,-7.42000,-32.90000,-0.74400,0.35000,-0.51500,86.12000,-0.07000
041225_02.59.16.619,0.70800,-0.91400,-0.08800,90.44000,-18.44500,-40.02200,-0.73200,0.32400,-0.51000,86.40000,0.28000
041225_02.59.16.631,0.55300,-0.85500,-0.17200,79.87000,-39.53300,-40.07500,-0.73000,0.31000,-0.49000,86.70000,0.30000
041225_02.59.16.642,0.49900,-0.85200,-0.22100,66.95500,-53.09500,-40.67000,-0.73000,0.31000,-0.49000,86.17000,-0.53000
041225_02.59.16.654,0.45500,-0.74800,-0.40200,60.09500,-67.41000,-40.86200,-0.73500,0.30500,-0.47300,85.73000,-0.44000
041225_02.59.16.665,0.42500,-0.76500,-0.63700,58.08300,-70.94500,-37.29200,-0.73300,0.29900,-0.45800,86.27000,0.54000
041225_02.59.16.677,0.48200,-0.86000,-0.75000,59.78000,-59.79800,-32.28700,-0.73200,0.29600,-0.44300,86.35000,0.08000
041225_02.59.16.688,0.55200,-1.07800,-0.60800,55.89500,-14.85800,-32.74300,-0.73500,0.29000,-0.43300,86.18000,-0.17000
041225_02.59.16.700,0.71900,-0.74800,-0.71000,53.79500,1.62800,-35.71700,-0.73500,0.29000,-0.43300,85.87000,-0.31000
041225_02.59.16.711,0.60900,-0.77300,-0.58600,51.76500,13.05500,-34.02000,-0.73600,0.29000,-0.43100,86.79000,0.92000
041225_02.59.16.723,0.52900,-0.84200,-0.46200,47.67000,21.49000,-29.36500,-0.73300,0.28900,-0.43200,86.35000,-0.44000
041225_02.59.16.734,0.50200,-0.85200,-0.44300,48.42300,22.99500,-27.52800,-0.73500,0.29100,-0.43600,87.32000,0.97000
041225_02.59.16.746,0.49800,-0.84900,-0.46100,54.14500,22.43500,-29.41700,-0.73700,0.28600,-0.43100,86.27000,-1.05000
041225_02.59.16.757,0.53800,-0.82100,-0.43200,58.22200,20.12500,-31.37800,-0.73700,0.28600,-0.43100,86.40000,0.13000
041225_02.59.16.769,0.57000,-0.72100,-0.39400,56.24500,14.08700,-28.75300,-0.74000,0.29100,-0.42700,86.63000,0.23000
041225_02.59.16.780,-0.63100,0.03700,-1.83500,53.74300,23.81700,-20.30000,-0.74800,0.29100,-0.43600,86.08000,-0.55000
041225_02.59.16.792,1.12000,-0.87400,-0.04700,43.50500,92.52200,11.21700,-0.74900,0.29800,-0.44900,85.73000,-0.35000
041225_02.59.16.804,0.26200,-1.00800,-0.21400,29.47000,60.09500,24.02800,-0.75400,0.30600,-0.45100,85.81000,0.08000
041225_02.59.16.815,0.10300,-0.96100,-0.57600,21.94500,7.05300,2.10000,-0.75400,0.30600,-0.45100,86.03000,0.22000
041225_02.59.16.827,0.48100,-0.76500,-0.52300,11.51500,2.80000,-9.55500,-0.75700,0.30700,-0.44800,86.68000,0.65000
041225_02.59.16.838,0.46300,-0.86500,-0.50300,7.14000,-2.64200,-26.33700,-0.75800,0.30800,-0.45100,85.70000,-0.98000
041225_02.59.16.850,0.52700,-0.90900,-0.52300,5.39000,-9.67700,-45.11500,-0.75500,0.29900,-0.44200,86.24000,0.54000
041225_02.59.16.861,0.58200,-0.89000,-0.55300,1.94200,-10.37700,-58.67800,-0.75100,0.28400,-0.44300,86.36000,0.12000
041225_02.59.16.873,0.59500,-0.90300,-0.48200,5.00500,-8.41800,-68.95000,-0.75100,0.28400,-0.44300,85.89000,-0.47000
041225_02.59.16.884,0.61200,-0.86400,-0.46300,5.16200,-8.82000,-79.52000,-0.74800,0.26900,-0.43700,86.02000,0.13000
041225_02.59.16.896,0.65800,-0.88900,-0.54000,2.66000,-9.25700,-91.31500,-0.74500,0.25600,-0.44200,86.49000,0.47000
041225_02.59.16.907,0.70100,-0.79500,-0.53300,1.33000,-6.65000,-104.16000,-0.73900,0.23100,-0.44100,85.53000,-0.96000
041225_02.59.16.919,0.68500,-0.67700,-0.53800,-1.90800,1.41800,-121.94000,-0.72400,0.20100,-0.44000,86.57000,1.04000
041225_02.59.16.930,0.61400,-0.66000,-0.45800,-0.99800,2.50300,-166.26800,-0.72400,0.20100,-0.44000,86.56000,-0.01000
041225_02.59.16.942,0.50900,-0.63300,-0.28900,0.08700,9.13500,-183.19000,-0.70500,0.16100,-0.44400,85.34000,-1.22000
041225_02.59.16.953,0.60500,-0.48100,-0.23200,-5.81000,18.23500,-190.45200,-0.68500,0.12600,-0.43800,85.70000,0.36000
041225_02.59.16.965,0.79900,-0.51800,-0.21100,-13.45800,24.48300,-190.24300,-0.66200,0.09300,-0.44700,86.59000,0.89000
041225_02.59.16.976,0.96900,-0.24900,-0.26500,-20.96500,27.02000,-183.90800,-0.63500,0.06000,-0.44400,86.59000,0.00000
041225_02.59.16.988,0.99100,-0.05400,-0.42600,-18.83000,26.67000,-172.69000,-0.63500,0.06000,-0.44400,86.41000,-0.18000
041225_02.59.16.999,0.97900,-0.06800,-0.46700,-9.45000,30.27500,-159.96700,-0.61000,0.03600,-0.45600,86.01000,-0.40000
041225_02.59.17.011,0.91500,0.11700,-0.43500,0.70000,35.52500,-149.04800,-0.59100,0.01300,-0.45800,86.36000,0.35000
041225_02.59.17.023,1.15900,-0.52700,-0.24800,-0.10500,41.65000,-152.07500,-0.56500,-0.00800,-0.46100,86.07000,-0.29000
041225_02.59.17.034,1.69400,-0.65200,0.03300,-15.87300,39.55000,-133.91000,-0.54500,-0.02500,-0.46400,86.55000,0.48000
041225_02.59.17.046,1.32500,-0.00100,-0.29500,-32.21700,30.66000,-108.51800,-0.54500,-0.02500,-0.46400,86.61000,0.06000
041225_02.59.17.057,1.14100,0.35900,-0.35100,-6.37000,14.10500,-91.87500,-0.52700,-0.03300,-0.47200,85.76000,-0.85000
041225_02.59.17.069,1.08500,0.13900,-0.14800,-1.06700,5.81000,-94.60500,-0.50700,-0.03800,-0.47700,85.78000,0.02000
041225_02.59.17.080,0.66000,0.08700,-0.19100,-5.81000,4.91800,-103.86300,-0.49100,-0.05200,-0.48200,86.52000,0.74000
041225_02.59.17.092,0.69500,0.13200,-0.22000,-15.13700,11.53300,-121.53700,-0.46700,-0.06000,-0.48700,86.07000,-0.45000
041225_02.59.17.103,0.84000,0.27200,-0.26600,-23.13500,15.71500,-135.45000,-0.46700,-0.06000,-0.48700,86.68000,0.61000
041225_02.59.17.115,0.93500,0.25500,-0.26500,-27.68500,14.73500,-143.67500,-0.44000,-0.07000,-0.49200,85.78000,-0.90000
041225_02.59.17.126,0.94700,0.29200,-0.28200,-25.34000,6.94800,-148.92500,-0.40900,-0.07600,-0.49500,86.59000,0.81000
041225_02.59.17.138,0.90500,0.32500,-0.38700,-12.79300,-3.83200,-154.19300,-0.37900,-0.08600,-0.49700,85.68000,-0.91000
041225_02.59.17.150,0.95800,0.36100,-0.39700,-2.34500,-13.05500,-162.33000,-0.34300,-0.09300,-0.49400,86.03000,0.35000
041225_02.59.17.161,0.94700,0.36400,-0.34300,0.71800,-20.65000,-164.11500,-0.34300,-0.09300,-0.49400,85.80000,-0.23000
041225_02.59.17.173,0.99300,0.36900,-0.27300,-2.50300,-19.74000,-157.02700,-0.31400,-0.09400,-0.49300,86.10000,0.30000
041225_02.59.17.184,1.02400,0.38400,-0.22400,-14.07000,-11.88200,-117.47800,-0.28300,-0.09500,-0.49200,86.46000,0.36000
041225_02.59.17.196,1.12200,0.50500,-0.19300,-26.07500,-10.23800,-101.93800,-0.26300,-0.09400,-0.49500,86.32000,-0.14000
041225_02.59.17.207,0.91200,0.47700,-0.21400,-41.59700,-16.38000,-73.43000,-0.24200,-0.09500,-0.51000,86.36000,0.04000
041225_02.59.17.219,0.63900,0.59100,-0.09800,-59.62300,-21.57700,-42.42000,-0.24200,-0.09500,-0.51000,86.49000,0.13000
041225_02.59.17.231,0.26500,0.74800,0.10100,-64.10300,-38.51800,-14.10500,-0.23200,-0.08500,-0.52000,86.13000,-0.36000
041225_02.59.17.242,0.96400,0.35600,-0.19800,-59.01000,-62.42300,-0.35000,-0.23400,-0.08100,-0.53200,86.46000,0.33000
041225_02.59.17.254,0.92500,0.41000,-0.53000,-43.78500,-49.03500,-64.05000,-0.21800,-0.08200,-0.54300,86.42000,-0.04000
041225_02.59.17.265,0.72300,0.15500,-0.36600,-49.57700,-21.66500,-134.75000,-0.19200,-0.07000,-0.54400,86.52000,0.10000
041225_02.59.17.277,0.41100,0.09200,-0.30700,-50.89000,-2.59000,-155.82000,-0.19200,-0.07000,-0.54400,86.38000,-0.14000
041225_02.59.17.288,0.39700,0.17400,-0.26400,-53.72500,9.78300,-179.74300,-0.16800,-0.06000,-0.55700,86.25000,-0.13000
041225_02.59.17.300,0.54000,0.52200,-0.26000,-69.26500,15.55700,-210.38500,-0.12300,-0.04100,-0.56300,86.44000,0.19000
041225_02.59.17.311,0.70700,0.92800,-0.18400,-68.37200,10.57000,-216.45800,-0.08000,-0.02000,-0.57800,86.47000,0.03000
041225_02.59.17.323,0.54700,0.64600,-0.07400,-65.13500,13.05500,-204.89000,-0.05000,0.00700,-0.58300,86.45000,-0.02000
041225_02.59.17.334,0.45100,0.75300,-0.05400,-63.38500,16.64200,-188.98200,-0.05000,0.00700,-0.58300,86.23000,-0.22000
041225_02.59.17.346,0.69300,1.55600,-0.21400,-59.02800,18.34000,-164.39500,-0.01300,0.03600,-0.58800,86.35000,0.12000
041225_02.59.17.358,0.38000,1.47800,0.06800,-44.81800,10.32500,-128.01200,0.01400,0.04800,-0.59300,86.23000,-0.12000
041225_02.59.17.369,0.19200,1.13100,0.05100,-37.04800,8.31300,-104.28300,0.03300,0.07100,-0.59200,85.90000,-0.33000
041225_02.59.17.380,0.15200,0.88800,-0.00000,-34.10800,13.19500,-104.63200,0.04400,0.09000,-0.59300,86.43000,0.53000
041225_02.59.17.392,-0.01400,0.71300,-0.03400,-22.01500,5.81000,-125.31700,0.04400,0.09000,-0.59300,86.28000,-0.15000
041225_02.59.17.404,0.02700,0.75400,0.00900,-6.89500,-10.34200,-152.89800,0.05900,0.11400,-0.60300,87.09000,0.81000
041225_02.59.17.415,0.01600,0.64400,0.05700,-4.63700,-26.63500,-172.04200,0.07900,0.13600,-0.60900,86.12000,-0.97000
041225_02.59.17.427,0.02100,0.69900,-0.00600,-22.20800,-28.38500,-189.61300,0.09900,0.16800,-0.60400,86.42000,0.30000
041225_02.59.17.438,0.05100,0.96400,-0.06900,-43.99500,-19.32000,-191.45000,0.11700,0.21100,-0.61300,86.47000,0.05000
041225_02.59.17.450,-0.24300,0.98200,0.10900,-45.58800,-23.92300,-197.71500,0.11700,0.21100,-0.61300,85.97000,-0.50000
041225_02.59.17.461,-0.33200,0.79400,0.24400,-53.60300,-35.31500,-215.49500,0.12700,0.24800,-0.62200,85.93000,-0.04000
041225_02.59.17.473,-0.12700,0.98100,0.01600,-68.67000,-37.80000,-230.26500,0.13700,0.29900,-0.62500,86.55000,0.62000
041225_02.59.17.484,0.02800,1.07300,-0.03900,-71.68000,-30.18700,-225.80300,0.14300,0.34700,-0.62800,86.85000,0.30000
041225_02.59.17.496,0.01300,1.01700,0.02300,-69.02000,-18.48000,-209.94700,0.14600,0.39200,-0.64100,86.80000,-0.05000
041225_02.59.17.507,-0.19500,0.97500,0.09400,-70.84000,-9.66000,-192.74500,0.14600,0.39200,-0.63600,86.24000,-0.56000
041225_02.59.17.519,-0.37400,1.00600,0.09800,-75.84500,-8.89000,-180.23200,0.13400,0.42700,-0.63600,86.51000,0.27000
041225_02.59.17.530,-0.82400,1.14400,0.27900,-76.65000,-15.29500,-174.45800,0.13500,0.47000,-0.63400,86.33000,-0.18000
041225_02.59.17.542,-1.22600,0.93000,0.46000,-68.79300,-24.09700,-164.90200,0.12700,0.50500,-0.64800,86.14000,-0.19000
041225_02.59.17.553,-0.81700,0.65700,0.50100,-65.04800,-20.28200,-145.53000,0.11000,0.53600,-0.64000,87.15000,1.01000
041225_02.59.17.565,-0.45600,0.55200,0.19100,-89.56500,-21.43700,-124.28500,0.11000,0.53600,-0.63400,85.92000,-1.23000
041225_02.59.17.576,-0.65700,0.69700,0.02800,-88.32300,-23.85300,-100.81700,0.09800,0.56100,-0.63400,86.15000,0.23000
041225_02.59.17.588,-0.65600,0.68300,-0.01800,-74.04300,-26.25000,-87.62200,0.08400,0.58200,-0.63900,86.35000,0.20000
041225_02.59.17.599,-0.50600,0.67900,-0.06100,-55.38800,-31.25500,-76.19500,0.07400,0.60700,-0.63600,85.98000,-0.37000
041225_02.59.17.611,-0.44200,0.59300,0.00700,-37.39700,-31.93700,-60.23500,0.06500,0.61800,-0.64300,86.53000,0.55000
041225_02.59.17.622,-0.58100,0.63300,0.14900,-25.95200,-26.39000,-47.40800,0.06500,0.61800,-0.64400,86.53000,0.00000
041225_02.59.17.634,-0.82700,0.65900,0.14500,-24.25500,-16.92300,-36.27800,0.06000,0.62600,-0.64400,86.98000,0.45000
041225_02.59.17.646,-0.61900,0.56600,0.11200,-22.52300,-6.52800,-30.06500,0.05600,0.63200,-0.64900,86.12000,-0.86000
041225_02.59.17.657,-0.54800,0.41800,0.48300,-10.32500,2.57200,-17.99000,0.05400,0.63600,-0.64400,85.85000,-0.27000
041225_02.59.17.668,-0.70800,0.39500,0.52000,-20.87800,-1.92500,-10.79700,0.05100,0.63900,-0.64100,86.69000,0.84000
041225_02.59.17.680,-0.84500,0.50900,0.43100,-24.81500,-9.52000,-21.45500,0.05100,0.63900,-0.63800,85.42000,-1.27000
041225_02.59.17.691,-0.97000,0.86900,0.45500,-8.85500,-6.14200,-37.99300,0.05000,0.64500,-0.63800,86.22000,0.80000
041225_02.59.17.703,-1.02200,0.76600,0.62800,-1.34700,1.27800,-59.08000,0.04600,0.65400,-0.63900,86.20000,-0.02000
041225_02.59.17.714,-0.89600,0.49900,0.51300,0.26200,9.06500,-83.42300,0.03700,0.66400,-0.64300,86.01000,-0.19000
041225_02.59.17.726,-0.77700,0.40100,0.30700,5.04000,14.92700,-100.46700,0.02200,0.68200,-0.63800,85.98000,-0.03000
041225_02.59.17.737,-0.73900,0.29000,0.44000,8.69800,21.05200,-102.83000,0.02200,0.68200,-0.63300,86.49000,0.51000
041225_02.59.17.749,-0.67100,0.28300,0.29600,2.69500,21.35000,-93.48500,0.00800,0.70000,-0.63300,86.22000,-0.27000
041225_02.59.17.760,-0.62800,0.40300,0.30300,-3.48300,17.55200,-84.08800,-0.00600,0.70800,-0.63100,86.86000,0.64000
041225_02.59.17.772,-0.67500,0.49400,0.27900,-15.68000,16.76500,-71.66200,-0.01300,0.71700,-0.62700,86.07000,-0.79000
041225_02.59.17.783,-0.78300,0.32200,0.34300,-25.53200,17.22000,-62.09000,-0.01900,0.72500,-0.62500,85.42000,-0.65000
041225_02.59.17.795,-0.78100,0.15600,0.38600,-37.71300,17.92000,-73.88500,-0.01900,0.72500,-0.61600,86.07000,0.65000
041225_02.59.17.806,-0.88600,0.54500,0.30000,-50.43500,18.11200,-88.18300,-0.03500,0.74400,-0.61600,86.37000,0.30000
041225_02.59.17.818,-0.80500,0.21800,0.35900,-54.02200,16.59000,-89.42500,-0.04300,0.75300,-0.61300,86.13000,-0.24000
041225_02.59.17.829,-0.92700,0.14200,0.36400,-60.09500,15.50500,-89.09200,-0.05700,0.76500,-0.60600,85.79000,-0.34000
041225_02.59.17.841,-0.88100,0.06100,0.33500,-60.25200,15.96000,-88.55000,-0.06900,0.78000,-0.59500,86.36000,0.57000
041225_02.59.17.853,-0.92700,0.06700,0.29900,-59.04500,19.26700,-91.64700,-0.06900,0.78000,-0.58500,86.41000,0.05000
041225_02.59.17.864,-1.05500,-0.06000,0.28900,-55.79000,25.06000,-85.55800,-0.08500,0.79200,-0.58500,86.26000,-0.15000
041225_02.59.17.876,-0.94800,-0.14800,0.30300,-51.04800,21.64800,-76.42300,-0.09700,0.80100,-0.57600,86.41000,0.15000
041225_02.59.17.888,-0.95400,-0.13300,0.36100,-45.79800,20.70200,-73.69200,-0.11000,0.80600,-0.56900,85.94000,-0.47000
041225_02.59.17.899,-0.90000,-0.19600,0.35700,-41.58000,23.01300,-75.63500,-0.12200,0.82000,-0.55700,86.51000,0.57000
041225_02.59.17.911,-1.08100,-0.12200,0.30000,-37.71300,26.09300,-81.77800,-0.12200,0.82700,-0.55000,85.31000,-1.20000
041225_02.59.17.923,-1.15400,-0.16700,0.29800,-38.15000,29.34700,-71.57500,-0.14000,0.82700,-0.55000,86.73000,1.42000
041225_02.59.17.934,-1.05000,-0.14700,0.32100,-37.67800,24.99000,-50.71500,-0.14500,0.83000,-0.55100,86.50000,-0.23000
041225_02.59.17.946,-1.01200,-0.15500,0.27400,-35.35000,24.04500,-53.13000,-0.14900,0.83800,-0.54500,85.50000,-1.00000
041225_02.59.17.958,-1.01900,-0.10500,0.23800,-36.01500,20.51000,-56.87500,-0.16300,0.83800,-0.53700,86.06000,0.56000
041225_02.59.17.970,-0.99900,-0.15400,0.21300,-34.35300,21.05200,-60.79500,-0.16300,0.84800,-0.53600,86.05000,-0.01000
041225_02.59.17.982,-1.01200,-0.20600,0.18800,-32.13000,22.47000,-61.46000,-0.17100,0.84800,-0.53600,86.50000,0.45000
041225_02.59.17.994,-1.02600,-0.30700,0.20000,-30.97500,24.15000,-59.55300,-0.18700,0.84900,-0.52500,86.17000,-0.33000
041225_02.59.18.005,-0.99400,-0.36000,0.20600,-29.64500,23.27500,-62.09000,-0.19600,0.85400,-0.52800,86.63000,0.46000
041225_02.59.18.017,-0.97200,-0.34900,0.16900,-27.98300,21.59500,-65.60700,-0.21200,0.86200,-0.51900,86.45000,-0.18000
041225_02.59.18.029,-1.00400,-0.33500,0.11000,-28.26300,22.38200,-64.19000,-0.21200,0.86200,-0.51900,86.43000,-0.02000
041225_02.59.18.041,-0.98300,-0.38200,0.07700,-27.35300,19.18000,-57.50500,-0.22600,0.86200,-0.51900,86.72000,0.29000
041225_02.59.18.052,-1.03600,-0.37800,0.05000,-26.77500,13.77300,-49.87500,-0.23500,0.86100,-0.50900,86.05000,-0.67000
041225_02.59.18.064,-1.00600,-0.38300,0.04700,-20.82500,13.38700,-39.16500,-0.24800,0.86800,-0.50100,86.16000,0.11000
041225_02.59.18.076,-0.95200,-0.46600,0.03900,-18.53200,15.80200,-29.06800,-0.25200,0.86300,-0.49600,86.19000,0.03000
041225_02.59.18.087,-0.92500,-0.49000,0.01200,-17.01000,20.00300,-15.80200,-0.25200,0.86700,-0.49200,86.94000,0.75000
041225_02.59.18.099,-0.90900,-0.46900,-0.00400,-13.00200,24.06200,-2.92200,-0.25800,0.86700,-0.49200,85.75000,-1.19000
041225_02.59.18.111,-0.90800,-0.44400,-0.00500,-6.87800,25.93500,6.72000,-0.25300,0.86500,-0.49600,86.09000,0.34000
041225_02.59.18.123,-0.91100,-0.44700,0.02100,-1.71500,25.63800,13.02000,-0.25500,0.86300,-0.49400,85.77000,-0.32000
041225_02.59.18.134,-0.90300,-0.43700,0.09400,2.48500,21.21000,17.58700,-0.25100,0.86700,-0.49900,85.97000,0.20000
041225_02.59.18.146,-0.90900,-0.39900,0.16700,6.51000,15.17200,21.87500,-0.25100,0.86100,-0.49400,86.18000,0.21000
041225_02.59.18.158,-0.88200,-0.36400,0.19900,8.08500,10.78000,25.91700,-0.24400,0.86100,-0.49400,86.71000,0.53000
041225_02.59.18.169,-0.86400,-0.37100,0.17400,7.63000,9.73000,30.87000,-0.24100,0.86200,-0.49800,86.61000,-0.10000
041225_02.59.18.181,-0.88300,-0.41200,0.12700,6.75500,8.17200,41.66700,-0.23400,0.86100,-0.49800,86.14000,-0.47000
041225_02.59.18.193,-0.85900,-0.37600,0.00200,8.85500,2.62500,47.67000,-0.22200,0.85700,-0.50100,86.39000,0.25000
041225_02.59.18.204,-0.93500,-0.23500,-0.03700,12.84500,0.61300,54.28500,-0.22200,0.85300,-0.50700,86.69000,0.30000
041225_02.59.18.216,-0.96000,-0.21800,-0.07500,17.51700,-2.25700,61.02200,-0.21000,0.85300,-0.50700,85.87000,-0.82000
041225_02.59.18.228,-1.00600,-0.13200,-0.05600,19.16300,-1.87300,69.66800,-0.20300,0.85200,-0.50900,86.31000,0.44000
041225_02.59.18.240,-0.80500,-0.57400,0.00500,16.29200,3.08000,78.97800,-0.18800,0.84900,-0.51100,86.50000,0.19000
041225_02.59.18.251,-1.09400,-0.02100,-0.05100,-1.71500,5.86300,92.43500,-0.16900,0.84300,-0.50900,86.82000,0.32000
041225_02.59.18.263,-0.89900,-0.28400,-0.00500,-1.87300,6.54500,107.46700,-0.15400,0.83100,-0.51600,86.45000,-0.37000
041225_02.59.18.275,-0.88900,-0.31100,0.08200,-0.12300,0.61300,118.10700,-0.15400,0.83100,-0.51600,86.58000,0.13000
041225_02.59.18.286,-0.92400,-0.11400,0.06600,-1.27800,-2.69500,132.42300,-0.13000,0.82200,-0.51400,86.04000,-0.54000
041225_02.59.18.298,-0.96800,0.11500,0.16000,-0.36800,-7.19300,144.44500,-0.10200,0.81300,-0.50500,86.14000,0.10000
041225_02.59.18.310,-0.99300,0.17200,0.18900,2.69500,-9.43200,139.23000,-0.08100,0.80000,-0.51200,86.57000,0.43000
041225_02.59.18.321,-1.13800,0.15900,0.07200,28.66500,-9.13500,122.67500,-0.05700,0.78300,-0.51900,85.92000,-0.65000
041225_02.59.18.333,-1.17900,0.19300,0.01600,43.89000,-13.31800,102.65500,-0.05700,0.78300,-0.51900,86.31000,0.39000
041225_02.59.18.345,-0.93300,0.22900,0.07100,56.77000,-17.71000,85.76800,-0.04500,0.77200,-0.52600,85.50000,-0.81000
041225_02.59.18.357,-0.85600,0.35800,0.13200,69.66800,-13.02000,85.31300,-0.03000,0.76100,-0.53500,86.14000,0.64000
041225_02.59.18.368,-1.02000,0.33900,0.16400,77.63000,-2.64200,98.84000,-0.01600,0.74600,-0.55100,86.57000,0.43000
041225_02.59.18.380,-0.95500,0.41900,0.19800,78.69800,-4.51500,100.59000,0.00200,0.72600,-0.56300,86.28000,-0.29000
041225_02.59.18.392,-0.90300,0.43000,0.19900,82.96700,-2.80000,101.23800,0.00200,0.72600,-0.56300,86.22000,-0.06000
041225_02.59.18.403,-0.88300,0.36700,0.19500,86.06500,-1.38300,112.00000,0.01800,0.71200,-0.56800,86.65000,0.43000
041225_02.59.18.415,-0.96900,0.30100,0.20600,81.79500,-2.64200,124.12800,0.03300,0.68800,-0.58200,85.75000,-0.90000
041225_02.59.18.427,-0.95600,0.40100,0.26200,71.55800,-1.94200,126.52500,0.05000,0.66600,-0.58800,86.41000,0.66000
041225_02.59.18.438,-0.87700,0.32200,0.18500,52.13200,8.24300,119.77000,0.05800,0.64500,-0.59800,86.25000,-0.16000
041225_02.59.18.450,-0.95700,0.54800,0.08400,45.23700,12.95000,121.69500,0.05800,0.64500,-0.59800,86.40000,0.15000
041225_02.59.18.462,-0.93900,0.60400,0.10600,37.62500,18.42700,123.13000,0.06900,0.62100,-0.59700,86.35000,-0.05000
041225_02.59.18.473,-0.72800,0.69300,0.13200,28.70000,22.59300,129.62200,0.08600,0.60000,-0.60200,86.23000,-0.12000
041225_02.59.18.485,-0.73600,0.65400,0.06300,22.19000,18.65500,141.55700,0.09800,0.57700,-0.59800,86.42000,0.19000
041225_02.59.18.496,-0.75600,0.60200,0.01500,13.16000,18.41000,143.25500,0.11000,0.54500,-0.59600,86.34000,-0.08000
041225_02.59.18.508,-0.71700,0.67200,-0.01300,6.75500,19.74000,137.32200,0.11000,0.54500,-0.59600,86.50000,0.16000
041225_02.59.18.520,-0.59300,0.68200,-0.02800,2.69500,19.58300,131.88000,0.11600,0.52200,-0.59200,85.81000,-0.69000
041225_02.59.18.531,-0.49500,0.71500,-0.06600,-7.10500,22.71500,134.66300,0.12700,0.49900,-0.59200,86.48000,0.67000
041225_02.59.18.543,-0.47900,0.75500,-0.01000,-21.14000,29.10300,145.70500,0.14000,0.47300,-0.58800,85.89000,-0.59000
041225_02.59.18.554,-0.52700,0.78200,-0.01000,-30.80000,29.13800,152.02300,0.14300,0.44500,-0.57800,86.45000,0.56000
041225_02.59.18.566,-0.52700,0.76200,-0.01700,-27.23000,27.31800,145.58300,0.14300,0.44500,-0.57800,86.10000,-0.35000
041225_02.59.18.578,-0.42400,0.83300,0.00700,-21.91000,26.67000,144.72500,0.14800,0.41900,-0.57500,86.46000,0.36000
041225_02.59.18.589,-0.33900,0.83500,0.01000,-16.52000,24.53500,147.61300,0.15300,0.39100,-0.56400,85.58000,-0.88000
041225_02.59.18.601,-0.34000,0.79600,0.03300,-12.84500,21.77000,152.28500,0.14900,0.36700,-0.56700,86.32000,0.74000
041225_02.59.18.613,-0.30400,0.75600,0.05200,-11.13000,16.95800,157.88500,0.15200,0.33400,-0.56400,86.73000,0.41000
041225_02.59.18.625,-0.26500,0.71800,0.02600,-11.23500,11.88200,162.31200,0.15200,0.33400,-0.56400,86.52000,-0.21000
041225_02.59.18.636,-0.22600,0.74100,-0.00200,-12.33700,9.99300,166.44300,0.14700,0.30100,-0.56500,86.61000,0.09000
041225_02.59.18.648,-0.10100,0.85500,0.02500,-10.85000,8.12000,171.27300,0.13800,0.27300,-0.56400,86.24000,-0.37000
041225_02.59.18.660,0.02800,0.95200,-0.03100,-7.47200,4.18200,178.22000,0.13100,0.23900,-0.56500,86.43000,0.19000
041225_02.59.18.671,0.09700,0.98200,-0.02800,-2.73000,0.21000,186.35700,0.11500,0.20100,-0.56000,87.47000,1.04000
041225_02.59.18.683,0.09400,1.02900,-0.10500,4.34000,-2.83500,191.94000,0.11500,0.20100,-0.56000,86.38000,-1.09000
041225_02.59.18.694,0.14500,1.09200,-0.09400,32.21700,-4.86500,200.55000,0.10000,0.16600,-0.56000,86.85000,0.47000
041225_02.59.18.706,0.16900,0.93100,0.10000,38.01000,-2.95700,210.17500,0.07800,0.13100,-0.56200,87.14000,0.29000
041225_02.59.18.718,0.15800,0.75700,0.06700,29.29500,4.51500,219.48500,0.05400,0.09800,-0.55500,86.50000,-0.64000
041225_02.59.18.729,0.25700,0.75700,0.04100,17.37800,15.69800,223.70200,0.02400,0.06300,-0.55100,86.58000,0.08000
041225_02.59.18.741,0.42500,0.96400,0.01500,13.07300,21.07000,227.48200,0.02400,0.06300,-0.55100,87.08000,0.50000
041225_02.59.18.753,0.53500,1.10100,-0.00300,19.12800,20.54500,239.62800,-0.00800,0.03400,-0.54500,86.42000,-0.66000
041225_02.59.18.765,0.48100,0.88900,0.01600,29.90700,21.59500,254.13500,-0.03900,0.00500,-0.53700,86.33000,-0.09000
041225_02.59.18.777,0.47300,0.65300,0.00000,35.61200,24.30800,257.65200,-0.08300,-0.02200,-0.53300,86.13000,-0.20000
041225_02.59.18.788,0.53400,0.48600,0.02800,38.16700,27.79000,252.75300,-0.12600,-0.04400,-0.52800,86.89000,0.76000
041225_02.59.18.800,0.60600,0.35900,-0.03900,42.01800,26.46000,246.08500,-0.12600,-0.04400,-0.52800,86.76000,-0.13000
041225_02.59.18.812,0.84600,0.34200,-0.04000,45.39500,23.06500,224.87500,-0.16800,-0.05600,-0.52200,86.72000,-0.04000
041225_02.59.18.824,0.95000,0.26300,-0.03200,46.53300,27.54500,216.61500,-0.21200,-0.07000,-0.50600,86.10000,-0.62000
041225_02.59.18.835,0.92000,0.03800,-0.00500,41.37000,31.32500,207.07700,-0.25300,-0.07200,-0.49700,86.46000,0.36000
041225_02.59.18.847,0.97000,0.03700,0.04900,34.42300,31.06200,193.51500,-0.29100,-0.07600,-0.48900,86.30000,-0.16000
041225_02.59.18.859,1.02000,0.04400,0.04700,28.42000,25.98700,182.24500,-0.29100,-0.07600,-0.48900,86.46000,0.16000
041225_02.59.18.870,1.07000,-0.02400,0.14000,12.91500,24.02800,171.25500,-0.33000,-0.07400,-0.49500,86.08000,-0.38000
041225_02.59.18.882,1.13300,0.03700,0.11400,-8.27800,23.25700,162.64500,-0.36100,-0.06600,-0.49500,86.46000,0.38000
041225_02.59.18.894,1.19500,0.06000,0.09000,-24.99000,22.52300,162.20800,-0.39000,-0.05900,-0.49800,86.48000,0.02000
041225_02.59.18.906,1.20000,0.04200,0.06600,-34.28300,18.84700,158.21700,-0.41900,-0.05300,-0.51300,86.17000,-0.31000
041225_02.59.18.917,1.16100,-0.01000,0.03900,-41.93000,15.85500,150.22000,-0.41900,-0.05300,-0.51300,86.11000,-0.06000
041225_02.59.18.929,1.03700,-0.11500,0.01000,-46.67300,11.91800,139.86000,-0.44400,-0.04200,-0.51400,85.94000,-0.17000
041225_02.59.18.941,0.99900,-0.15500,-0.02400,-48.72000,7.92800,117.75700,-0.47100,-0.02900,-0.52100,86.34000,0.40000
041225_02.59.18.953,1.08500,0.00200,-0.04000,-25.56700,1.24200,116.88200,-0.48900,-0.01900,-0.52800,86.41000,0.07000
041225_02.59.18.964,1.01100,-0.26900,0.06000,-4.48000,-4.14800,122.53500,-0.51200,-0.00500,-0.53500,87.14000,0.73000
041225_02.59.18.976,0.90700,-0.38700,-0.00800,-2.48500,-17.60500,110.51200,-0.51200,-0.00500,-0.53500,87.30000,0.16000
041225_02.59.18.988,0.93700,-0.45500,-0.03900,-8.55700,-32.42800,83.28300,-0.53100,0.01000,-0.53600,86.25000,-1.05000
041225_02.59.18.999,0.96700,-0.52000,-0.01800,-9.10000,-34.70200,60.58500,-0.54100,0.01200,-0.53400,85.54000,-0.71000
041225_02.59.19.011,0.95700,-0.51300,0.01400,-12.47700,-29.01500,40.77500,-0.53600,0.01600,-0.53000,86.96000,1.42000
041225_02.59.19.023,0.73800,-0.54300,0.06200,-21.15700,-23.31000,24.85000,-0.54400,0.01300,-0.53300,86.77000,-0.19000
041225_02.59.19.035,0.71900,-0.42500,0.02500,-32.97000,-16.24000,10.55200,-0.54400,0.01300,-0.53300,86.31000,-0.46000
041225_02.59.19.046,0.84300,-0.30700,0.01900,-38.13200,-9.87000,5.33800,-0.54400,0.01800,-0.53800,87.00000,0.69000
041225_02.59.19.058,1.05500,-0.23600,0.09400,-39.74300,-5.23300,10.41300,-0.55000,0.02400,-0.54200,87.50000,0.50000
041225_02.59.19.070,1.21900,-0.17900,0.00300,-41.82500,-6.21300,38.85000,-0.55600,0.02900,-0.55000,86.30000,-1.20000
041225_02.59.19.081,1.12900,-0.59100,-0.01400,-42.26300,-14.26200,47.81000,-0.56100,0.03700,-0.55000,86.48000,0.18000
041225_02.59.19.093,1.14000,-0.46900,-0.14300,-50.78500,-15.75000,56.12300,-0.56100,0.03700,-0.55000,87.12000,0.64000
041225_02.59.19.105,1.19700,0.01600,-0.40900,-46.07700,-15.05000,72.13500,-0.57400,0.04900,-0.56300,86.32000,-0.80000
041225_02.59.19.117,1.09500,-0.16000,0.04900,-29.43500,-26.49500,88.97000,-0.58700,0.06400,-0.55800,86.30000,-0.02000
041225_02.59.19.128,1.11200,0.08100,-0.15600,-26.77500,-28.57700,111.35300,-0.60400,0.08200,-0.56100,86.70000,0.40000
041225_02.59.19.140,1.07600,0.10200,-0.14500,-16.95800,-30.66000,134.27700,-0.62300,0.10300,-0.56500,86.51000,-0.19000
041225_02.59.19.152,0.99100,-0.00900,-0.17200,4.70700,-38.69300,145.33700,-0.62300,0.10300,-0.56500,86.95000,0.44000
041225_02.59.19.163,0.87900,-0.17200,-0.15200,20.14200,-46.55000,152.88000,-0.64400,0.13000,-0.55900,87.19000,0.24000
041225_02.59.19.175,0.73300,-0.35800,-0.08400,24.15000,-46.84700,162.66300,-0.66100,0.15300,-0.55100,86.22000,-0.97000
041225_02.59.19.187,0.65700,-0.48600,-0.09800,22.85500,-40.40800,169.76800,-0.68000,0.18600,-0.54500,86.16000,-0.06000
041225_02.59.19.199,0.66400,-0.61300,-0.06100,14.28000,-19.21500,175.56000,-0.69400,0.21400,-0.53800,86.35000,0.19000
041225_02.59.19.210,0.61300,-0.77400,0.05700,5.04000,-7.28000,180.61800,-0.69400,0.21400,-0.53800,86.66000,0.31000
041225_02.59.19.222,0.48000,-0.87400,0.04300,-9.08300,9.73000,179.46200,-0.71000,0.25100,-0.54000,86.24000,-0.42000
041225_02.59.19.234,0.45300,-0.99700,-0.08200,-23.71200,30.04800,167.07200,-0.71900,0.29100,-0.54300,86.02000,-0.22000
041225_02.59.19.246,0.44400,-1.21500,-0.25400,-26.39000,56.17500,150.76200,-0.71800,0.31900,-0.55800,86.27000,0.25000
041225_02.59.19.257,0.57400,-1.23700,-0.28100,-10.69300,76.98200,130.44500,-0.72600,0.34800,-0.57900,86.31000,0.04000
041225_02.59.19.269,0.64000,-1.22300,-0.23800,10.32500,77.00000,109.98800,-0.72600,0.34800,-0.57900,85.86000,-0.45000
041225_02.59.19.281,0.61300,-1.22000,-0.20500,24.97200,63.96300,91.40300,-0.72900,0.37000,-0.57900,86.44000,0.58000
041225_02.59.19.293,0.57600,-1.21300,-0.17100,28.99700,48.21300,73.81500,-0.73000,0.38500,-0.59300,85.60000,-0.84000
041225_02.59.19.304,0.54300,-1.20600,-0.22700,25.44500,30.52000,58.22200,-0.72700,0.39400,-0.59100,86.12000,0.52000
041225_02.59.19.316,0.47100,-1.16400,-0.36600,19.77500,12.25000,49.17500,-0.72500,0.40600,-0.59600,86.53000,0.41000
041225_02.59.19.328,0.41300,-1.09200,-0.38800,5.14500,-13.16000,48.33500,-0.72500,0.40600,-0.59600,86.15000,-0.38000
041225_02.59.19.340,0.40900,-1.14500,-0.34200,-7.38500,-23.03000,54.37300,-0.72800,0.41200,-0.58700,86.79000,0.64000
041225_02.59.19.351,0.30800,-1.18600,-0.39900,-19.25000,-28.42000,58.60800,-0.72400,0.42500,-0.59100,86.39000,-0.40000
041225_02.59.19.363,0.16800,-1.14200,-0.46300,-28.12200,-34.17800,62.86000,-0.72400,0.44200,-0.58400,86.43000,0.04000
041225_02.59.19.375,0.11500,-1.11200,-0.48500,-36.68000,-34.37000,68.98500,-0.72500,0.44900,-0.58700,85.76000,-0.67000
041225_02.59.19.386,0.02000,-1.28900,-0.48900,-45.67500,-19.72200,69.59800,-0.72500,0.44900,-0.58700,85.80000,0.04000
041225_02.59.19.398,0.03500,-1.29200,-0.36600,-56.03500,9.71200,53.63800,-0.71300,0.46200,-0.59200,86.69000,0.89000
041225_02.59.19.410,0.16400,-1.11900,-0.32900,-61.07500,25.34000,31.02800,-0.71100,0.47400,-0.60200,86.01000,-0.68000
041225_02.59.19.422,0.21100,-1.03300,-0.28200,-58.34500,30.62500,14.68200,-0.70500,0.47700,-0.60600,86.06000,0.05000
041225_02.59.19.433,0.57800,-0.92800,0.20900,-52.41200,34.12500,3.23700,-0.70800,0.48100,-0.61000,86.17000,0.11000
041225_02.59.19.445,1.42700,-0.71400,0.13400,-1.29500,-19.00500,-41.26500,-0.70800,0.48100,-0.61000,86.11000,-0.06000
041225_02.59.19.457,0.04100,-1.23200,0.11600,120.36500,77.14000,-64.83800,-0.70700,0.46600,-0.62800,85.70000,-0.41000
041225_02.59.19.468,0.65000,-0.56500,0.05300,103.67000,54.81000,-41.02000,-0.71100,0.45600,-0.64400,86.34000,0.64000
041225_02.59.19.480,0.63500,-0.62700,-0.12200,97.35300,24.09700,-11.46200,-0.70700,0.44700,-0.64800,86.54000,0.20000
041225_02.59.19.491,0.40600,-0.66000,-0.13600,101.86800,-3.15000,7.00000,-0.70500,0.43800,-0.65500,86.07000,-0.47000
041225_02.59.19.503,0.44400,-0.67900,0.03900,102.49700,-16.43300,26.91500,-0.70500,0.43800,-0.65500,85.90000,-0.17000
041225_02.59.19.514,0.43300,-0.71000,0.13500,97.47500,-22.71500,48.56300,-0.70600,0.44000,-0.65600,86.72000,0.82000
041225_02.59.19.527,0.21400,-0.78900,0.15100,92.13700,-20.75500,74.83000,-0.70800,0.44500,-0.64700,85.89000,-0.83000
041225_02.59.19.538,0.07200,-0.86600,0.17400,82.75700,2.27500,95.37500,-0.70100,0.45300,-0.65900,85.61000,-0.28000
041225_02.59.19.550,0.06800,-0.86700,0.09000,70.31500,33.37300,103.46000,-0.69300,0.46900,-0.67800,86.84000,1.23000
041225_02.59.19.562,0.15700,-0.95200,0.01000,62.35300,53.02500,106.99500,-0.69300,0.46900,-0.67800,85.82000,-1.02000
041225_02.59.19.573,0.16500,-1.06900,0.06500,56.84000,45.71000,102.18300,-0.68300,0.48100,-0.68600,86.12000,0.30000
041225_02.59.19.585,0.11000,-1.03100,0.04500,33.67000,44.95800,94.30800,-0.67700,0.49400,-0.69900,86.22000,0.10000
041225_02.59.19.596,-0.03900,-0.71000,-0.01800,23.78200,45.50000,89.33800,-0.66800,0.50800,-0.71100,86.20000,-0.02000
041225_02.59.19.608,0.03900,-0.60400,-0.06200,16.83500,52.18500,93.66000,-0.65600,0.51800,-0.72500,86.37000,0.17000
041225_02.59.19.620,0.18800,-0.64600,0.02500,7.54300,62.37000,112.91000,-0.65600,0.51800,-0.72500,86.20000,-0.17000
041225_02.59.19.632,0.23900,-0.82000,0.12300,-12.91500,66.53500,138.40800,-0.64000,0.54000,-0.73800,86.83000,0.63000
041225_02.59.19.644,0.05500,-0.94200,0.15800,-36.83800,60.51500,154.84000,-0.62200,0.56800,-0.73800,86.41000,-0.42000
041225_02.59.19.656,-0.05000,-1.00300,0.23300,-50.48700,49.63000,155.99500,-0.60900,0.59100,-0.74600,85.96000,-0.45000
041225_02.59.19.668,-0.13500,-1.00400,0.26400,-49.71700,39.21700,150.11500,-0.59400,0.61800,-0.74500,86.40000,0.44000
041225_02.59.19.680,-0.14900,-0.96700,0.31200,-35.35000,26.68700,145.72300,-0.59400,0.61800,-0.74500,86.41000,0.01000
041225_02.59.19.692,-0.24500,-0.89800,0.35800,-16.36200,6.56200,145.75800,-0.57500,0.64300,-0.74800,86.30000,-0.11000
041225_02.59.19.704,-0.26600,-0.82200,0.32400,20.51000,-25.18300,141.01500,-0.56600,0.65500,-0.74400,86.99000,0.69000
041225_02.59.19.716,-0.24300,-0.79600,0.13000,32.48000,-32.55000,131.60000,-0.55400,0.66400,-0.75000,86.69000,-0.30000
041225_02.59.19.728,-0.29100,-0.68200,0.02000,37.50200,-28.31500,116.21700,-0.54600,0.67400,-0.75100,86.77000,0.08000
041225_02.59.19.740,-0.23900,-0.63000,-0.00600,35.99800,-9.10000,104.31700,-0.54600,0.67400,-0.75100,86.62000,-0.15000
041225_02.59.19.751,-0.26700,-0.69500,-0.01300,20.30000,19.11000,105.08800,-0.53400,0.67800,-0.75900,86.15000,-0.47000
041225_02.59.19.763,-0.42700,-0.71900,0.00200,-4.06000,45.57000,112.66500,-0.51900,0.68600,-0.75900,86.14000,-0.01000
041225_02.59.19.775,-0.53400,-0.68700,0.05700,-24.02800,64.08500,120.31300,-0.49400,0.70100,-0.75400,85.95000,-0.19000
041225_02.59.19.787,-0.47400,-0.55900,-0.00700,-32.98700,68.84500,129.76200,-0.46900,0.71600,-0.75400,86.45000,0.50000
041225_02.59.19.799,-0.38100,-0.39300,-0.06500,-23.06500,46.72500,144.62000,-0.46900,0.71600,-0.75400,86.46000,0.01000
041225_02.59.19.810,-0.49500,-0.35300,-0.12900,0.24500,-1.05000,158.88300,-0.44600,0.72300,-0.76000,86.74000,0.28000
041225_02.59.19.822,-0.44700,-0.37100,0.17000,39.69000,-71.83800,161.17500,-0.44500,0.73000,-0.76000,86.67000,-0.07000
041225_02.59.19.834,-0.39100,-0.64400,0.57300,67.28700,-122.32500,126.89300,-0.44900,0.72500,-0.75900,86.46000,-0.21000
041225_02.59.19.846,-0.93000,-0.61100,0.69100,40.28500,-54.91500,106.96000,-0.44300,0.72000,-0.75800,86.11000,-0.35000
041225_02.59.19.858,-0.60000,-0.35100,0.50900,16.11800,21.38500,94.92000,-0.44300,0.72000,-0.75800,87.10000,0.99000
041225_02.59.19.869,-0.37900,-0.15200,0.55700,-3.15000,48.14300,107.53700,-0.42900,0.72800,-0.75200,86.99000,-0.11000
041225_02.59.19.881,-0.32200,-0.23200,0.55100,-30.06500,52.69300,132.89500,-0.40600,0.74000,-0.75100,86.65000,-0.34000
041225_02.59.19.893,-0.39700,-0.28900,0.59900,-61.65300,62.23000,151.83000,-0.37600,0.75100,-0.73800,86.35000,-0.30000
041225_02.59.19.905,-0.44100,-0.09900,0.63300,-99.62800,68.86300,163.25800,-0.34400,0.77400,-0.71100,86.09000,-0.26000
041225_02.59.19.916,-0.47400,0.17600,0.50100,-129.18500,64.66200,173.21500,-0.34400,0.77400,-0.71100,86.63000,0.54000
041225_02.59.19.928,-0.58700,0.39700,0.34400,-140.33300,50.43500,182.78800,-0.30600,0.79400,-0.67500,86.60000,-0.03000
041225_02.59.19.940,-0.71200,0.42400,0.19600,-138.67000,36.05000,188.84200,-0.27000,0.80500,-0.64500,86.70000,0.10000
041225_02.59.19.951,-0.89500,0.36200,0.18900,-133.24500,21.92700,187.39000,-0.23700,0.81400,-0.60800,86.51000,-0.19000
041225_02.59.19.963,-1.06300,0.18600,0.20200,-133.12200,-7.05300,155.57500,-0.20900,0.82000,-0.57900,86.22000,-0.29000
041225_02.59.19.975,-0.77500,0.11700,0.22300,-155.17300,-3.18500,135.64300,-0.20900,0.82000,-0.57900,86.61000,0.39000
041225_02.59.19.987,-0.62600,0.42600,0.06200,-178.60500,2.22300,133.03500,-0.17900,0.82100,-0.54300,86.22000,-0.39000
041225_02.59.19.998,-0.68300,0.71400,-0.24900,-192.32500,6.14200,138.12800,-0.15100,0.81600,-0.49300,86.28000,0.06000
041225_02.59.20.010,-0.86200,0.88200,-0.39400,-194.12800,14.01700,136.41300,-0.12700,0.80200,-0.45400,86.55000,0.27000
041225_02.59.20.022,-1.03500,0.91100,-0.40700,-183.83700,23.31000,123.35700,-0.10200,0.78700,-0.41700,86.40000,-0.15000
041225_02.59.20.034,-0.90500,0.95300,-0.28500,-164.92000,19.18000,106.48800,-0.10200,0.78700,-0.41700,86.47000,0.07000
041225_02.59.20.045,-0.93300,0.80400,-0.12200,-141.38300,17.97200,104.02000,-0.07800,0.76600,-0.38400,86.33000,-0.14000
041225_02.59.20.057,-0.96600,0.68600,0.02400,-116.39300,18.42700,111.24700,-0.06600,0.74800,-0.35800,86.01000,-0.32000
041225_02.59.20.069,-1.17900,0.64500,-0.00200,-93.60700,7.43700,118.59800,-0.03800,0.72600,-0.34300,85.89000,-0.12000
041225_02.59.20.081,-1.54200,0.44000,-0.11300,-69.03700,-2.32800,118.82500,-0.02100,0.70700,-0.33200,85.99000,0.10000
041225_02.59.20.093,-1.92600,0.17900,-0.08200,-47.95000,-17.53500,90.63200,-0.02100,0.70700,-0.33200,86.39000,0.40000
041225_02.59.20.104,-1.80900,0.00400,-0.31500,-54.74000,-7.24500,74.41000,0.00500,0.68400,-0.31800,86.52000,0.13000
041225_02.59.20.116,-1.76100,0.46200,-0.69900,-40.18000,13.98300,54.33800,0.01500,0.67400,-0.31200,86.12000,-0.40000
041225_02.59.20.128,-1.27700,0.44000,-0.10900,-3.43000,21.54200,36.41700,0.01800,0.66600,-0.30000,86.47000,0.35000
041225_02.59.20.139,-1.00400,0.61400,-0.06600,15.27800,8.59200,31.85000,0.02000,0.66000,-0.30600,86.75000,0.28000
041225_02.59.20.151,-1.02600,0.51900,0.06100,27.70200,12.14500,34.44000,0.02000,0.66000,-0.30600,86.07000,-0.68000
041225_02.59.20.162,-0.22000,0.71100,0.44400,18.46200,18.95200,43.12000,0.02500,0.64900,-0.30500,86.42000,0.35000
041225_02.59.20.174,-0.55400,0.73200,0.35100,3.09800,15.87300,76.59800,0.03900,0.63700,-0.30300,86.11000,-0.31000
041225_02.59.20.186,-0.38300,0.72500,0.36000,-8.76700,17.23700,96.91500,0.04600,0.61500,-0.29400,86.60000,0.49000
041225_02.59.20.197,-0.51800,0.84700,0.28600,-15.69800,1.22500,124.49500,0.06500,0.59100,-0.29100,86.23000,-0.37000
041225_02.59.20.209,-0.69700,0.78600,0.21600,-15.22500,-17.41300,156.95800,0.06500,0.59100,-0.29100,86.51000,0.28000
041225_02.59.20.221,-0.79600,0.71400,0.11500,-22.90700,-37.34500,166.58300,0.08600,0.56000,-0.29200,86.64000,0.13000
041225_02.59.20.233,-0.92600,0.73000,0.12500,-24.74500,-36.99500,174.94700,0.10000,0.52600,-0.29000,85.90000,-0.74000
041225_02.59.20.244,-1.07400,0.69300,0.09700,-28.42000,-35.75200,181.54500,0.12300,0.49100,-0.29500,86.18000,0.28000
041225_02.59.20.256,-1.19300,0.67100,0.05200,-32.32200,-32.39300,179.69000,0.13100,0.44700,-0.29600,85.78000,-0.40000
041225_02.59.20.268,-1.25000,0.62800,0.01900,-33.39000,-18.74300,168.40200,0.13100,0.44700,-0.29600,86.07000,0.29000
041225_02.59.20.279,-1.21800,0.64100,-0.00800,-34.38800,3.16800,150.13300,0.13600,0.41200,-0.30400,86.51000,0.44000
041225_02.59.20.291,-1.09300,0.71600,0.01000,-34.31800,19.75700,126.94500,0.13600,0.38500,-0.30000,86.52000,0.01000
041225_02.59.20.303,-0.83000,0.88200,0.05000,-27.87800,21.99700,102.56700,0.13700,0.36100,-0.29700,86.50000,-0.02000
041225_02.59.20.315,-0.24600,1.32600,0.03100,-9.81800,13.80700,93.59000,0.13700,0.34200,-0.29100,86.27000,-0.23000
041225_02.59.20.326,-0.22300,1.04100,0.17700,12.65300,4.48000,109.07700,0.13700,0.34200,-0.29100,86.00000,-0.27000
041225_02.59.20.338,-0.31000,0.86700,0.21700,19.18000,4.56800,123.53300,0.13200,0.31400,-0.28500,86.24000,0.24000
041225_02.59.20.349,-0.24100,0.95800,0.36900,16.41500,2.22300,129.69300,0.12900,0.28900,-0.28700,86.21000,-0.03000
041225_02.59.20.361,-0.07300,1.09800,0.39000,23.04800,-2.36200,134.92500,0.12700,0.26600,-0.29100,86.29000,0.08000
041225_02.59.20.373,0.27200,1.19000,0.50500,32.55000,-11.51500,138.86300,0.12300,0.24300,-0.28500,86.25000,-0.04000
041225_02.59.20.384,0.03000,1.00800,0.41500,27.79000,-32.18200,141.96000,0.12300,0.24300,-0.28500,86.48000,0.23000
041225_02.59.20.396,-0.18000,0.93700,0.21600,8.12000,-38.99000,136.97300,0.11600,0.21800,-0.29200,86.12000,-0.36000
041225_02.59.20.408,-0.29900,0.71600,0.09900,-9.81800,-35.17500,116.76000,0.11600,0.19500,-0.30700,86.04000,-0.08000
041225_02.59.20.419,-0.34700,0.72200,0.01600,-22.76700,-30.36200,84.56000,0.10800,0.17400,-0.31900,86.61000,0.57000
041225_02.59.20.431,-0.26500,0.77000,0.04300,-26.84500,-27.94800,54.19800,0.11000,0.16600,-0.31900,86.37000,-0.24000
041225_02.59.20.443,-0.06800,0.85800,0.12800,-30.85300,-32.27000,32.60300,0.11000,0.16600,-0.31900,86.22000,-0.15000
041225_02.59.20.454,-0.02300,0.97400,0.08500,-34.84200,-40.89700,22.38200,0.11200,0.15500,-0.33600,86.20000,-0.02000
041225_02.59.20.466,-0.03400,1.05200,0.01800,-38.23700,-35.71700,29.59300,0.11200,0.14700,-0.34000,86.62000,0.42000
041225_02.59.20.478,0.43000,1.06600,0.25000,-51.57200,-31.43000,45.46500,0.10800,0.13900,-0.35000,86.21000,-0.41000
041225_02.59.20.489,0.28900,1.24900,0.36700,-73.67500,-35.07000,67.69000,0.10500,0.11900,-0.36500,86.29000,0.08000
041225_02.59.20.501,0.17100,1.18100,0.35600,-89.19800,-38.18500,90.61500,0.10500,0.11900,-0.36500,86.04000,-0.25000
041225_02.59.20.513,0.17600,1.09300,0.26000,-96.16200,-40.91500,107.59000,0.09900,0.10100,-0.38200,86.85000,0.81000
041225_02.59.20.525,0.08200,1.12100,0.23100,-100.04800,-45.65800,122.81500,0.08300,0.08000,-0.40700,86.06000,-0.79000
041225_02.59.20.536,0.10300,1.12900,0.20700,-107.32700,-42.82200,135.25800,0.06700,0.05400,-0.42800,85.98000,-0.08000
041225_02.59.20.548,0.18300,1.08900,0.37400,-101.39500,-39.48000,142.36300,0.04700,0.03600,-0.44600,86.56000,0.58000
041225_02.59.20.560,0.29400,0.97100,0.48400,-93.88700,-40.23300,149.73000,0.04700,0.03600,-0.44600,86.63000,0.07000
041225_02.59.20.571,0.33700,0.82500,0.54700,-93.57300,-41.96500,154.96200,0.03000,0.01300,-0.46800,86.63000,0.00000
041225_02.59.20.583,0.36300,0.78300,0.51800,-97.52800,-42.54200,156.20500,0.00500,-0.00800,-0.48300,86.15000,-0.48000
041225_02.59.20.595,0.29500,0.86500,0.57400,-83.24700,-51.45000,140.78800,-0.02100,-0.01700,-0.50200,85.99000,-0.16000
041225_02.59.20.606,0.51100,0.84100,0.68200,-70.24500,-62.19500,130.95200,-0.04500,-0.02700,-0.52300,86.08000,0.09000
041225_02.59.20.618,0.60500,0.89400,0.59500,-56.24500,-74.56700,121.24000,-0.04500,-0.02700,-0.52300,86.40000,0.32000
041225_02.59.20.630,0.66000,0.92700,0.52200,-44.60800,-83.00300,114.67700,-0.07200,-0.03700,-0.54000,85.97000,-0.43000
041225_02.59.20.642,0.71900,0.86800,0.52600,-37.53700,-89.00500,114.15300,-0.09300,-0.04100,-0.55200,86.59000,0.62000
041225_02.59.20.653,0.74500,0.76100,0.54200,-36.29500,-94.88500,117.14500,-0.11600,-0.04400,-0.57500,86.55000,-0.04000
041225_02.59.20.665,0.73400,0.70900,0.53200,-37.24000,-101.57000,119.89300,-0.14500,-0.04600,-0.58900,86.02000,-0.53000
041225_02.59.20.677,0.72300,0.64200,0.51000,-37.50200,-108.81500,120.73200,-0.14500,-0.04600,-0.58900,86.32000,0.30000
041225_02.59.20.689,0.73900,0.59100,0.46400,-35.00000,-114.74700,118.40500,-0.17300,-0.04600,-0.60100,86.57000,0.25000
041225_02.59.20.700,0.71700,0.49800,0.39100,-28.19300,-118.96500,113.12000,-0.20300,-0.04200,-0.61600,86.05000,-0.52000
041225_02.59.20.712,0.70500,0.41300,0.25300,-26.00500,-117.51200,110.02200,-0.22900,-0.04100,-0.62500,86.44000,0.39000
041225_02.59.20.724,0.72400,0.33100,0.18800,-27.87800,-92.34800,93.59000,-0.25000,-0.03900,-0.63500,87.22000,0.78000
041225_02.59.20.736,0.87600,0.21500,0.10200,-25.02500,-76.93000,78.40000,-0.25000,-0.03900,-0.63500,86.59000,-0.63000
041225_02.59.20.747,0.94900,0.19900,0.10700,-21.52500,-61.60000,60.58500,-0.27300,-0.03400,-0.64300,86.84000,0.25000
041225_02.59.20.759,1.03800,0.19500,0.16900,-18.42700,-49.85800,45.39500,-0.28500,-0.03200,-0.64400,85.64000,-1.20000
041225_02.59.20.771,1.07800,0.18100,0.26200,-15.83700,-46.16500,33.95000,-0.29900,-0.02700,-0.64700,87.31000,1.67000
041225_02.59.20.782,1.10400,0.20000,0.38400,-13.30000,-51.38000,25.34000,-0.30100,-0.02800,-0.65300,85.99000,-1.32000
041225_02.59.20.794,1.08800,0.26300,0.45800,-10.29000,-64.92500,20.54500,-0.30100,-0.02800,-0.65300,86.72000,0.73000
041225_02.59.20.806,1.06000,0.30700,0.44900,-7.59500,-82.37200,21.49000,-0.31500,-0.01900,-0.65500,86.26000,-0.46000
041225_02.59.20.818,1.04200,0.30400,0.36900,-5.67000,-98.26200,26.18000,-0.32400,-0.01900,-0.66000,86.64000,0.38000
041225_02.59.20.829,0.91100,0.13400,-0.00200,-4.77800,-107.29300,30.39800,-0.34100,-0.01600,-0.65500,86.21000,-0.43000
041225_02.59.20.841,0.84700,0.00300,-0.17000,-0.47200,-93.62500,6.09000,-0.35100,-0.01000,-0.65400,86.52000,0.31000
041225_02.59.20.853,0.88000,0.08000,-0.01700,-6.38700,-68.26800,-7.12200,-0.35100,-0.01000,-0.65400,86.10000,-0.42000
041225_02.59.20.865,0.79600,0.16100,0.04100,-5.09300,-54.58300,-21.31500,-0.35800,-0.01000,-0.66200,86.22000,0.12000
041225_02.59.20.876,0.81600,0.16600,0.07600,-5.86300,-42.85800,-33.67000,-0.35600,-0.00800,-0.65800,85.59000,-0.63000
041225_02.59.20.888,0.81900,0.14600,0.02000,-8.12000,-34.28300,-45.92000,-0.35200,-0.00400,-0.66300,86.00000,0.41000
041225_02.59.20.900,0.82700,0.19600,0.00600,-13.66800,-25.18300,-59.18500,-0.34300,-0.00500,-0.66800,86.54000,0.54000
041225_02.59.20.911,0.83700,0.27600,0.05000,-20.68500,-17.08000,-71.50500,-0.34300,-0.00500,-0.66800,86.65000,0.11000
041225_02.59.20.923,0.86000,0.27300,-0.00800,-24.15000,-12.96700,-80.60500,-0.33400,0.00000,-0.66800,85.98000,-0.67000
041225_02.59.20.935,0.86400,0.32900,-0.02600,-22.69800,-10.29000,-86.34500,-0.32200,0.00200,-0.67400,86.41000,0.43000
041225_02.59.20.946,0.85900,0.39300,-0.01900,-17.46500,-9.52000,-86.53700,-0.30700,-0.00100,-0.67400,86.84000,0.43000
041225_02.59.20.958,0.82800,0.42100,-0.03000,-9.50200,-11.72500,-80.15000,-0.29800,-0.00400,-0.68000,86.12000,-0.72000
041225_02.59.20.970,0.78600,0.39500,-0.00800,-3.51700,-13.94800,-58.31000,-0.29800,-0.00400,-0.68000,86.39000,0.27000
041225_02.59.20.982,0.80200,0.29900,-0.03700,-2.10000,-17.79800,-46.88200,-0.29000,-0.00000,-0.67600,86.50000,0.11000
041225_02.59.20.993,0.86900,0.26200,0.03600,-0.24500,-24.46500,-36.59200,-0.28400,-0.00100,-0.68100,86.81000,0.31000
041225_02.59.21.005,0.82500,0.34600,0.07600,-2.52000,-31.92000,-32.49800,-0.28000,0.00100,-0.67500,87.52000,0.71000
041225_02.59.21.016,0.83600,0.42700,0.06500,-2.92200,-38.30700,-30.50300,-0.28600,0.00000,-0.68200,86.49000,-1.03000
041225_02.59.21.028,0.92800,0.45000,0.08100,3.27300,-43.55700,-26.30200,-0.28600,0.00000,-0.68200,86.42000,-0.07000
041225_02.59.21.040,0.97200,0.40500,0.06200,11.25200,-51.50200,-21.56000,-0.29200,-0.00200,-0.68000,86.53000,0.11000
041225_02.59.21.051,0.99400,0.39400,-0.04400,21.22800,-61.58300,-16.60800,-0.29500,-0.00200,-0.66800,86.87000,0.34000
041225_02.59.21.063,0.96500,0.39700,-0.01800,31.29000,-72.52000,-13.77300,-0.30100,-0.00100,-0.67200,87.27000,0.40000
041225_02.59.21.075,0.99100,0.44400,0.02800,36.64500,-83.73800,-13.98300,-0.31300,-0.00600,-0.67200,86.46000,-0.81000
041225_02.59.21.087,0.95700,0.47900,-0.03100,42.19300,-97.28300,-14.84000,-0.31300,-0.00600,-0.67200,86.27000,-0.19000
041225_02.59.21.098,0.92900,0.49100,-0.08100,64.31300,-119.52500,-7.10500,-0.31600,-0.01400,-0.66200,86.39000,0.12000
041225_02.59.21.110,1.00000,0.52600,-0.03100,71.96000,-138.86300,2.10000,-0.33400,-0.02200,-0.65100,86.63000,0.24000
041225_02.59.21.122,0.83800,0.41900,-0.29400,71.40000,-158.79500,3.15000,-0.35100,-0.02500,-0.63700,86.31000,-0.32000
041225_02.59.21.134,0.74300,0.33800,-0.52900,66.83200,-163.53800,-4.30500,-0.37000,-0.03100,-0.62500,86.38000,0.07000
041225_02.59.21.145,0.74900,0.37100,-0.62800,60.30500,-152.81000,-12.11000,-0.37000,-0.03100,-0.62500,86.56000,0.18000
041225_02.59.21.157,0.83800,0.52600,-0.60200,54.74000,-139.51000,-17.46500,-0.38000,-0.03900,-0.61100,86.48000,-0.08000
041225_02.59.21.169,0.83100,0.56300,-0.47500,53.14700,-136.50000,-14.63000,-0.39000,-0.03800,-0.59700,85.83000,-0.65000
041225_02.59.21.181,0.64700,0.51400,-0.42300,50.97800,-140.26200,-11.14800,-0.39800,-0.04400,-0.57700,86.40000,0.57000
041225_02.59.21.192,0.61500,0.52300,-0.60600,56.17500,-145.74000,-11.67200,-0.40500,-0.04900,-0.56100,86.00000,-0.40000
041225_02.59.21.204,0.71600,0.43300,-0.60100,68.84500,-148.76800,-11.46200,-0.40500,-0.04900,-0.56100,86.19000,0.19000
041225_02.59.21.216,0.48500,0.40000,-0.68800,73.72800,-151.30500,-10.53500,-0.41400,-0.04800,-0.54200,86.76000,0.57000
041225_02.59.21.228,-0.04100,0.67300,-1.16300,71.13700,-101.69200,1.29500,-0.42200,-0.05300,-0.52400,86.36000,-0.40000
041225_02.59.21.239,0.23000,0.23200,-0.86800,58.17000,-79.10000,15.85500,-0.42200,-0.05700,-0.51100,86.35000,-0.01000
041225_02.59.21.251,0.30700,0.23900,-0.84700,41.89500,-76.12500,19.82700,-0.43100,-0.06100,-0.50200,86.62000,0.27000
041225_02.59.21.263,0.36500,0.29700,-0.88900,33.05700,-73.27200,16.04800,-0.43100,-0.06100,-0.50200,86.89000,0.27000
041225_02.59.21.274,0.41700,0.35800,-0.80600,27.00300,-68.89700,12.93200,-0.43500,-0.06600,-0.50000,86.73000,-0.16000
041225_02.59.21.286,0.46300,0.39600,-0.72800,27.72000,-70.00000,13.17700,-0.43500,-0.06100,-0.49100,86.64000,-0.09000
041225_02.59.21.298,0.44300,0.37400,-0.73000,32.21700,-74.09500,13.84200,-0.44400,-0.05800,-0.47600,85.77000,-0.87000
041225_02.59.21.310,0.38700,0.30000,-0.81900,35.63000,-77.29800,12.96700,-0.44600,-0.05800,-0.46100,86.49000,0.72000
041225_02.59.21.322,0.27000,0.24900,-0.82800,35.45500,-78.19000,10.90300,-0.44600,-0.05800,-0.46100,86.22000,-0.27000
041225_02.59.21.333,0.23200,0.22700,-0.83100,30.80000,-74.84800,10.13200,-0.44900,-0.05800,-0.45000,86.23000,0.01000
041225_02.59.21.345,0.25900,0.19500,-0.79800,25.46200,-68.91500,9.39800,-0.44800,-0.06100,-0.43800,86.35000,0.12000
041225_02.59.21.357,0.25200,0.25900,-0.78600,17.01000,-54.37300,6.47500,-0.44800,-0.05900,-0.43700,86.00000,-0.35000
041225_02.59.21.368,0.31200,0.28800,-0.79500,18.37500,-49.08800,6.33500,-0.45100,-0.06000,-0.43600,85.62000,-0.38000
041225_02.59.21.380,0.32500,0.23900,-0.78200,20.37000,-44.66000,5.77500,-0.45100,-0.06000,-0.43600,86.37000,0.75000
041225_02.59.21.392,0.22400,0.22000,-0.92300,20.12500,-41.30000,6.54500,-0.45100,-0.05800,-0.42900,86.71000,0.34000
041225_02.59.21.403,0.25400,0.22900,-0.92800,20.63200,-36.87300,6.12500,-0.45100,-0.05600,-0.42400,86.69000,-0.02000
041225_02.59.21.415,0.22600,0.26300,-0.95400,22.69800,-33.77500,5.96800,-0.45400,-0.05200,-0.42000,86.52000,-0.17000
041225_02.59.21.427,0.22500,0.24200,-0.95100,26.72200,-31.92000,5.79300,-0.44800,-0.05100,-0.41300,86.51000,-0.01000
041225_02.59.21.438,0.20900,0.24200,-0.95100,29.47000,-31.20200,6.56200,-0.44800,-0.05100,-0.41300,86.70000,0.19000
041225_02.59.21.450,0.19000,0.24700,-0.94000,31.79800,-29.73300,8.78500,-0.45300,-0.05200,-0.40500,86.66000,-0.04000
041225_02.59.21.462,0.19300,0.21600,-0.92800,33.35500,-28.26300,10.83300,-0.45300,-0.04900,-0.39000,86.68000,0.02000
041225_02.59.21.474,0.18100,0.20000,-0.90700,32.20000,-25.95200,12.09200,-0.45700,-0.05200,-0.38800,86.18000,-0.50000
041225_02.59.21.485,0.13500,0.17300,-0.90000,27.54500,-16.83500,9.73000,-0.45800,-0.04600,-0.38600,85.68000,-0.50000
041225_02.59.21.497,0.01000,0.10000,-0.94700,21.59500,-7.52500,9.04700,-0.45800,-0.04600,-0.38600,86.29000,0.61000
041225_02.59.21.509,-0.03900,0.06200,-0.96600,12.84500,4.39200,9.08300,-0.45900,-0.04800,-0.38100,86.57000,0.28000
041225_02.59.21.520,-0.11400,0.04100,-0.98900,1.31200,20.09000,7.68200,-0.46100,-0.04500,-0.37800,85.78000,-0.79000
041225_02.59.21.532,-0.15500,-0.00300,-0.97600,-12.70500,42.28000,5.82700,-0.46300,-0.04400,-0.38700,86.32000,0.54000
041225_02.59.21.544,-0.09000,-0.01800,-0.89700,-27.03800,69.09000,4.44500,-0.46600,-0.04500,-0.39100,86.69000,0.37000
041225_02.59.21.555,-0.11000,-0.19600,-0.90200,-39.60300,97.26500,2.67800,-0.46600,-0.04500,-0.39100,86.99000,0.30000
041225_02.59.21.567,-0.07500,-0.18500,-0.85000,-60.37500,129.06200,10.29000,-0.47800,-0.04700,-0.41800,86.23000,-0.76000
041225_02.59.21.579,-0.00500,0.03100,-0.72100,-82.47800,158.49700,19.16300,-0.48300,-0.04600,-0.44300,86.72000,0.49000
041225_02.59.21.591,0.10300,0.18400,-0.65200,-89.11000,184.69500,25.09500,-0.49400,-0.04200,-0.47400,86.14000,-0.58000
041225_02.59.21.602,0.26700,0.18300,-0.71900,-84.64700,228.51500,29.73300,-0.49500,-0.03700,-0.50600,86.41000,0.27000
041225_02.59.21.614,0.36500,0.17600,-0.58900,-88.86500,238.92800,24.97200,-0.49500,-0.03700,-0.50600,86.26000,-0.15000
041225_02.59.21.626,0.79200,0.52800,-0.49300,-96.95000,239.82000,22.52300,-0.49200,-0.03600,-0.53500,86.22000,-0.04000
041225_02.59.21.638,0.72000,0.35600,-0.65300,-116.04300,234.69300,31.48300,-0.48600,-0.02600,-0.57600,86.16000,-0.06000
041225_02.59.21.649,0.59500,0.17600,-0.72700,-127.80200,237.61500,28.96200,-0.47600,-0.01500,-0.60900,86.23000,0.07000
041225_02.59.21.661,0.33700,0.27900,-0.74800,-127.45200,247.67800,12.49500,-0.45400,-0.00600,-0.64400,86.48000,0.25000
041225_02.59.21.673,0.26500,0.52400,-0.66400,-121.81700,266.24500,-3.04500,-0.45400,-0.00600,-0.64400,86.22000,-0.26000
041225_02.59.21.685,0.39200,0.71200,-0.36900,-114.45000,285.56500,-9.76500,-0.42800,0.00500,-0.68100,86.49000,0.27000
041225_02.59.21.697,0.66600,0.73800,0.03400,-107.52000,284.98700,-7.91000,-0.39200,0.01900,-0.70800,86.06000,-0.43000
041225_02.59.21.708,0.98800,0.71000,0.06900,-104.14300,271.70500,3.25500,-0.35700,0.02800,-0.72700,86.44000,0.38000
041225_02.59.21.720,1.17800,0.54900,0.20300,-102.20000,263.11200,19.93300,-0.32400,0.04000,-0.74200,86.48000,0.04000
041225_02.59.21.731,1.27800,0.42700,0.54800,-90.63200,195.17800,32.62000,-0.32400,0.04000,-0.74200,86.49000,0.01000
041225_02.59.21.743,1.25700,0.31100,0.57300,-73.95500,149.99300,28.49000,-0.30000,0.05200,-0.75000,86.67000,0.18000
041225_02.59.21.755,0.92500,0.20600,0.43400,-58.71300,128.17000,18.06000,-0.27600,0.06200,-0.76200,86.64000,-0.03000
041225_02.59.21.767,0.74300,0.08300,0.34100,-45.95500,123.65500,2.17000,-0.26400,0.07100,-0.76900,86.65000,0.01000
041225_02.59.21.778,0.65000,0.01200,0.25600,-38.81500,128.64300,-18.04200,-0.24000,0.07700,-0.77000,86.48000,-0.17000
041225_02.59.21.790,0.55100,0.01400,0.14800,-36.71500,140.31500,-41.51000,-0.24000,0.07700,-0.77000,86.64000,0.16000
041225_02.59.21.802,0.47100,0.11300,0.14800,-36.62700,158.91700,-66.13200,-0.21300,0.08200,-0.76200,85.83000,-0.81000
041225_02.59.21.814,0.40400,0.26900,0.27300,-38.15000,180.09200,-86.55500,-0.17600,0.09000,-0.76500,85.83000,0.00000
041225_02.59.21.825,0.37700,0.39700,0.58000,-40.42500,197.22500,-99.45200,-0.13300,0.09600,-0.75400,86.57000,0.74000
041225_02.59.21.837,0.42200,0.55000,0.90700,-44.99300,198.29200,-105.08800,-0.09300,0.10300,-0.74700,86.44000,-0.13000
041225_02.59.21.849,0.47700,0.70300,1.19100,-43.85500,180.86300,-100.90500,-0.09300,0.10300,-0.74700,86.70000,0.26000
041225_02.59.21.861,0.54600,0.81200,1.28600,-9.69500,117.68800,-64.27800,-0.06200,0.11400,-0.73500,86.07000,-0.63000
041225_02.59.21.872,0.62200,0.53000,0.94600,1.87300,88.35700,-43.66200,-0.04000,0.11400,-0.72500,86.82000,0.75000
041225_02.59.21.884,0.63300,0.39600,0.64500,1.06700,71.83800,-34.00200,-0.02000,0.11900,-0.71700,86.21000,-0.61000
041225_02.59.21.896,0.53900,0.28500,0.36300,-4.37500,76.66800,-37.36200,-0.01400,0.11800,-0.70500,86.27000,0.06000
041225_02.59.21.907,0.37100,0.22500,0.21400,-7.68200,103.88000,-55.16000,-0.01400,0.11800,-0.70500,86.44000,0.17000
041225_02.59.21.919,0.26400,0.24500,0.26900,-9.94000,143.78000,-78.68000,0.00600,0.12300,-0.69500,86.68000,0.24000
041225_02.59.21.931,-0.27000,-0.11700,0.25800,-10.50000,182.38500,-106.62800,0.03100,0.13900,-0.66800,86.01000,-0.67000
041225_02.59.21.942,-0.19700,0.04100,0.59100,-10.30700,224.77000,-159.70500,0.07300,0.15700,-0.64100,86.54000,0.53000
041225_02.59.21.954,0.19000,1.01300,1.20500,-6.61500,246.64500,-196.07000,0.11000,0.18100,-0.60400,86.06000,-0.48000
041225_02.59.21.966,-0.09700,1.28400,1.13100,-12.67000,240.18700,-167.26500,0.11000,0.18100,-0.60400,85.85000,-0.21000
041225_02.59.21.978,0.02200,0.91800,1.49700,-20.09000,242.48000,-125.51000,0.13100,0.20000,-0.56900,87.13000,1.28000
041225_02.59.21.989,-0.02500,0.84600,1.57600,-61.42500,196.36800,-63.29800,0.15200,0.21600,-0.53100,86.62000,-0.51000
041225_02.59.22.001,-0.45200,0.78400,1.58900,-82.35500,144.86500,-42.70000,0.16100,0.22700,-0.50700,86.23000,-0.39000
041225_02.59.22.013,-0.31400,0.70200,1.43700,-76.59800,81.65500,-39.09500,0.17000,0.23600,-0.50000,86.79000,0.56000
041225_02.59.22.024,-0.30400,0.65000,1.22600,-43.66200,18.95200,-50.99500,0.17000,0.23600,-0.50000,87.36000,0.57000
041225_02.59.22.036,-0.31900,0.45200,0.87800,-4.84700,-9.60800,-75.14500,0.17300,0.24900,-0.50400,86.38000,-0.98000
041225_02.59.22.048,-0.17200,0.29000,0.56200,19.61800,9.52000,-103.74000,0.17400,0.26800,-0.50700,85.63000,-0.75000
041225_02.59.22.060,-0.04300,0.32000,0.52200,30.34500,52.81500,-120.85500,0.18400,0.29400,-0.49400,86.39000,0.76000
041225_02.59.22.072,-0.17500,0.40600,0.52400,32.13000,96.54800,-127.19000,0.18900,0.31800,-0.47000,86.43000,0.04000
041225_02.59.22.083,-0.35700,0.50000,0.74700,30.18700,133.82200,-132.02000,0.18900,0.31800,-0.47000,86.39000,-0.04000
041225_02.59.22.095,-0.63400,0.56800,0.91700,24.44800,153.07200,-137.72500,0.19100,0.34700,-0.44400,85.88000,-0.51000
041225_02.59.22.107,-0.89000,0.63200,0.82700,22.75000,158.51500,-143.01000,0.19200,0.37900,-0.41600,85.73000,-0.15000
041225_02.59.22.119,-0.90300,0.52800,0.75900,28.73500,170.08300,-148.27700,0.18400,0.41100,-0.38200,86.34000,0.61000
041225_02.59.22.130,-0.92600,0.32900,0.72900,25.74300,175.89300,-154.66500,0.17100,0.44500,-0.35400,86.50000,0.16000
041225_02.59.22.142,-0.52600,0.14600,0.62300,14.40300,170.34500,-164.78000,0.17100,0.44500,-0.35400,85.69000,-0.81000
041225_02.59.22.154,-0.52700,0.23700,0.66800,-4.00800,111.70200,-161.35000,0.15500,0.47900,-0.31400,86.64000,0.95000
041225_02.59.22.165,0.14500,-0.25500,0.70300,-7.12200,53.04200,-131.84500,0.13800,0.51100,-0.31000,87.17000,0.53000
041225_02.59.22.177,-0.12700,0.22600,0.69000,-16.53800,20.42300,-77.05200,0.12900,0.52900,-0.30300,86.99000,-0.18000
041225_02.59.22.189,-0.80000,0.63200,0.86000,-19.93300,10.20300,-36.78500,0.13400,0.51900,-0.30700,86.59000,-0.40000
041225_02.59.22.201,-0.59700,0.44800,0.62900,-22.08500,12.79300,-10.74500,0.13400,0.51900,-0.30700,86.56000,-0.03000
041225_02.59.22.212,-0.51800,0.27800,0.66100,-18.98700,11.51500,-6.59700,0.13500,0.51800,-0.29900,85.90000,-0.66000
041225_02.59.22.224,-0.77200,0.28800,0.65000,-17.51700,6.21300,-11.20000,0.13000,0.52100,-0.29500,86.38000,0.48000
041225_02.59.22.236,-0.80100,0.19200,0.56300,-17.90300,3.18500,-27.44000,0.13000,0.52900,-0.29100,85.43000,-0.95000
041225_02.59.22.247,-0.82700,0.09200,0.58900,-39.77800,11.69000,-37.76500,0.12400,0.53900,-0.28900,86.20000,0.77000
041225_02.59.22.259,-0.97600,0.14900,0.64800,-51.71300,18.55000,-42.56000,0.12400,0.53900,-0.28400,86.80000,0.60000
041225_02.59.22.271,-1.02400,0.12700,0.67100,-58.92300,20.49300,-46.48000,0.11800,0.54800,-0.28400,85.60000,-1.20000
041225_02.59.22.283,-1.02800,0.06200,0.65800,-61.21500,17.46500,-53.16500,0.11400,0.55300,-0.28300,86.03000,0.43000
041225_02.59.22.294,-1.02300,-0.04100,0.63700,-64.27800,13.23000,-61.88000,0.10400,0.56000,-0.27300,86.10000,0.07000
041225_02.59.22.306,-1.20200,-0.07000,0.42700,-71.97800,10.22000,-71.24300,0.09500,0.56900,-0.27300,86.35000,0.25000
041225_02.59.22.318,-0.91500,-0.15800,0.58600,-74.23500,9.94000,-83.72000,0.09500,0.56900,-0.26700,86.26000,-0.09000
041225_02.59.22.329,-0.74500,-0.16300,0.68800,-86.04800,2.81800,-86.48500,0.08900,0.57500,-0.26700,86.40000,0.14000
041225_02.59.22.341,-0.73800,-0.09900,0.58800,-101.25500,-9.48500,-86.94000,0.08200,0.58300,-0.25600,86.88000,0.48000
041225_02.59.22.353,-0.72500,-0.04000,0.58100,-104.31700,-22.40000,-90.05500,0.07300,0.59000,-0.25900,86.73000,-0.15000
041225_02.59.22.365,-0.65200,0.00500,0.65700,-99.82000,-60.13000,-79.29300,0.07300,0.59600,-0.26300,86.48000,-0.25000
041225_02.59.22.376,-0.60400,0.02600,0.71400,-78.13700,-83.75500,-63.17500,0.07300,0.59600,-0.26300,86.39000,-0.09000
041225_02.59.22.388,-1.03600,0.21300,-0.23200,-61.93200,-93.90500,-35.35000,0.07700,0.59900,-0.26300,86.82000,0.43000
041225_02.59.22.400,-1.65300,0.62200,-0.96200,-40.26800,-24.39500,-2.03000,0.08300,0.59700,-0.26400,87.19000,0.37000
041225_02.59.22.412,-0.74300,-0.69200,0.78000,-35.35000,40.14500,33.49500,0.07600,0.58900,-0.25700,86.14000,-1.05000
041225_02.59.22.423,-0.98500,-0.59900,0.55500,-52.78000,47.26800,32.11200,0.07400,0.58000,-0.23900,86.85000,0.71000
041225_02.59.22.435,-1.00700,-0.48100,0.57800,-54.02200,49.66500,24.99000,0.07400,0.58000,-0.22800,86.82000,-0.03000
041225_02.59.22.447,-1.04000,-0.38100,0.54700,-50.20800,46.41000,16.71200,0.07200,0.57100,-0.22800,86.40000,-0.42000
041225_02.59.22.458,-1.05100,-0.30100,0.56800,-44.27500,39.76000,6.35200,0.06400,0.56600,-0.22400,86.93000,0.53000
041225_02.59.22.470,-1.01300,-0.24900,0.54800,-42.42000,34.47500,-5.35500,0.06300,0.55600,-0.21300,87.13000,0.20000
041225_02.59.22.482,-0.95400,-0.21300,0.46700,-36.85500,29.64500,-21.52500,0.05800,0.55700,-0.20100,86.58000,-0.55000
041225_02.59.22.493,-0.89800,-0.26600,0.44800,-18.79500,13.52800,-62.51000,0.05800,0.55700,-0.20300,85.82000,-0.76000
041225_02.59.22.505,-0.75400,-0.24400,0.51800,-12.75700,4.81200,-82.40800,0.05300,0.56800,-0.20300,86.53000,0.71000
041225_02.59.22.517,-0.77400,-0.22900,0.47900,-8.55700,-5.63500,-97.40500,0.04300,0.58000,-0.20500,86.50000,-0.03000
041225_02.59.22.529,-0.71100,-0.38900,0.52200,-7.38500,-14.28000,-107.78300,0.03300,0.59000,-0.20300,86.43000,-0.07000
041225_02.59.22.540,-0.66900,-0.56000,0.58500,-23.48500,-21.19200,-110.63500,0.01900,0.60400,-0.20700,86.85000,0.42000
041225_02.59.22.552,-0.71000,-0.48100,0.52500,-56.38500,-17.18500,-102.02500,0.01900,0.60700,-0.19700,86.29000,-0.56000
041225_02.59.22.564,-0.61400,-0.42600,0.48000,-75.81000,-10.43000,-86.78300,0.01200,0.60700,-0.19700,86.29000,0.00000
041225_02.59.22.575,-0.61300,-0.54400,0.41700,-77.78700,-11.60200,-73.02800,-0.00400,0.60800,-0.19700,86.31000,0.02000
041225_02.59.22.587,-0.67700,-0.69000,0.45600,-76.84200,-12.47700,-62.66700,-0.01000,0.60900,-0.18500,86.59000,0.28000
041225_02.59.22.599,-0.75200,-0.82900,0.56900,-78.82000,-13.82500,-54.25000,-0.01100,0.60800,-0.17500,86.13000,-0.46000
041225_02.59.22.611,-0.79600,-0.96100,0.61200,-81.67300,-17.62200,-51.94000,-0.01100,0.60100,-0.17300,86.37000,0.24000
041225_02.59.22.622,-0.83300,-1.03700,0.65700,-98.96300,-25.62000,-69.73800,-0.01700,0.60100,-0.17300,86.47000,0.10000
041225_02.59.22.634,-0.85700,-0.94700,0.71300,-113.36500,-29.75000,-82.84500,-0.02300,0.59200,-0.16900,85.94000,-0.53000
041225_02.59.22.646,-0.77400,-0.97300,0.69800,-132.59800,-38.69300,-100.29300,-0.02800,0.59200,-0.16500,87.05000,1.11000
041225_02.59.22.658,-0.67600,-1.00800,0.61800,-150.06200,-51.34500,-117.25000,-0.03400,0.58000,-0.15400,87.65000,0.60000
041225_02.59.22.670,-0.71300,-0.90700,0.27600,-168.92800,-62.23000,-128.17000,-0.03400,0.57100,-0.14300,86.19000,-1.46000
041225_02.59.22.681,-0.52000,-1.01400,0.19600,-186.91700,-58.66000,-133.21000,-0.03900,0.57100,-0.14300,86.83000,0.64000
041225_02.59.22.693,-0.48200,-1.18700,0.19700,-201.02300,-60.65500,-141.06800,-0.04500,0.56000,-0.13500,86.70000,-0.13000
041225_02.59.22.705,-0.21600,-1.20700,0.33000,-212.62500,-77.45500,-150.44700,-0.04300,0.54200,-0.12700,86.01000,-0.69000
041225_02.59.22.716,-0.23400,-1.17600,0.41700,-222.77500,-108.11500,-155.99500,-0.04300,0.52500,-0.12800,86.51000,0.50000
041225_02.59.22.728,-0.35700,-1.05800,0.37900,-235.84800,-138.39000,-157.90200,-0.04300,0.50300,-0.13600,86.27000,-0.24000
041225_02.59.22.740,-0.13600,-0.91800,0.46000,-245.24500,-161.00000,-155.85500,-0.02900,0.50300,-0.13600,84.91000,-1.36000
041225_02.59.22.752,-0.06200,-0.50100,-0.20300,-226.48500,-155.26000,-108.37800,-0.01600,0.48300,-0.13600,86.23000,1.32000
041225_02.59.22.763,-0.46800,-1.09900,-0.26500,-205.17000,-93.64300,-77.61300,0.00500,0.46300,-0.13700,86.87000,0.64000
041225_02.59.22.775,-0.01400,-0.79400,-0.10400,-186.48000,-98.05200,-57.82000,0.01500,0.43600,-0.15100,86.57000,-0.30000
041225_02.59.22.787,0.26300,-1.01000,0.18700,-161.03500,-121.17000,-53.27000,0.01500,0.41600,-0.16200,86.70000,0.13000
041225_02.59.22.799,-0.09000,-1.26200,0.16600,-150.97300,-142.88700,-59.81500,0.03800,0.41600,-0.16200,85.89000,-0.81000
041225_02.59.22.811,-0.74100,-1.06400,-0.14500,-151.14800,-139.52700,-72.11800,0.05500,0.40700,-0.17400,87.31000,1.42000
041225_02.59.22.823,-0.72800,-0.71400,-0.23900,-153.79000,-103.79300,-77.92700,0.06900,0.39700,-0.18400,86.96000,-0.35000
041225_02.59.22.834,-0.23200,-0.62000,-0.28300,-138.26800,-86.80000,-71.31300,0.07700,0.39200,-0.20000,86.64000,-0.32000
041225_02.59.22.846,-0.14800,-0.76100,-0.38900,-98.78700,-117.56500,-54.98500,0.09400,0.39100,-0.22700,86.79000,0.15000
041225_02.59.22.858,-0.39400,-0.87600,-0.41700,-69.03700,-153.21200,-44.36200,0.09400,0.39100,-0.22700,87.10000,0.31000
041225_02.59.22.870,-0.47800,-0.84300,-0.49700,-68.51200,-163.15200,-35.78700,0.11100,0.38500,-0.24700,86.75000,-0.35000
041225_02.59.22.882,-0.45400,-0.86500,-0.65000,-88.34000,-146.03800,-32.21700,0.12900,0.38500,-0.27500,86.84000,0.09000
041225_02.59.22.893,-0.39700,-0.99400,-0.64700,-94.65800,-140.84000,-31.25500,0.13800,0.37700,-0.29400,86.96000,0.12000
041225_02.59.22.905,-0.36200,-0.99100,-0.56500,-98.66500,-140.14000,-31.97200,0.15400,0.37900,-0.31800,86.40000,-0.56000
041225_02.59.22.917,-0.33000,-0.95100,-0.42200,-103.84500,-142.25800,-32.83000,0.15400,0.37900,-0.31800,87.15000,0.75000
041225_02.59.22.929,-0.36100,-0.70200,-0.51700,-110.46000,-141.69700,-30.55500,0.16600,0.37400,-0.34600,86.39000,-0.76000
041225_02.59.22.941,-0.43900,-0.72600,-0.49300,-112.49000,-126.94500,-20.79000,0.17300,0.37200,-0.36200,86.58000,0.19000
041225_02.59.22.953,-0.39700,-0.72900,-0.42900,-104.63200,-112.40300,-18.60300,0.18000,0.37100,-0.38000,87.00000,0.42000
041225_02.59.22.964,-0.32400,-0.60400,-0.48700,-88.90000,-97.58000,-17.41300,0.18600,0.36600,-0.39700,86.14000,-0.86000
041225_02.59.22.976,-0.28200,-0.60200,-0.41400,-72.18800,-83.58000,-7.64800,0.18600,0.36600,-0.39700,86.81000,0.67000
041225_02.59.22.988,-0.33000,-0.70400,-0.40700,-62.09000,-77.43800,2.95700,0.18300,0.36900,-0.41800,86.35000,-0.46000
041225_02.59.23.000,-0.35200,-0.77900,-0.45300,-61.84500,-63.31500,11.95300,0.18900,0.35500,-0.42300,87.34000,0.99000
041225_02.59.23.011,-0.33100,-0.79300,-0.43900,-77.26200,-58.64300,12.40800,0.19000,0.34900,-0.43700,86.85000,-0.49000
041225_02.59.23.023,-0.33600,-0.78800,-0.46600,-81.32300,-54.30300,6.35200,0.19300,0.34700,-0.45100,86.62000,-0.23000
041225_02.59.23.035,-0.23400,-0.64100,-0.70400,-75.91500,-54.95000,-4.88300,0.19300,0.34700,-0.45100,86.91000,0.29000
041225_02.59.23.047,-0.28200,-0.63500,-0.44100,-52.83300,-76.05500,-24.55200,0.19500,0.34800,-0.45600,86.90000,-0.01000
041225_02.59.23.058,-0.35300,-0.73600,-0.33200,-38.97200,-106.45200,-49.57700,0.19400,0.35400,-0.47900,86.25000,-0.65000
041225_02.59.23.070,-0.28400,-0.71600,-0.33000,-39.25200,-128.15200,-63.28000,0.19100,0.37200,-0.51000,87.38000,1.13000
041225_02.59.23.082,-0.10500,-0.53900,-0.29100,-46.46300,-143.90200,-60.83000,0.19000,0.38000,-0.53500,86.53000,-0.85000
041225_02.59.23.094,0.02100,-0.33900,-0.38600,-60.20000,-146.91300,-41.12500,0.19000,0.38000,-0.53500,86.56000,0.03000
041225_02.59.23.105,-0.06700,-0.29600,-0.32500,-88.49700,-125.31700,-6.73800,0.19400,0.38200,-0.56000,86.55000,-0.01000
041225_02.59.23.117,-0.20500,-0.63500,-0.18200,-113.75000,-106.45200,20.00300,0.18700,0.38200,-0.58200,86.51000,-0.04000
041225_02.59.23.129,-0.31900,-0.61700,-0.29400,-133.84000,-77.17500,45.67500,0.18500,0.37500,-0.60100,86.37000,-0.14000
041225_02.59.23.141,-0.33600,-0.61500,-0.15400,-141.48800,-58.74800,52.64000,0.17900,0.37000,-0.61700,86.98000,0.61000
041225_02.59.23.153,-0.28000,-0.61200,-0.03200,-156.57200,-40.32000,55.14300,0.17900,0.37000,-0.61700,86.39000,-0.59000
041225_02.59.23.164,-0.23800,-0.70200,0.13400,-172.56800,-24.78000,55.21300,0.18100,0.37000,-0.62300,86.62000,0.23000
041225_02.59.23.176,-0.20600,-0.47000,-0.06200,-182.43700,-17.20200,48.52800,0.17700,0.37100,-0.63200,86.85000,0.23000
041225_02.59.23.188,-0.09000,-0.32700,0.04500,-186.06000,-1.20700,45.29000,0.17200,0.37000,-0.63700,86.93000,0.08000
041225_02.59.23.199,-0.00400,-0.02200,0.05400,-181.28300,7.92800,44.99300,0.17000,0.37300,-0.65000,86.01000,-0.92000
041225_02.59.23.211,0.08300,0.19800,0.02900,-174.30000,14.92700,52.08000,0.17000,0.37300,-0.65000,86.61000,0.60000
041225_02.59.23.223,0.14100,0.31700,-0.00100,-157.50000,23.95800,63.87500,0.16500,0.37100,-0.66100,86.68000,0.07000
041225_02.59.23.234,0.07900,0.67500,-0.06200,-131.75800,35.89300,80.83200,0.15700,0.36400,-0.67100,87.16000,0.48000
041225_02.59.23.246,0.01800,1.25800,-0.08900,-117.30200,41.73700,115.02800,0.14400,0.35300,-0.68000,86.84000,-0.32000
041225_02.59.23.258,0.00800,1.34500,-0.17700,-130.20000,52.90300,203.35000,0.13100,0.34800,-0.68400,87.23000,0.39000
041225_02.59.23.270,-0.10500,0.88500,-0.53500,-135.59000,54.39000,211.83700,0.13100,0.34800,-0.68400,86.65000,-0.58000
041225_02.59.23.281,-0.14900,0.89900,-0.55700,-123.60300,60.46300,208.23200,0.11500,0.34800,-0.69100,86.81000,0.16000
041225_02.59.23.293,-0.22000,0.83200,-0.59700,-113.55800,66.27200,200.34000,0.11200,0.35600,-0.68500,86.22000,-0.59000
041225_02.59.23.305,-0.16400,0.85100,-0.54900,-108.55200,73.71000,187.26800,0.10900,0.36600,-0.67500,85.92000,-0.30000
041225_02.59.23.317,-0.09600,0.85800,-0.61000,-105.68300,81.32300,178.44700,0.11300,0.37900,-0.65800,86.80000,0.88000
041225_02.59.23.328,0.06600,0.92300,-0.69200,-98.08800,84.71700,171.69300,0.11300,0.37900,-0.65800,86.58000,-0.22000
041225_02.59.23.340,0.13400,0.90600,-0.77800,-87.11500,83.05500,167.52700,0.12100,0.38600,-0.63600,86.13000,-0.45000
041225_02.59.23.352,0.21400,0.92200,-0.88200,-76.19500,79.48500,164.55300,0.13900,0.38600,-0.60600,86.49000,0.36000
041225_02.59.23.363,0.34600,1.02100,-0.95900,-64.12000,72.17000,163.41500,0.15000,0.38400,-0.58400,86.19000,-0.30000
041225_02.59.23.375,0.35200,1.02700,-1.00500,-50.68000,63.96300,164.58700,0.16500,0.37200,-0.56300,87.01000,0.82000
041225_02.59.23.387,0.28900,1.05200,-1.05400,-22.92500,66.36000,163.15200,0.16500,0.37200,-0.56300,86.96000,-0.05000
041225_02.59.23.399,0.21300,1.04600,-1.12200,-7.70000,71.92500,158.27000,0.18100,0.35100,-0.52700,86.46000,-0.50000
041225_02.59.23.410,0.22000,1.00200,-1.14900,7.49000,79.94000,153.51000,0.18700,0.32600,-0.50100,87.10000,0.64000
041225_02.59.23.422,0.28200,0.99600,-1.12000,25.16500,92.41800,149.76500,0.19200,0.30200,-0.46800,87.06000,-0.04000
041225_02.59.23.434,0.36300,0.89900,-1.07800,44.95800,105.68300,145.47700,0.19300,0.27000,-0.42500,86.59000,-0.47000
041225_02.59.23.445,0.40100,0.85700,-1.05200,68.11000,114.64300,136.97300,0.19300,0.27000,-0.42500,86.44000,-0.15000
041225_02.59.23.457,0.46600,0.74300,-0.98700,87.34200,119.70000,132.40500,0.18700,0.24500,-0.37500,87.09000,0.65000
041225_02.59.23.469,0.57000,0.62400,-0.92700,95.76000,120.80200,129.74500,0.17700,0.22700,-0.33700,86.61000,-0.48000
041225_02.59.23.480,0.63800,0.56600,-0.80000,110.54800,119.96300,132.10700,0.16200,0.20400,-0.29700,86.92000,0.31000
041225_02.59.23.492,0.68900,0.35000,-0.62700,115.85000,121.06500,131.51200,0.14300,0.18700,-0.25300,86.44000,-0.48000
041225_02.59.23.504,0.73100,0.24300,-0.50800,102.25300,117.74000,95.62000,0.14300,0.18700,-0.25300,85.90000,-0.54000
041225_02.59.23.515,0.79100,0.17400,-0.51500,50.55700,100.43300,80.09800,0.12100,0.18100,-0.22100,86.40000,0.50000
041225_02.59.23.527,0.85600,0.02800,-0.57600,8.45300,80.01000,55.98300,0.09200,0.17500,-0.18800,86.25000,-0.15000
041225_02.59.23.539,0.87300,0.39700,-1.05400,-27.07300,69.37000,49.77000,0.06300,0.18400,-0.16900,85.95000,-0.30000
041225_02.59.23.550,0.72300,0.51300,-1.05700,-2.15200,69.79000,53.20000,0.03300,0.17600,-0.14400,85.97000,0.02000
041225_02.59.23.562,0.83000,0.42000,-0.96100,19.72200,76.72000,55.86000,0.03300,0.17600,-0.14400,86.49000,0.52000
041225_02.59.23.574,0.86200,0.31400,-0.89400,35.84000,84.99700,59.67500,0.00100,0.17700,-0.11600,86.11000,-0.38000
041225_02.59.23.585,0.99000,0.19600,-0.79600,44.76500,90.19500,61.35500,-0.03200,0.18200,-0.09700,86.69000,0.58000
041225_02.59.23.597,1.07400,0.07900,-0.70100,38.93800,86.15300,63.14000,-0.06800,0.18600,-0.08300,85.96000,-0.73000
041225_02.59.23.609,1.19400,0.08500,-0.64100,29.20800,78.24300,64.19000,-0.09800,0.19200,-0.06700,86.49000,0.53000
041225_02.59.23.620,1.13600,0.15700,-0.59900,21.36800,69.66800,65.03000,-0.09800,0.19200,-0.06700,86.59000,0.10000
041225_02.59.23.632,1.10400,0.22500,-0.63500,17.79800,72.60700,62.73700,-0.13400,0.20000,-0.04500,86.50000,-0.09000
041225_02.59.23.644,1.16100,0.23600,-0.74000,13.14200,76.30000,62.03700,-0.16500,0.20500,-0.05400,86.17000,-0.33000
041225_02.59.23.655,1.22500,0.15000,-0.68400,9.87000,78.19000,62.42300,-0.18800,0.22700,-0.05400,86.21000,0.04000
041225_02.59.23.667,1.30500,0.11100,-0.84200,3.04500,74.65500,62.16000,-0.21800,0.23700,-0.05200,86.51000,0.30000
041225_02.59.23.679,1.38700,0.03400,-0.87200,-2.57200,62.58000,66.57000,-0.21800,0.23700,-0.05200,85.73000,-0.78000
041225_02.59.23.690,1.42100,0.02500,-0.84700,-7.22700,47.63500,80.43000,-0.23100,0.25600,-0.06200,86.02000,0.29000
041225_02.59.23.702,1.38300,0.05600,-0.70600,-14.57800,34.66700,93.34500,-0.22800,0.26300,-0.07500,86.46000,0.44000
041225_02.59.23.714,1.35100,0.30500,-0.84700,-25.60300,24.81500,97.52800,-0.22500,0.26600,-0.09000,86.24000,-0.22000
041225_02.59.23.725,1.23000,0.38100,-0.90500,-20.28200,22.22500,101.44800,-0.20400,0.26600,-0.09500,86.57000,0.33000
041225_02.59.23.738,1.21500,0.39800,-0.86000,-3.71000,25.69000,105.14000,-0.20400,0.26600,-0.09500,87.04000,0.47000
041225_02.59.23.749,1.24700,0.32100,-0.84000,13.28300,29.52300,108.78000,-0.18500,0.26600,-0.10700,86.71000,-0.33000
041225_02.59.23.761,1.25300,0.29200,-0.80400,48.00200,36.20800,121.18800,-0.17900,0.26000,-0.11400,86.58000,-0.13000
041225_02.59.23.773,1.15500,0.42300,-0.90800,59.86800,44.59000,127.87200,-0.16400,0.25000,-0.10900,86.25000,-0.33000
041225_02.59.23.785,1.00300,0.51900,-0.95300,80.15000,58.11800,134.45200,-0.16800,0.23700,-0.11900,86.60000,0.35000
041225_02.59.23.796,0.96400,0.43700,-0.85900,102.49700,70.40300,137.69000,-0.16800,0.23700,-0.11900,86.43000,-0.17000
041225_02.59.23.808,1.05200,0.24700,-0.75200,115.90300,74.76000,132.75500,-0.17200,0.23100,-0.11100,86.24000,-0.19000
041225_02.59.23.820,1.09800,0.06900,-0.66800,119.33300,71.61000,126.66500,-0.18100,0.22000,-0.11400,86.56000,0.32000
041225_02.59.23.832,1.19400,-0.03500,-0.71800,119.22800,62.52800,124.60000,-0.19700,0.21700,-0.11500,86.37000,-0.19000
041225_02.59.23.843,1.18800,-0.06500,-0.77600,118.12500,59.09700,123.86500,-0.21200,0.21500,-0.11400,86.51000,0.14000
041225_02.59.23.855,1.19800,-0.13800,-0.82800,115.20200,58.36200,127.64500,-0.21200,0.21500,-0.11400,85.97000,-0.54000
041225_02.59.23.867,1.21000,-0.17600,-0.86000,111.23000,54.95000,133.29800,-0.22600,0.20300,-0.12500,86.87000,0.90000
041225_02.59.23.879,1.16900,-0.25000,-0.80500,109.60300,50.03300,137.86500,-0.24600,0.19300,-0.11900,86.71000,-0.16000
041225_02.59.23.890,1.15800,-0.29700,-0.80500,119.00000,36.47000,142.38000,-0.26400,0.19200,-0.11600,86.72000,0.01000
041225_02.59.23.902,1.11100,-0.26600,-0.74200,132.31800,35.64700,144.34000,-0.28900,0.18200,-0.12500,86.21000,-0.51000
041225_02.59.23.914,1.03700,-0.28900,-0.65000,148.06800,35.31500,147.15800,-0.28900,0.18200,-0.12500,85.99000,-0.22000
041225_02.59.23.926,0.99100,-0.37000,-0.43400,160.31800,40.14500,149.50300,-0.31300,0.18600,-0.12200,86.72000,0.73000
041225_02.59.23.938,1.03400,-0.46600,-0.16700,166.32000,45.46500,151.34000,-0.34600,0.18800,-0.11600,86.13000,-0.59000
041225_02.59.23.949,1.04200,-0.55300,0.05300,160.93000,47.74000,155.96000,-0.38400,0.19600,-0.11400,86.78000,0.65000
041225_02.59.23.961,0.95800,-0.49000,-0.07800,146.98200,49.21000,162.36500,-0.42200,0.21600,-0.10800,86.89000,0.11000
041225_02.59.23.973,0.85100,-0.51600,-0.18400,138.75800,53.72500,166.60000,-0.42200,0.21600,-0.10800,86.16000,-0.73000
041225_02.59.23.985,0.71300,-0.43300,-0.31300,135.94000,55.35300,169.43500,-0.46400,0.23700,-0.10700,86.61000,0.45000
041225_02.59.23.996,0.61600,-0.34400,-0.41700,140.50800,55.40500,170.53800,-0.50200,0.27000,-0.11500,86.56000,-0.05000
041225_02.59.24.008,0.52300,-0.35200,-0.35600,150.55300,53.09500,166.88000,-0.53600,0.31100,-0.11100,86.44000,-0.12000
041225_02.59.24.020,0.40700,-0.33900,-0.26800,160.49300,48.54500,150.18500,-0.55500,0.35600,-0.11000,86.73000,0.29000
041225_02.59.24.032,0.24800,-0.33300,-0.13600,167.80700,47.84500,140.78800,-0.55500,0.35600,-0.11000,86.58000,-0.15000
041225_02.59.24.043,0.18600,-0.36200,-0.08100,175.66500,45.60500,132.19500,-0.57500,0.40900,-0.11800,86.73000,0.15000
041225_02.59.24.055,0.16400,-0.44000,-0.05200,183.69700,41.05500,123.97000,-0.58500,0.46500,-0.12100,86.72000,-0.01000
041225_02.59.24.067,0.19000,-0.45300,0.03900,191.36300,33.04000,116.30500,-0.58600,0.52100,-0.13100,86.19000,-0.53000
041225_02.59.24.079,0.24400,-0.44600,0.21000,199.51800,16.10000,114.76500,-0.57800,0.57700,-0.14300,86.81000,0.62000
041225_02.59.24.090,0.18000,-0.39500,0.49400,207.14800,-10.34200,115.29000,-0.57800,0.57700,-0.14300,86.63000,-0.18000
041225_02.59.24.102,0.23100,-0.22900,0.75200,206.72700,-38.65800,103.82700,-0.55900,0.63400,-0.15600,86.17000,-0.46000
041225_02.59.24.114,0.28600,-0.03400,0.70200,201.68700,-65.20500,89.07500,-0.53200,0.68900,-0.17300,87.20000,1.03000
041225_02.59.24.126,-0.05300,-0.03400,0.55500,185.93700,-74.39300,82.32000,-0.49800,0.73500,-0.18700,86.34000,-0.86000
041225_02.59.24.137,-0.26300,-0.15700,0.74500,162.55700,-47.61800,69.28300,-0.47300,0.77000,-0.21800,86.84000,0.50000
041225_02.59.24.149,-0.12500,-0.16400,1.03500,144.97000,-1.59200,48.98300,-0.47300,0.77000,-0.21800,87.48000,0.64000
041225_02.59.24.161,0.06600,-0.00100,0.92000,138.12800,7.68200,56.22800,-0.44500,0.80100,-0.24700,86.02000,-1.46000
041225_02.59.24.173,0.03300,-0.05600,0.97800,125.75500,5.70500,63.49000,-0.41700,0.83500,-0.26600,86.87000,0.85000
041225_02.59.24.184,-0.02200,-0.06800,0.98700,113.94200,-1.75000,62.54500,-0.38800,0.85800,-0.28900,86.73000,-0.14000
041225_02.59.24.196,-0.03300,0.00200,0.93900,100.55500,-5.04000,57.54000,-0.36200,0.87400,-0.30900,86.58000,-0.15000
041225_02.59.24.208,-0.07700,0.07100,0.87400,91.50700,-7.75300,53.70800,-0.36200,0.87400,-0.30900,86.32000,-0.26000
