timestamp,ax,ay,az,gx,gy,gz,mx,my,mz,altitude,relative_altitude
161225_14.47.55.791,-0.03400,-0.07500,1.00600,0.12300,-0.12300,-0.03500,-0.56900,-0.68000,-0.67000,193.16000,0.00000
161225_14.47.55.802,-0.03300,-0.07200,0.99900,0.10500,-0.12300,-0.03500,-0.57200,-0.67900,-0.67400,194.02000,0.86000
161225_14.47.55.814,-0.03400,-0.07700,0.99900,0.07000,-0.08700,-0.03500,-0.57300,-0.68400,-0.67600,193.01000,-1.01000
161225_14.47.55.825,-0.03500,-0.08300,1.00800,0.12300,-0.17500,-0.05300,-0.57200,-0.68200,-0.67500,193.40000,0.39000
161225_14.47.55.837,-0.03500,-0.08100,1.00500,0.07000,-0.05300,-0.05300,-0.56900,-0.68000,-0.67300,194.31000,0.91000
161225_14.47.55.848,-0.03200,-0.07600,1.00000,0.10500,-0.05300,-0.05300,-0.56900,-0.68000,-0.67300,193.40000,-0.91000
161225_14.47.55.860,-0.03200,-0.07500,0.99300,0.10500,-0.10500,-0.05300,-0.56900,-0.67700,-0.67900,193.67000,0.27000
161225_14.47.55.871,-0.03400,-0.08300,0.99400,0.05300,-0.08700,-0.05300,-0.56700,-0.67600,-0.67300,193.91000,0.24000
161225_14.47.55.883,-0.03200,-0.08400,1.00300,0.14000,-0.19200,-0.03500,-0.56900,-0.67600,-0.67400,194.46000,0.55000
161225_14.47.55.894,-0.03100,-0.08000,0.99700,0.14000,-0.15700,-0.05300,-0.57100,-0.68200,-0.67700,193.40000,-1.06000
161225_14.47.55.906,-0.03400,-0.07700,0.99000,0.10500,-0.08700,-0.03500,-0.57100,-0.68200,-0.67700,194.68000,1.28000
161225_14.47.55.917,-0.03400,-0.08300,1.00000,0.14000,-0.14000,-0.05300,-0.57000,-0.67800,-0.67400,193.95000,-0.73000
161225_14.47.55.929,-0.03400,-0.08200,1.00200,0.14000,-0.14000,-0.05300,-0.56900,-0.67700,-0.67700,193.64000,-0.31000
161225_14.47.55.940,-0.03200,-0.08000,1.00000,0.12300,-0.07000,-0.05300,-0.56700,-0.68400,-0.67800,193.60000,-0.04000
161225_14.47.55.952,-0.03200,-0.07600,0.99600,0.15700,-0.17500,-0.03500,-0.56900,-0.68100,-0.67400,193.74000,0.14000
161225_14.47.55.963,-0.03500,-0.08000,0.99500,0.10500,-0.07000,-0.05300,-0.56900,-0.68100,-0.67400,194.78000,1.04000
161225_14.47.55.975,-0.03500,-0.08100,1.00200,0.19200,-0.21000,-0.05300,-0.56900,-0.67800,-0.67200,193.50000,-1.28000
161225_14.47.55.986,-0.03500,-0.08000,1.00500,0.14000,-0.15700,-0.03500,-0.56900,-0.68300,-0.67500,193.48000,-0.02000
161225_14.47.55.998,-0.03200,-0.07500,1.00100,0.14000,-0.14000,-0.05300,-0.57000,-0.68800,-0.67600,193.86000,0.38000
161225_14.47.56.009,-0.03300,-0.07300,0.99700,0.12300,-0.07000,-0.03500,-0.56900,-0.68100,-0.67200,193.84000,-0.02000
161225_14.47.56.021,-0.03500,-0.07800,1.00500,0.15700,-0.17500,-0.03500,-0.56900,-0.68100,-0.67200,193.37000,-0.47000
161225_14.47.56.032,-0.03400,-0.07700,1.00500,0.10500,-0.07000,-0.01800,-0.57000,-0.68000,-0.67400,194.07000,0.70000
161225_14.47.56.043,-0.03200,-0.07200,1.00100,0.14000,-0.14000,-0.05300,-0.57100,-0.68500,-0.67200,194.12000,0.05000
161225_14.47.56.055,-0.03200,-0.07400,1.00000,0.10500,-0.10500,-0.03500,-0.57000,-0.68300,-0.68000,193.83000,-0.29000
161225_14.47.56.066,-0.03400,-0.07800,1.00000,0.12300,-0.12300,-0.03500,-0.57000,-0.68100,-0.67300,194.01000,0.18000
161225_14.47.56.078,-0.03200,-0.07800,1.00700,0.14000,-0.15700,-0.03500,-0.57000,-0.68100,-0.67300,193.56000,-0.45000
161225_14.47.56.089,-0.03200,-0.07300,1.00400,0.12300,-0.10500,-0.01800,-0.57000,-0.68300,-0.67500,193.15000,-0.41000
161225_14.47.56.101,-0.03400,-0.07300,1.00000,0.10500,-0.12300,-0.03500,-0.56600,-0.68300,-0.68100,193.86000,0.71000
161225_14.47.56.112,-0.03600,-0.07700,0.99900,0.08700,-0.14000,-0.01800,-0.57100,-0.67700,-0.68100,193.34000,-0.52000
161225_14.47.56.124,-0.03500,-0.07900,1.00600,0.10500,-0.17500,-0.03500,-0.56300,-0.68200,-0.69200,193.48000,0.14000
161225_14.47.56.135,-0.03500,-0.07600,1.01000,0.07000,-0.15700,-0.03500,-0.56300,-0.68200,-0.69200,194.00000,0.52000
161225_14.47.56.146,-0.03300,-0.07800,1.00100,0.08700,-0.15700,-0.01800,-0.56700,-0.67900,-0.69000,193.79000,-0.21000
161225_14.47.56.158,-0.03300,-0.08200,1.00200,0.10500,-0.17500,-0.01800,-0.56400,-0.68300,-0.68800,193.68000,-0.11000
161225_14.47.56.169,-0.03500,-0.08100,1.00300,0.10500,-0.17500,-0.03500,-0.56300,-0.68600,-0.68700,193.52000,-0.16000
161225_14.47.56.181,-0.03400,-0.07800,1.00400,0.08700,-0.14000,-0.05300,-0.56400,-0.68200,-0.68300,193.64000,0.12000
161225_14.47.56.192,-0.03200,-0.07500,0.99800,0.07000,-0.12300,-0.03500,-0.56400,-0.68200,-0.68300,193.94000,0.30000
161225_14.47.56.204,-0.03400,-0.07700,0.99500,0.08700,-0.15700,-0.05300,-0.56300,-0.68400,-0.68700,194.59000,0.65000
161225_14.47.56.215,-0.03400,-0.08100,0.99900,0.08700,-0.17500,-0.05300,-0.56600,-0.68200,-0.68800,193.35000,-1.24000
161225_14.47.56.227,-0.03500,-0.08000,1.00200,0.10500,-0.15700,-0.03500,-0.56500,-0.68400,-0.69100,193.50000,0.15000
161225_14.47.56.238,-0.03200,-0.07600,1.00200,0.14000,-0.15700,-0.01800,-0.56300,-0.68100,-0.68700,193.64000,0.14000
161225_14.47.56.250,-0.03100,-0.07600,0.99300,0.10500,-0.10500,-0.01800,-0.56300,-0.68100,-0.68700,193.99000,0.35000
161225_14.47.56.261,-0.03200,-0.08100,0.99300,0.15700,-0.17500,-0.01800,-0.56300,-0.68200,-0.69800,194.03000,0.04000
161225_14.47.56.272,-0.03300,-0.07900,0.99900,0.14000,-0.14000,-0.01800,-0.56300,-0.68300,-0.69200,193.50000,-0.53000
161225_14.47.56.284,-0.03200,-0.07500,0.99800,0.12300,-0.14000,-0.03500,-0.56400,-0.68300,-0.69100,194.07000,0.57000
161225_14.47.56.296,-0.03200,-0.07600,0.99300,0.10500,-0.08700,-0.01800,-0.57000,-0.68200,-0.68400,193.83000,-0.24000
161225_14.47.56.307,-0.03200,-0.08200,0.99700,0.14000,-0.15700,-0.01800,-0.57000,-0.68200,-0.68400,193.66000,-0.17000
161225_14.47.56.319,-0.03400,-0.08100,1.00000,0.14000,-0.12300,-0.01800,-0.56400,-0.68500,-0.68100,193.66000,0.00000
161225_14.47.56.331,-0.03400,-0.07900,1.00200,0.14000,-0.12300,-0.03500,-0.56300,-0.68300,-0.69000,193.55000,-0.11000
161225_14.47.56.342,-0.03000,-0.07300,0.99700,0.14000,-0.12300,-0.01800,-0.56700,-0.68000,-0.69000,193.47000,-0.08000
161225_14.47.56.354,-0.03200,-0.07700,0.99300,0.12300,-0.12300,-0.03500,-0.56800,-0.67800,-0.69100,193.48000,0.01000
161225_14.47.56.366,-0.03400,-0.08200,1.00400,0.15700,-0.21000,-0.03500,-0.56800,-0.67800,-0.69100,193.71000,0.23000
161225_14.47.56.378,-0.03500,-0.08000,1.00500,0.12300,-0.15700,-0.03500,-0.56700,-0.68100,-0.68600,194.41000,0.70000
161225_14.47.56.389,-0.03400,-0.07300,1.00400,0.12300,-0.12300,-0.05300,-0.56900,-0.68100,-0.68500,193.01000,-1.40000
161225_14.47.56.401,-0.03300,-0.07500,0.99900,0.08700,-0.08700,-0.05300,-0.57000,-0.68100,-0.69100,193.97000,0.96000
161225_14.47.56.412,-0.03200,-0.07900,1.00800,0.15700,-0.22800,-0.05300,-0.56400,-0.68200,-0.68300,194.43000,0.46000
161225_14.47.56.424,-0.03600,-0.07800,1.00600,0.10500,-0.08700,-0.03500,-0.56400,-0.68200,-0.68300,193.96000,-0.47000
161225_14.47.56.436,-0.03600,-0.07300,1.00200,0.17500,-0.14000,-0.03500,-0.56500,-0.67900,-0.68600,194.29000,0.33000
161225_14.47.56.448,-0.03500,-0.07100,1.00100,0.08700,-0.10500,-0.03500,-0.56700,-0.68300,-0.68900,193.82000,-0.47000
161225_14.47.56.459,-0.03300,-0.07500,1.00000,0.08700,-0.10500,-0.01800,-0.56500,-0.68400,-0.69000,193.87000,0.05000
161225_14.47.56.471,-0.03300,-0.08100,1.00900,0.12300,-0.19200,-0.01800,-0.56700,-0.68300,-0.68900,193.99000,0.12000
161225_14.47.56.483,-0.03500,-0.07800,1.00700,0.07000,-0.07000,-0.03500,-0.56700,-0.68300,-0.68900,194.21000,0.22000
161225_14.47.56.494,-0.03100,-0.07500,1.00600,0.12300,-0.17500,-0.05300,-0.56700,-0.68300,-0.68200,193.85000,-0.36000
161225_14.47.56.506,-0.03300,-0.07300,1.00000,0.03500,-0.08700,-0.03500,-0.56600,-0.68100,-0.69000,194.50000,0.65000
161225_14.47.56.518,-0.03400,-0.07900,1.00800,0.10500,-0.21000,-0.03500,-0.56700,-0.67900,-0.68000,193.61000,-0.89000
161225_14.47.56.529,-0.03600,-0.07900,1.00400,0.05300,-0.07000,-0.03500,-0.56900,-0.68100,-0.68200,193.57000,-0.04000
161225_14.47.56.541,-0.03100,-0.07400,1.00200,0.12300,-0.17500,-0.03500,-0.56900,-0.68100,-0.68200,193.70000,0.13000
161225_14.47.56.553,-0.03300,-0.07500,0.99500,0.03500,-0.05300,-0.03500,-0.56900,-0.68300,-0.68600,193.05000,-0.65000
161225_14.47.56.564,-0.03600,-0.08000,1.00000,0.05300,-0.14000,-0.01800,-0.56700,-0.68000,-0.68200,193.59000,0.54000
161225_14.47.56.576,-0.03200,-0.08200,1.00400,0.07000,-0.19200,-0.01800,-0.56500,-0.68400,-0.68000,193.92000,0.33000
161225_14.47.56.588,-0.03300,-0.08000,1.00000,0.08700,-0.08700,-0.01800,-0.56900,-0.68300,-0.68100,194.29000,0.37000
161225_14.47.56.599,-0.03000,-0.07300,0.99800,0.12300,-0.19200,-0.03500,-0.56900,-0.68300,-0.68100,193.89000,-0.40000
161225_14.47.56.611,-0.03300,-0.07400,0.99000,0.05300,-0.07000,-0.01800,-0.56900,-0.68000,-0.68300,194.40000,0.51000
161225_14.47.56.623,-0.03400,-0.08100,1.00000,0.14000,-0.21000,-0.03500,-0.56800,-0.68300,-0.68300,193.84000,-0.56000
161225_14.47.56.634,-0.03400,-0.08200,0.99900,0.10500,-0.17500,-0.03500,-0.57200,-0.68500,-0.68200,194.62000,0.78000
161225_14.47.56.646,-0.03400,-0.08000,0.99700,0.14000,-0.24500,-0.03500,-0.57000,-0.68800,-0.68500,193.85000,-0.77000
161225_14.47.56.657,-0.03200,-0.07600,0.99000,0.07000,-0.12300,-0.03500,-0.57000,-0.68800,-0.68500,193.71000,-0.14000
161225_14.47.56.669,-0.03100,-0.08100,1.00300,0.15700,-0.26200,-0.03500,-0.57000,-0.68500,-0.68400,193.88000,0.17000
161225_14.47.56.681,-0.03100,-0.08100,1.00100,0.08700,-0.12300,-0.03500,-0.56700,-0.68000,-0.68400,193.76000,-0.12000
161225_14.47.56.692,-0.03200,-0.07800,1.00200,0.14000,-0.14000,-0.01800,-0.56900,-0.68300,-0.68000,193.56000,-0.20000
161225_14.47.56.704,-0.03100,-0.07100,0.99800,0.12300,-0.14000,-0.03500,-0.57200,-0.67900,-0.68100,193.75000,0.19000
161225_14.47.56.715,-0.03400,-0.07600,0.99200,0.05300,-0.03500,-0.03500,-0.57200,-0.67900,-0.68100,193.17000,-0.58000
161225_14.47.56.727,-0.03400,-0.07900,1.00700,0.15700,-0.24500,-0.03500,-0.57000,-0.67900,-0.68100,193.84000,0.67000
161225_14.47.56.739,-0.03400,-0.07900,1.00300,0.07000,-0.07000,-0.01800,-0.56900,-0.68100,-0.68000,194.39000,0.55000
161225_14.47.56.750,-0.03200,-0.07600,1.00500,0.17500,-0.17500,-0.03500,-0.56900,-0.67600,-0.68300,194.07000,-0.32000
161225_14.47.56.762,-0.03400,-0.07400,1.00300,0.07000,-0.10500,-0.05300,-0.56700,-0.67700,-0.68100,194.19000,0.12000
161225_14.47.56.774,-0.03100,-0.07900,1.01000,0.14000,-0.28000,-0.03500,-0.56700,-0.67700,-0.68100,194.22000,0.03000
161225_14.47.56.785,-0.03200,-0.07800,1.00200,0.05300,-0.05300,-0.03500,-0.56600,-0.68000,-0.68800,193.41000,-0.81000
161225_14.47.56.797,-0.03200,-0.07300,1.00300,0.19200,-0.24500,-0.03500,-0.57000,-0.68000,-0.68100,194.59000,1.18000
161225_14.47.56.809,-0.03300,-0.07400,1.00200,0.08700,-0.14000,-0.05300,-0.56900,-0.67900,-0.68100,194.23000,-0.36000
161225_14.47.56.820,-0.03200,-0.07900,0.99800,0.10500,-0.15700,-0.01800,-0.56800,-0.68200,-0.68500,193.87000,-0.36000
161225_14.47.56.832,-0.03300,-0.08000,1.00900,0.14000,-0.26200,-0.05300,-0.56800,-0.68200,-0.68500,193.98000,0.11000
161225_14.47.56.843,-0.03600,-0.07800,1.00400,0.08700,-0.10500,-0.05300,-0.56400,-0.67800,-0.68300,193.25000,-0.73000
161225_14.47.56.855,-0.03500,-0.07200,1.00400,0.17500,-0.24500,-0.03500,-0.56800,-0.68200,-0.68200,193.72000,0.47000
161225_14.47.56.867,-0.03400,-0.07400,0.99900,0.10500,-0.12300,-0.03500,-0.56600,-0.68100,-0.68300,193.80000,0.08000
161225_14.47.56.878,-0.03300,-0.08000,1.00100,0.14000,-0.19200,-0.01800,-0.57100,-0.68200,-0.68000,194.17000,0.37000
161225_14.47.56.890,-0.03100,-0.08000,1.00700,0.12300,-0.08700,-0.01800,-0.57100,-0.68200,-0.68000,193.80000,-0.37000
161225_14.47.56.902,-0.03000,-0.07400,1.00000,0.12300,-0.14000,-0.03500,-0.57000,-0.68200,-0.67600,193.43000,-0.37000
161225_14.47.56.913,-0.03500,-0.07800,0.99800,0.05300,-0.03500,-0.03500,-0.56400,-0.67900,-0.69100,194.28000,0.85000
161225_14.47.56.925,-0.03700,-0.08100,1.00300,0.12300,-0.15700,-0.03500,-0.56000,-0.68000,-0.70100,193.98000,-0.30000
161225_14.47.56.936,-0.03700,-0.07800,1.00700,0.07000,-0.12300,-0.01800,-0.56200,-0.68100,-0.69600,194.06000,0.08000
161225_14.47.56.947,-0.03400,-0.07500,1.00100,0.08700,-0.10500,-0.01800,-0.56200,-0.68100,-0.69600,194.01000,-0.05000
161225_14.47.56.958,-0.03200,-0.07300,0.99800,0.10500,-0.14000,-0.01800,-0.56300,-0.67500,-0.69900,193.92000,-0.09000
161225_14.47.56.970,-0.03200,-0.07900,0.99600,0.08700,-0.12300,-0.01800,-0.56300,-0.67600,-0.69000,193.24000,-0.68000
161225_14.47.56.982,-0.03400,-0.08200,1.00000,0.12300,-0.21000,-0.03500,-0.56700,-0.68000,-0.69600,193.76000,0.52000
161225_14.47.56.993,-0.03300,-0.08000,1.00100,0.10500,-0.15700,-0.01800,-0.57000,-0.67900,-0.69600,193.78000,0.02000
161225_14.47.57.005,-0.03400,-0.07400,0.99700,0.10500,-0.17500,-0.01800,-0.57000,-0.67900,-0.69600,194.21000,0.43000
161225_14.47.57.017,-0.03500,-0.07300,0.99500,0.07000,-0.19200,-0.05300,-0.56900,-0.68000,-0.69100,194.01000,-0.20000
161225_14.47.57.029,-0.03500,-0.07900,1.00300,0.10500,-0.19200,-0.01800,-0.56500,-0.67700,-0.69300,193.80000,-0.21000
161225_14.47.57.040,-0.03600,-0.07700,1.00200,0.10500,-0.10500,-0.03500,-0.56800,-0.68000,-0.69400,193.50000,-0.30000
161225_14.47.57.052,-0.03200,-0.07300,0.99800,0.14000,-0.12300,-0.01800,-0.56900,-0.67500,-0.69300,194.17000,0.67000
161225_14.47.57.064,-0.03200,-0.07600,0.99500,0.12300,-0.08700,-0.01800,-0.56900,-0.67500,-0.69300,193.16000,-1.01000
161225_14.47.57.075,-0.03000,-0.08000,0.99700,0.15700,-0.10500,-0.03500,-0.56600,-0.67600,-0.69100,193.93000,0.77000
161225_14.47.57.087,-0.03300,-0.08100,1.00100,0.14000,-0.12300,-0.07000,-0.56900,-0.68000,-0.69200,193.76000,-0.17000
161225_14.47.57.099,-0.03500,-0.07400,0.99900,0.12300,-0.08700,-0.07000,-0.56400,-0.67800,-0.68900,193.93000,0.17000
161225_14.47.57.110,-0.03300,-0.07100,0.99500,0.10500,-0.15700,-0.05300,-0.56400,-0.67700,-0.69900,194.01000,0.08000
161225_14.47.57.122,-0.03500,-0.07600,0.99500,0.08700,-0.14000,-0.03500,-0.56400,-0.67700,-0.69900,193.68000,-0.33000
161225_14.47.57.134,-0.03600,-0.07900,1.00600,0.15700,-0.22800,-0.01800,-0.56300,-0.67700,-0.68700,194.23000,0.55000
161225_14.47.57.146,-0.03400,-0.07700,1.00400,0.15700,-0.14000,-0.01800,-0.56500,-0.68000,-0.68800,193.97000,-0.26000
161225_14.47.57.157,-0.03000,-0.07400,0.99600,0.12300,-0.08700,-0.03500,-0.56400,-0.67900,-0.68700,193.67000,-0.30000
161225_14.47.57.169,-0.03200,-0.08100,0.99600,0.14000,-0.10500,-0.03500,-0.56600,-0.67400,-0.68600,194.45000,0.78000
161225_14.47.57.181,-0.03200,-0.08100,1.00500,0.15700,-0.19200,-0.01800,-0.56600,-0.67400,-0.68600,193.73000,-0.72000
161225_14.47.57.192,-0.03300,-0.07500,1.00400,0.10500,-0.10500,-0.03500,-0.56200,-0.67700,-0.68500,193.32000,-0.41000
161225_14.47.57.204,-0.03300,-0.07000,1.00000,0.12300,-0.14000,-0.05300,-0.56100,-0.67700,-0.68500,194.53000,1.21000
161225_14.47.57.215,-0.03200,-0.07200,0.99900,0.07000,-0.12300,-0.05300,-0.56200,-0.67900,-0.68600,193.64000,-0.89000
161225_14.47.57.227,-0.03200,-0.07900,0.99900,0.07000,-0.15700,-0.01800,-0.55900,-0.67800,-0.68200,193.11000,-0.53000
161225_14.47.57.239,-0.03200,-0.08000,1.00600,0.10500,-0.17500,0.00000,-0.55900,-0.67800,-0.68200,192.91000,-0.20000
161225_14.47.57.250,-0.03100,-0.07700,1.00700,0.10500,-0.12300,-0.01800,-0.56600,-0.67700,-0.68400,194.01000,1.10000
161225_14.47.57.262,-0.03100,-0.07500,0.99800,0.07000,-0.08700,-0.01800,-0.56600,-0.68100,-0.68800,193.51000,-0.50000
161225_14.47.57.274,-0.03000,-0.07800,1.00300,0.07000,-0.14000,0.00000,-0.56400,-0.68000,-0.68500,194.05000,0.54000
161225_14.47.57.285,-0.03100,-0.07900,1.00600,0.07000,-0.08700,0.00000,-0.56900,-0.67700,-0.68400,193.47000,-0.58000
161225_14.47.57.297,-0.03400,-0.07300,1.00600,0.07000,-0.05300,-0.01800,-0.56900,-0.67700,-0.68400,194.06000,0.59000
161225_14.47.57.308,-0.03200,-0.07400,1.00100,0.03500,-0.07000,-0.01800,-0.56300,-0.67900,-0.68900,193.48000,-0.58000
161225_14.47.57.320,-0.03300,-0.07900,1.00100,0.03500,-0.08700,0.00000,-0.56800,-0.67400,-0.68200,193.69000,0.21000
161225_14.47.57.332,-0.03200,-0.07900,1.00700,0.07000,-0.10500,-0.01800,-0.57200,-0.67800,-0.67600,194.15000,0.46000
161225_14.47.57.343,-0.03300,-0.07700,1.00800,0.03500,-0.07000,0.00000,-0.57100,-0.67500,-0.67600,193.66000,-0.49000
161225_14.47.57.355,-0.03000,-0.07300,1.00100,0.05300,-0.07000,-0.01800,-0.57100,-0.67500,-0.67600,194.11000,0.45000
161225_14.47.57.366,-0.03000,-0.07600,0.99600,0.01800,-0.05300,0.00000,-0.57300,-0.67800,-0.67300,193.83000,-0.28000
161225_14.47.57.378,-0.03200,-0.08000,1.00200,0.05300,-0.12300,-0.01800,-0.57000,-0.68000,-0.68300,194.08000,0.25000
161225_14.47.57.390,-0.03400,-0.07900,1.00600,0.07000,-0.05300,-0.01800,-0.57200,-0.67700,-0.67800,193.67000,-0.41000
161225_14.47.57.401,-0.00100,-0.06900,0.99600,0.03500,-0.05300,-0.01800,-0.57000,-0.67500,-0.67700,193.97000,0.30000
161225_14.47.57.413,-0.03300,-0.07600,0.99400,0.01800,-0.07000,-0.01800,-0.57000,-0.67500,-0.67700,194.51000,0.54000
161225_14.47.57.425,-0.03300,-0.07700,1.00100,0.05300,-0.12300,-0.01800,-0.57100,-0.67800,-0.67700,193.68000,-0.83000
161225_14.47.57.436,-0.03600,-0.07500,1.00700,0.05300,-0.08700,-0.01800,-0.56900,-0.67800,-0.67400,193.82000,0.14000
161225_14.47.57.447,-0.03400,-0.07200,1.00000,0.05300,-0.07000,-0.03500,-0.56700,-0.67500,-0.67400,193.86000,0.04000
161225_14.47.57.459,-0.03400,-0.07400,0.99200,0.00000,-0.05300,-0.03500,-0.56600,-0.68100,-0.68200,193.65000,-0.21000
161225_14.47.57.470,-0.03400,-0.08000,0.99300,0.00000,-0.10500,-0.03500,-0.56600,-0.68100,-0.67500,193.74000,0.09000
161225_14.47.57.482,-0.03400,-0.08100,1.00200,0.05300,-0.14000,-0.03500,-0.56800,-0.67800,-0.67500,193.16000,-0.58000
161225_14.47.57.494,-0.03400,-0.07600,1.00200,0.07000,-0.10500,-0.03500,-0.57300,-0.67700,-0.67500,193.38000,0.22000
161225_14.47.57.505,-0.03400,-0.07500,0.99600,0.05300,-0.10500,-0.03500,-0.57400,-0.68100,-0.68300,193.72000,0.34000
161225_14.47.57.517,-0.03600,-0.07900,0.99200,0.14000,-0.14000,-0.07000,-0.57000,-0.67800,-0.67900,194.15000,0.43000
161225_14.47.57.529,-0.03600,-0.07600,1.00400,0.12300,-0.10500,-0.05300,-0.57000,-0.67800,-0.67700,193.99000,-0.16000
161225_14.47.57.540,-0.03400,-0.07500,0.99900,0.07000,-0.05300,-0.05300,-0.57300,-0.67800,-0.67700,193.77000,-0.22000
161225_14.47.57.552,-0.03100,-0.07700,0.99400,0.07000,-0.07000,-0.03500,-0.57300,-0.67600,-0.67600,193.94000,0.17000
161225_14.47.57.563,-0.02900,-0.08100,0.99800,0.08700,-0.10500,-0.03500,-0.57200,-0.67400,-0.67800,193.94000,0.00000
161225_14.47.57.575,-0.03300,-0.08300,1.00400,0.08700,-0.10500,-0.03500,-0.57000,-0.68100,-0.68000,194.07000,0.13000
161225_14.47.57.586,-0.03300,-0.07900,1.00500,0.10500,-0.14000,-0.03500,-0.57000,-0.68100,-0.68400,193.36000,-0.71000
161225_14.47.57.598,-0.03300,-0.07500,0.99800,0.08700,-0.08700,-0.01800,-0.57300,-0.68300,-0.68400,194.31000,0.95000
161225_14.47.57.610,-0.03500,-0.07800,0.99700,0.08700,-0.14000,-0.03500,-0.57100,-0.68000,-0.68200,194.15000,-0.16000
161225_14.47.57.621,-0.03600,-0.08100,1.00400,0.10500,-0.14000,-0.01800,-0.57200,-0.67500,-0.67800,193.91000,-0.24000
161225_14.47.57.633,-0.03400,-0.07700,1.01100,0.14000,-0.08700,0.00000,-0.57500,-0.67500,-0.68100,194.08000,0.17000
161225_14.47.57.644,-0.03100,-0.07600,1.00700,0.07000,-0.01800,0.00000,-0.57500,-0.67500,-0.68300,193.32000,-0.76000
161225_14.47.57.656,-0.03000,-0.08300,1.00100,0.14000,-0.12300,0.00000,-0.57200,-0.67500,-0.68300,193.37000,0.05000
161225_14.47.57.668,-0.03200,-0.08300,1.00600,0.12300,-0.08700,0.00000,-0.57000,-0.67700,-0.68400,193.45000,0.08000
161225_14.47.57.679,-0.03300,-0.07800,1.00500,0.15700,-0.08700,-0.01800,-0.57000,-0.67800,-0.68200,193.54000,0.09000
161225_14.47.57.691,-0.03400,-0.07400,0.99800,0.12300,-0.03500,-0.03500,-0.57500,-0.67700,-0.68200,193.67000,0.13000
161225_14.47.57.702,-0.03600,-0.07900,0.99500,0.14000,0.00000,-0.01800,-0.57500,-0.67700,-0.69200,194.22000,0.55000
161225_14.47.57.714,-0.03400,-0.08100,1.00500,0.17500,-0.10500,-0.01800,-0.56900,-0.67600,-0.69200,194.09000,-0.13000
161225_14.47.57.726,-0.03400,-0.07800,1.01200,0.15700,-0.03500,-0.03500,-0.57000,-0.68200,-0.68900,193.29000,-0.80000
161225_14.47.57.737,-0.03100,-0.07300,1.00400,0.14000,-0.05300,-0.05300,-0.57000,-0.67300,-0.69000,193.79000,0.50000
161225_14.47.57.749,-0.03000,-0.07600,0.99500,0.08700,-0.01800,-0.05300,-0.56800,-0.67700,-0.68600,193.68000,-0.11000
161225_14.47.57.761,-0.03500,-0.07900,0.99700,0.08700,-0.05300,-0.05300,-0.56800,-0.67700,-0.68600,193.54000,-0.14000
161225_14.47.57.772,-0.03600,-0.08000,1.00600,0.08700,-0.10500,-0.05300,-0.56600,-0.68000,-0.68600,193.81000,0.27000
161225_14.47.57.784,-0.03200,-0.07000,0.99600,0.08700,-0.08700,-0.05300,-0.56600,-0.68100,-0.69000,194.01000,0.20000
161225_14.47.57.795,-0.03300,-0.07300,0.99500,0.08700,-0.08700,-0.08700,-0.56800,-0.67900,-0.69000,194.33000,0.32000
161225_14.47.57.807,-0.03500,-0.07600,1.00400,0.08700,-0.17500,-0.07000,-0.56900,-0.68000,-0.68500,194.02000,-0.31000
161225_14.47.57.819,-0.03600,-0.07400,1.01000,0.10500,-0.12300,-0.05300,-0.56900,-0.68000,-0.68900,194.30000,0.28000
161225_14.47.57.830,-0.03400,-0.06900,1.00100,0.10500,-0.08700,-0.07000,-0.57000,-0.67900,-0.68900,194.04000,-0.26000
161225_14.47.57.842,-0.03300,-0.07100,0.99300,0.07000,-0.05300,-0.07000,-0.56900,-0.68100,-0.69400,193.33000,-0.71000
161225_14.47.57.854,-0.03500,-0.07700,0.99400,0.07000,-0.12300,-0.05300,-0.57300,-0.67600,-0.68800,193.99000,0.66000
161225_14.47.57.865,-0.03400,-0.07700,1.00200,0.10500,-0.14000,-0.05300,-0.57300,-0.67700,-0.68400,194.14000,0.15000
161225_14.47.57.877,-0.03400,-0.07100,1.00300,0.08700,-0.10500,-0.03500,-0.57300,-0.67700,-0.68500,193.46000,-0.68000
161225_14.47.57.888,-0.03200,-0.07000,0.99200,0.03500,-0.08700,-0.01800,-0.56700,-0.68200,-0.68500,193.24000,-0.22000
161225_14.47.57.900,-0.03300,-0.07500,1.00200,0.10500,-0.17500,-0.03500,-0.57000,-0.67900,-0.68300,193.44000,0.20000
161225_14.47.57.912,-0.03700,-0.07600,1.00900,0.07000,-0.12300,-0.01800,-0.56800,-0.67900,-0.68800,193.27000,-0.17000
161225_14.47.57.923,-0.03300,-0.07300,0.99900,0.05300,-0.08700,0.00000,-0.57100,-0.68300,-0.68200,193.84000,0.57000
161225_14.47.57.935,-0.03200,-0.07700,0.99100,0.01800,-0.01800,0.01800,-0.57100,-0.68300,-0.69200,193.72000,-0.12000
161225_14.47.57.947,-0.03300,-0.08200,0.99800,0.07000,-0.14000,0.00000,-0.57100,-0.67800,-0.69200,193.55000,-0.17000
161225_14.47.57.958,-0.03400,-0.08500,1.00800,0.08700,-0.14000,0.01800,-0.57000,-0.68000,-0.68700,194.11000,0.56000
161225_14.47.57.970,-0.03300,-0.08100,1.00600,0.08700,-0.10500,0.00000,-0.56500,-0.67900,-0.68300,193.81000,-0.30000
161225_14.47.57.981,-0.03200,-0.07700,0.99900,0.07000,-0.08700,-0.01800,-0.56600,-0.68300,-0.69200,193.54000,-0.27000
161225_14.47.57.993,-0.03600,-0.08100,0.99400,0.05300,-0.05300,-0.03500,-0.56600,-0.68300,-0.68700,193.93000,0.39000
161225_14.47.58.005,-0.03700,-0.08600,1.00700,0.08700,-0.14000,-0.01800,-0.56800,-0.67900,-0.68700,193.91000,-0.02000
161225_14.47.58.016,-0.03800,-0.08000,1.01400,0.05300,-0.05300,-0.01800,-0.56900,-0.68300,-0.68700,193.35000,-0.56000
161225_14.47.58.028,-0.03400,-0.08000,0.99300,0.05300,-0.05300,-0.01800,-0.56700,-0.68300,-0.68600,193.82000,0.47000
161225_14.47.58.040,-0.03200,-0.08300,1.00100,0.10500,-0.14000,-0.05300,-0.56800,-0.68100,-0.68700,193.46000,-0.36000
161225_14.47.58.051,-0.03200,-0.08200,1.00800,0.14000,-0.15700,-0.03500,-0.56800,-0.68100,-0.68500,194.03000,0.57000
161225_14.47.58.063,-0.03300,-0.07500,1.00600,0.08700,-0.12300,-0.05300,-0.57100,-0.68000,-0.68500,193.93000,-0.10000
161225_14.47.58.074,-0.03500,-0.07300,0.99500,0.08700,-0.08700,-0.05300,-0.56900,-0.67300,-0.68500,193.91000,-0.02000
161225_14.47.58.086,-0.03700,-0.07700,0.99400,0.08700,-0.12300,-0.08700,-0.57000,-0.68000,-0.68900,194.36000,0.45000
161225_14.47.58.098,-0.03600,-0.07900,1.00300,0.10500,-0.17500,-0.07000,-0.56800,-0.67900,-0.68100,194.08000,-0.28000
161225_14.47.58.109,-0.03500,-0.07400,1.01100,0.12300,-0.14000,-0.05300,-0.56800,-0.67900,-0.68200,193.74000,-0.34000
161225_14.47.58.121,-0.03200,-0.06800,1.00000,0.08700,-0.12300,-0.05300,-0.57100,-0.67700,-0.68200,194.16000,0.42000
161225_14.47.58.133,-0.02800,-0.07700,0.98900,0.08700,-0.12300,-0.05300,-0.57500,-0.67600,-0.68200,193.54000,-0.62000
161225_14.47.58.144,-0.02900,-0.08100,0.99700,0.15700,-0.15700,-0.05300,-0.57400,-0.68100,-0.67800,193.82000,0.28000
161225_14.47.58.156,-0.03200,-0.07200,1.00000,0.14000,-0.10500,-0.05300,-0.57500,-0.67700,-0.68300,194.62000,0.80000
161225_14.47.58.167,-0.03300,-0.07100,0.99200,0.07000,-0.08700,-0.05300,-0.57500,-0.67700,-0.68300,193.21000,-1.41000
161225_14.47.58.179,-0.03400,-0.07600,0.99700,0.08700,-0.15700,-0.05300,-0.57000,-0.67800,-0.68300,193.58000,0.37000
161225_14.47.58.191,-0.03400,-0.07900,1.00600,0.12300,-0.19200,0.00000,-0.57000,-0.67600,-0.68200,193.52000,-0.06000
161225_14.47.58.202,-0.03200,-0.07500,1.00800,0.10500,-0.12300,-0.01800,-0.57100,-0.67600,-0.68000,193.79000,0.27000
161225_14.47.58.214,-0.03000,-0.07400,0.99700,0.05300,-0.05300,-0.01800,-0.57200,-0.67400,-0.68700,193.88000,0.09000
161225_14.47.58.226,-0.03100,-0.07500,0.99000,0.03500,-0.08700,-0.01800,-0.57200,-0.67400,-0.68500,193.76000,-0.12000
161225_14.47.58.237,-0.03300,-0.08200,0.99700,0.07000,-0.12300,0.00000,-0.57100,-0.67700,-0.68500,193.50000,-0.26000
161225_14.47.58.249,-0.03700,-0.07900,1.00700,0.05300,-0.08700,0.00000,-0.57000,-0.67800,-0.68300,193.74000,0.24000
161225_14.47.58.260,-0.03400,-0.07300,0.99900,0.05300,-0.05300,-0.03500,-0.56900,-0.67700,-0.68600,193.62000,-0.12000
161225_14.47.58.272,-0.03300,-0.07700,0.99100,0.08700,-0.07000,-0.05300,-0.57200,-0.67600,-0.68800,193.56000,-0.06000
161225_14.47.58.284,-0.03700,-0.07700,1.01000,0.10500,-0.08700,-0.05300,-0.57200,-0.67600,-0.68800,193.61000,0.05000
161225_14.47.58.295,-0.03000,-0.07200,1.00500,0.08700,-0.03500,-0.03500,-0.57100,-0.67600,-0.68800,193.91000,0.30000
161225_14.47.58.307,-0.03300,-0.07100,0.99400,0.10500,0.03500,-0.05300,-0.57000,-0.67600,-0.68500,193.63000,-0.28000
161225_14.47.58.318,-0.03300,-0.07800,0.99500,0.14000,-0.07000,-0.03500,-0.57100,-0.67100,-0.68500,194.24000,0.61000
161225_14.47.58.330,-0.03600,-0.07900,1.00800,0.15700,-0.10500,-0.03500,-0.56900,-0.67100,-0.68600,193.67000,-0.57000
161225_14.47.58.341,-0.03300,-0.07500,1.00700,0.14000,-0.10500,-0.03500,-0.56900,-0.67100,-0.68800,194.14000,0.47000
161225_14.47.58.353,-0.03400,-0.07400,0.99700,0.10500,-0.03500,-0.03500,-0.57200,-0.67400,-0.68800,193.60000,-0.54000
161225_14.47.58.364,-0.03400,-0.07900,0.99800,0.10500,-0.10500,-0.05300,-0.57100,-0.67400,-0.68100,193.16000,-0.44000
161225_14.47.58.375,-0.03700,-0.07900,1.00700,0.12300,-0.17500,-0.05300,-0.57400,-0.67900,-0.68100,193.94000,0.78000
161225_14.47.58.387,-0.04000,-0.07600,1.01600,0.08700,-0.14000,-0.03500,-0.57100,-0.67800,-0.67800,193.64000,-0.30000
161225_14.47.58.398,-0.03700,-0.07200,0.97600,0.08700,-0.03500,-0.01800,-0.57100,-0.67800,-0.67900,193.77000,0.13000
161225_14.47.58.410,-0.03300,-0.08300,1.00300,0.14000,-0.08700,-0.01800,-0.56900,-0.67700,-0.67900,194.09000,0.32000
161225_14.47.58.421,-0.03000,-0.08300,1.01200,0.15700,-0.12300,-0.01800,-0.57300,-0.67800,-0.68100,194.26000,0.17000
161225_14.47.58.432,-0.02800,-0.07900,1.00600,0.12300,0.01800,-0.03500,-0.57100,-0.67400,-0.68100,193.03000,-1.23000
161225_14.47.58.444,-0.03100,-0.08100,0.99300,0.17500,0.08700,-0.05300,-0.57100,-0.67800,-0.68100,193.92000,0.89000
161225_14.47.58.455,-0.03400,-0.08400,0.99700,0.19200,0.05300,-0.03500,-0.57100,-0.67800,-0.67800,193.53000,-0.39000
161225_14.47.58.467,-0.03700,-0.08100,1.01100,0.15700,0.10500,-0.01800,-0.57100,-0.68000,-0.67800,193.80000,0.27000
161225_14.47.58.478,-0.03500,-0.07400,0.99800,0.24500,0.15700,0.00000,-0.57100,-0.67800,-0.67400,193.99000,0.19000
161225_14.47.58.490,-0.03300,-0.07700,0.99600,0.21000,0.14000,0.00000,-0.57600,-0.67800,-0.67700,193.72000,-0.27000
161225_14.47.58.501,-0.03100,-0.08200,0.99100,0.21000,0.03500,0.03500,-0.56900,-0.67500,-0.68600,193.94000,0.22000
161225_14.47.58.512,-0.02900,-0.08300,1.00200,0.21000,4.46300,0.00000,-0.56900,-0.67500,-0.68900,193.85000,-0.09000
161225_14.47.58.524,-0.02900,-0.07900,0.99100,0.21000,0.07000,-0.01800,-0.56700,-0.67600,-0.68900,193.32000,-0.53000
161225_14.47.58.535,-0.04100,-0.07800,0.98700,0.22800,0.01800,0.00000,-0.56800,-0.67800,-0.69100,193.43000,0.11000
161225_14.47.58.547,-0.04100,-0.07900,1.00000,0.21000,-0.12300,0.00000,-0.56500,-0.67800,-0.69000,193.42000,-0.01000
161225_14.47.58.558,-0.04000,-0.07300,1.00900,0.15700,-0.10500,-0.01800,-0.57000,-0.67900,-0.69700,194.69000,1.27000
161225_14.47.58.569,-0.03500,-0.07200,0.99600,0.14000,-0.05300,-0.01800,-0.57000,-0.67700,-0.69000,194.11000,-0.58000
161225_14.47.58.581,-0.03500,-0.07700,0.99400,0.15700,-0.12300,0.00000,-0.56800,-0.67700,-0.69000,193.22000,-0.89000
161225_14.47.58.592,-0.03300,-0.07600,1.00200,0.17500,-0.21000,-0.03500,-0.56700,-0.67700,-0.69000,194.01000,0.79000
161225_14.47.58.604,-0.03400,-0.07200,1.00500,0.17500,-0.15700,-0.05300,-0.56900,-0.67900,-0.69500,193.74000,-0.27000
161225_14.47.58.615,-0.03400,-0.07100,0.99400,0.15700,-0.14000,-0.07000,-0.56600,-0.67800,-0.69200,193.94000,0.20000
161225_14.47.58.627,-0.03800,-0.07400,0.99200,0.14000,-0.15700,-0.07000,-0.56600,-0.67800,-0.68800,193.77000,-0.17000
161225_14.47.58.638,-0.03800,-0.07300,1.00100,0.15700,-0.24500,-0.07000,-0.56700,-0.67800,-0.68800,193.79000,0.02000
161225_14.47.58.649,-0.03600,-0.06900,1.00800,0.10500,-0.17500,-0.08700,-0.56700,-0.67500,-0.68700,193.74000,-0.05000
161225_14.47.58.661,-0.03200,-0.07000,0.99700,0.10500,-0.19200,-0.08700,-0.56600,-0.67500,-0.68300,193.63000,-0.11000
161225_14.47.58.672,-0.03300,-0.07600,1.00100,0.15700,-0.24500,-0.07000,-0.56800,-0.67800,-0.68100,194.08000,0.45000
161225_14.47.58.684,-0.03500,-0.07600,1.01100,0.15700,-0.24500,-0.08700,-0.56800,-0.67400,-0.69000,193.84000,-0.24000
161225_14.47.58.695,-0.03500,-0.07200,1.00400,0.12300,-0.15700,-0.08700,-0.56700,-0.67400,-0.69000,193.86000,0.02000
161225_14.47.58.706,-0.03400,-0.07400,0.99100,0.10500,-0.17500,-0.07000,-0.56900,-0.67600,-0.68600,194.26000,0.40000
161225_14.47.58.718,-0.03700,-0.07900,0.99500,0.14000,-0.24500,-0.05300,-0.57000,-0.67400,-0.69000,193.66000,-0.60000
161225_14.47.58.729,-0.03500,-0.07600,1.01100,0.14000,-0.29800,-0.07000,-0.56900,-0.67800,-0.69200,194.59000,0.93000
161225_14.47.58.741,-0.03500,-0.07200,1.01100,0.14000,-0.24500,-0.05300,-0.56900,-0.67600,-0.68000,193.94000,-0.65000
161225_14.47.58.752,-0.03800,-0.07300,0.99800,0.10500,-0.15700,-0.05300,-0.57000,-0.67600,-0.68000,193.96000,0.02000
161225_14.47.58.764,-0.03800,-0.07600,0.99600,0.12300,-0.26200,-0.01800,-0.56600,-0.67700,-0.68200,194.47000,0.51000
161225_14.47.58.775,-0.03100,-0.08000,1.00500,0.12300,-0.19200,-0.01800,-0.57000,-0.67700,-0.68800,194.23000,-0.24000
161225_14.47.58.786,-0.03100,-0.07800,0.99400,0.10500,-0.14000,0.00000,-0.56900,-0.67800,-0.68600,193.88000,-0.35000
161225_14.47.58.798,-0.03000,-0.08000,0.99000,0.10500,-0.17500,0.00000,-0.56900,-0.67700,-0.68500,193.71000,-0.17000
161225_14.47.58.809,-0.03200,-0.08200,1.00000,0.17500,-0.21000,0.01800,-0.57300,-0.67700,-0.68500,193.42000,-0.29000
161225_14.47.58.821,-0.03600,-0.07600,1.00900,0.15700,-0.17500,0.03500,-0.57100,-0.67600,-0.68800,193.82000,0.40000
161225_14.47.58.832,-0.03800,-0.07300,0.99800,0.10500,-0.08700,0.03500,-0.57000,-0.67800,-0.69100,193.57000,-0.25000
161225_14.47.58.844,-0.03600,-0.07800,0.99200,0.10500,-0.10500,0.00000,-0.57100,-0.67700,-0.68800,193.67000,0.10000
161225_14.47.58.855,-0.03600,-0.08200,1.00300,0.14000,-0.19200,0.01800,-0.57100,-0.67800,-0.68900,193.10000,-0.57000
161225_14.47.58.866,-0.03200,-0.08200,1.00800,0.12300,-0.19200,0.00000,-0.57300,-0.67800,-0.68900,193.74000,0.64000
161225_14.47.58.878,-0.02700,-0.07700,1.00100,0.15700,-0.19200,0.00000,-0.57300,-0.67800,-0.69000,194.58000,0.84000
161225_14.47.58.889,-0.03100,-0.07800,0.99200,0.14000,-0.28000,-0.03500,-0.57200,-0.67800,-0.68900,194.09000,-0.49000
161225_14.47.58.901,-0.03700,-0.08000,1.00900,0.17500,-0.31500,-0.05300,-0.57500,-0.68000,-0.68300,193.48000,-0.61000
161225_14.47.58.912,-0.03800,-0.07300,1.01300,0.15700,-0.22800,-0.05300,-0.57500,-0.67800,-0.68600,193.99000,0.51000
161225_14.47.58.924,-0.03700,-0.07100,1.00000,0.14000,-0.14000,-0.05300,-0.57800,-0.67800,-0.68600,193.96000,-0.03000
161225_14.47.58.935,-0.03200,-0.07700,0.99900,0.14000,-0.19200,-0.05300,-0.57100,-0.67900,-0.68200,193.66000,-0.30000
161225_14.47.58.947,-0.02800,-0.07800,1.00800,0.15700,-0.21000,-0.05300,-0.57400,-0.67800,-0.67500,193.69000,0.03000
161225_14.47.58.958,-0.02900,-0.07300,1.01000,0.15700,-0.10500,-0.05300,-0.57100,-0.67700,-0.67900,193.78000,0.09000
161225_14.47.58.970,-0.03100,-0.07100,0.99500,0.10500,-0.05300,-0.07000,-0.57100,-0.68400,-0.67900,193.77000,-0.01000
161225_14.47.58.981,-0.03300,-0.07600,0.99200,0.10500,-0.08700,-0.08700,-0.57400,-0.68400,-0.67900,193.63000,-0.14000
161225_14.47.58.993,-0.03800,-0.07600,1.00400,0.14000,-0.15700,-0.07000,-0.57500,-0.68000,-0.67700,193.96000,0.33000
161225_14.47.59.004,-0.03600,-0.07000,1.01100,0.15700,-0.14000,-0.05300,-0.57200,-0.68100,-0.67500,193.85000,-0.11000
161225_14.47.59.015,-0.03400,-0.06800,1.00300,0.17500,-0.05300,0.01800,-0.57400,-0.67800,-0.68000,193.45000,-0.40000
161225_14.47.59.027,-0.03000,-0.07500,0.99800,0.17500,-0.15700,-0.01800,-0.57400,-0.67500,-0.67900,193.97000,0.52000
161225_14.47.59.038,-0.03000,-0.07400,1.00400,0.15700,-0.19200,0.00000,-0.57700,-0.67500,-0.67900,193.54000,-0.43000
161225_14.47.59.050,-0.03200,-0.07200,0.99700,0.12300,-0.07000,0.00000,-0.57400,-0.67200,-0.67800,194.25000,0.71000
161225_14.47.59.061,-0.03400,-0.07500,0.98700,0.14000,-0.07000,-0.01800,-0.57300,-0.67900,-0.67600,193.49000,-0.76000
161225_14.47.59.073,-0.03600,-0.07700,0.99600,0.12300,-0.19200,0.01800,-0.57200,-0.67500,-0.68300,193.82000,0.33000
161225_14.47.59.084,-0.03600,-0.07500,1.00900,0.12300,-0.19200,0.01800,-0.57200,-0.67800,-0.68100,193.79000,-0.03000
161225_14.47.59.096,-0.03100,-0.07200,1.00200,0.10500,-0.08700,0.01800,-0.57200,-0.67800,-0.68100,193.35000,-0.44000
161225_14.47.59.107,-0.03400,-0.07500,0.99200,0.10500,-0.08700,0.01800,-0.57100,-0.67400,-0.68100,193.54000,0.19000
161225_14.47.59.118,-0.03500,-0.08000,0.99700,0.14000,-0.15700,0.00000,-0.56800,-0.68100,-0.68000,194.07000,0.53000
161225_14.47.59.130,-0.03600,-0.07900,1.00600,0.14000,-0.14000,-0.01800,-0.57200,-0.68100,-0.68100,194.09000,0.02000
161225_14.47.59.141,-0.03400,-0.07700,0.99000,0.08700,-0.08700,-0.01800,-0.57200,-0.67700,-0.67500,193.38000,-0.71000
161225_14.47.59.153,-0.03500,-0.08200,0.99700,0.10500,-0.17500,0.00000,-0.57400,-0.67700,-0.67500,193.80000,0.42000
161225_14.47.59.164,-0.03300,-0.07800,1.01000,0.10500,-0.21000,0.00000,-0.57100,-0.67900,-0.68000,194.06000,0.26000
161225_14.47.59.175,-0.03300,-0.07400,1.00700,0.07000,-0.17500,-0.03500,-0.57100,-0.67600,-0.67500,193.66000,-0.40000
161225_14.47.59.187,-0.03600,-0.07700,0.99700,0.08700,-0.12300,-0.05300,-0.57000,-0.68100,-0.67900,193.98000,0.32000
161225_14.47.59.199,-0.03800,-0.07800,1.00000,0.12300,-0.17500,-0.07000,-0.57000,-0.67800,-0.67800,193.82000,-0.16000
161225_14.47.59.210,-0.03600,-0.08000,1.00900,0.12300,-0.26200,-0.07000,-0.57000,-0.67800,-0.67800,193.49000,-0.33000
161225_14.47.59.221,-0.03300,-0.07500,1.00500,0.10500,-0.21000,-0.05300,-0.57000,-0.67300,-0.67500,194.31000,0.82000
161225_14.47.59.233,-0.03000,-0.07400,0.99200,0.07000,-0.14000,-0.05300,-0.57400,-0.67700,-0.67900,194.06000,-0.25000
161225_14.47.59.244,-0.03200,-0.07800,0.99600,0.08700,-0.22800,-0.05300,-0.57400,-0.67700,-0.66800,193.70000,-0.36000
161225_14.47.59.256,-0.03400,-0.07700,1.01100,0.12300,-0.15700,-0.05300,-0.57400,-0.67500,-0.67500,194.00000,0.30000
161225_14.47.59.267,-0.03100,-0.07300,1.00300,0.07000,0.03500,-0.08700,-0.57400,-0.67500,-0.67500,194.38000,0.38000
161225_14.47.59.279,-0.04900,-0.07000,0.99900,0.10500,0.19200,-0.10500,-0.56900,-0.67600,-0.68300,194.01000,-0.37000
161225_14.47.59.290,-0.03200,-0.07400,0.99900,0.19200,-0.17500,-0.03500,-0.56400,-0.67700,-0.68600,194.15000,0.14000
161225_14.47.59.302,-0.02600,-0.07300,1.01500,0.08700,-0.15700,-0.03500,-0.56600,-0.67800,-0.68600,193.84000,-0.31000
161225_14.47.59.313,-0.02800,-0.07500,0.99300,0.07000,0.10500,-0.01800,-0.56200,-0.68100,-0.68400,193.76000,-0.08000
161225_14.47.59.324,-0.03400,-0.07400,0.98900,0.14000,-0.05300,-0.05300,-0.56200,-0.68100,-0.68400,193.19000,-0.57000
161225_14.47.59.336,-0.03500,-0.07400,1.00700,0.12300,-0.15700,-0.05300,-0.56600,-0.68100,-0.68500,194.17000,0.98000
161225_14.47.59.347,-0.03300,-0.07300,1.00700,0.07000,0.00000,-0.05300,-0.56500,-0.67900,-0.68900,192.99000,-1.18000
161225_14.47.59.359,-0.04000,-0.07100,0.99400,0.10500,0.03500,-0.03500,-0.56800,-0.68000,-0.68000,193.44000,0.45000
161225_14.47.59.370,-0.03700,-0.07400,0.99700,0.08700,-0.08700,-0.01800,-0.57000,-0.67700,-0.68800,193.25000,-0.19000
161225_14.47.59.381,-0.03200,-0.07700,1.00500,0.07000,-0.07000,0.00000,-0.57000,-0.67700,-0.68800,193.65000,0.40000
161225_14.47.59.393,-0.03000,-0.07500,0.99100,0.07000,-0.01800,0.00000,-0.56600,-0.67800,-0.68900,194.19000,0.54000
161225_14.47.59.404,-0.03700,-0.07900,0.98700,0.10500,-0.07000,-0.03500,-0.56400,-0.67900,-0.68600,193.71000,-0.48000
161225_14.47.59.416,-0.04000,-0.07900,1.00400,0.10500,-0.15700,-0.03500,-0.56600,-0.67900,-0.68600,193.93000,0.22000
161225_14.47.59.427,-0.03700,-0.07400,1.00900,0.07000,-0.14000,-0.03500,-0.56700,-0.68100,-0.68200,194.22000,0.29000
161225_14.47.59.439,-0.03400,-0.07500,0.99400,0.05300,-0.08700,-0.03500,-0.56700,-0.68100,-0.68200,193.38000,-0.84000
161225_14.47.59.450,-0.03600,-0.08000,0.99400,0.07000,-0.10500,-0.01800,-0.56300,-0.68400,-0.68100,193.56000,0.18000
161225_14.47.59.462,-0.03200,-0.07800,1.00500,0.10500,-0.17500,-0.01800,-0.56900,-0.67700,-0.68600,193.86000,0.30000
161225_14.47.59.473,-0.03000,-0.07600,1.00500,0.08700,-0.12300,-0.03500,-0.56700,-0.67500,-0.68200,193.88000,0.02000
161225_14.47.59.485,-0.03500,-0.07700,0.99100,0.05300,-0.03500,-0.07000,-0.56500,-0.67900,-0.69000,192.94000,-0.94000
161225_14.47.59.496,-0.03900,-0.08000,0.99300,0.07000,-0.08700,-0.07000,-0.56500,-0.67900,-0.69000,194.00000,1.06000
161225_14.47.59.507,-0.03700,-0.08000,1.00300,0.08700,-0.10500,-0.03500,-0.56500,-0.67700,-0.68900,193.87000,-0.13000
161225_14.47.59.519,-0.03200,-0.07400,1.00200,0.07000,-0.05300,-0.03500,-0.56600,-0.67800,-0.68100,193.71000,-0.16000
161225_14.47.59.530,-0.03400,-0.07500,0.99800,0.07000,-0.08700,-0.05300,-0.56700,-0.68300,-0.67500,193.74000,0.03000
161225_14.47.59.542,-0.03400,-0.07900,1.00500,0.10500,-0.15700,-0.08700,-0.56400,-0.67900,-0.67800,193.16000,-0.58000
161225_14.47.59.553,-0.03500,-0.07500,1.01300,0.08700,-0.14000,-0.07000,-0.56400,-0.67900,-0.67800,193.27000,0.11000
161225_14.47.59.565,-0.03400,-0.07100,1.00000,0.08700,-0.03500,-0.05300,-0.56700,-0.67800,-0.68100,193.94000,0.67000
161225_14.47.59.576,-0.03600,-0.07800,0.99100,0.05300,-0.01800,-0.05300,-0.57000,-0.67300,-0.68100,193.24000,-0.70000
161225_14.47.59.588,-0.03500,-0.07800,1.00200,0.08700,-0.14000,-0.03500,-0.56500,-0.68300,-0.68400,193.92000,0.68000
161225_14.47.59.599,-0.03000,-0.07600,1.01300,0.10500,-0.17500,-0.05300,-0.56800,-0.67700,-0.67800,193.36000,-0.56000
161225_14.47.59.611,-0.03000,-0.07100,1.00100,0.05300,-0.05300,-0.03500,-0.56800,-0.67700,-0.67800,193.54000,0.18000
161225_14.47.59.622,-0.03600,-0.07200,0.99400,0.05300,-0.05300,-0.05300,-0.56400,-0.68100,-0.68500,193.59000,0.05000
161225_14.47.59.634,-0.03600,-0.07400,1.00100,0.07000,-0.08700,-0.01800,-0.56700,-0.67600,-0.67700,194.25000,0.66000
161225_14.47.59.645,-0.03200,-0.07300,1.00200,0.05300,0.03500,0.01800,-0.56300,-0.67900,-0.68500,193.84000,-0.41000
161225_14.47.59.657,-0.03000,-0.07300,0.99100,0.05300,0.17500,-0.01800,-0.56200,-0.67800,-0.67900,193.09000,-0.75000
161225_14.47.59.668,-0.03300,-0.07800,0.99100,0.07000,0.01800,-0.03500,-0.56200,-0.67800,-0.67900,194.08000,0.99000
161225_14.47.59.679,-0.03200,-0.07800,1.00800,0.08700,0.01800,-0.05300,-0.56900,-0.68300,-0.67900,193.87000,-0.21000
161225_14.47.59.691,-0.03500,-0.07000,1.00500,0.05300,0.26200,-0.03500,-0.56700,-0.67900,-0.68000,193.59000,-0.28000
161225_14.47.59.702,-0.03800,-0.07000,0.98600,0.08700,0.29800,-0.05300,-0.56600,-0.67900,-0.68300,193.88000,0.29000
161225_14.47.59.714,-0.04000,-0.07500,0.99300,0.05300,0.14000,-0.05300,-0.56800,-0.68300,-0.67500,193.86000,-0.02000
161225_14.47.59.725,-0.03400,-0.07400,1.00600,0.05300,-0.01800,-0.03500,-0.56800,-0.68300,-0.67500,194.31000,0.45000
161225_14.47.59.737,-0.03000,-0.07200,1.00400,-0.05300,-0.10500,-0.03500,-0.56900,-0.68100,-0.67800,193.54000,-0.77000
161225_14.47.59.748,-0.03200,-0.07400,0.98600,0.01800,-0.05300,-0.07000,-0.57000,-0.68600,-0.67500,193.42000,-0.12000
161225_14.47.59.760,-0.03400,-0.07800,1.01000,0.01800,-0.21000,-0.07000,-0.56800,-0.68100,-0.67500,194.14000,0.72000
161225_14.47.59.771,-0.03700,-0.07300,1.01000,-0.01800,-0.14000,-0.05300,-0.56600,-0.68100,-0.68100,194.11000,-0.03000
161225_14.47.59.783,-0.03900,-0.07300,1.00000,-0.03500,0.01800,-0.03500,-0.56600,-0.68100,-0.68100,193.55000,-0.56000
161225_14.47.59.794,-0.03800,-0.07600,0.99800,-0.03500,-0.07000,-0.03500,-0.57100,-0.68000,-0.67100,193.37000,-0.18000
161225_14.47.59.806,-0.03100,-0.07900,1.01200,-0.01800,-0.14000,-0.01800,-0.56600,-0.68600,-0.67600,193.62000,0.25000
161225_14.47.59.817,-0.02900,-0.07700,1.01000,0.01800,-0.10500,-0.03500,-0.57000,-0.68500,-0.68000,193.77000,0.15000
161225_14.47.59.829,-0.03500,-0.07400,0.99600,0.01800,-0.03500,-0.05300,-0.56900,-0.68400,-0.67600,193.28000,-0.49000
161225_14.47.59.840,-0.03800,-0.07700,0.99400,0.03500,-0.10500,-0.05300,-0.56900,-0.68400,-0.67600,193.73000,0.45000
161225_14.47.59.852,-0.04200,-0.07900,1.00800,0.01800,-0.21000,-0.05300,-0.56800,-0.68600,-0.68000,193.16000,-0.57000
161225_14.47.59.863,-0.03900,-0.07400,1.01300,-0.01800,-0.14000,-0.03500,-0.56900,-0.67900,-0.67900,193.42000,0.26000
161225_14.47.59.875,-0.03600,-0.07400,0.99900,-0.05300,-0.14000,0.00000,-0.57200,-0.68400,-0.68300,193.85000,0.43000
161225_14.47.59.886,-0.03600,-0.07800,1.01100,0.00000,-0.17500,-0.01800,-0.57000,-0.68400,-0.68200,194.10000,0.25000
161225_14.47.59.898,-0.03400,-0.07600,1.00700,-0.01800,-0.12300,-0.03500,-0.57000,-0.68400,-0.68200,194.20000,0.10000
161225_14.47.59.909,-0.04100,-0.07700,0.99400,-0.03500,0.00000,-0.05300,-0.57100,-0.68100,-0.68200,193.43000,-0.77000
161225_14.47.59.921,-0.03500,-0.08300,0.99700,0.03500,-0.17500,-0.05300,-0.56900,-0.68100,-0.68200,193.50000,0.07000
161225_14.47.59.932,-0.04100,-0.07800,1.01300,0.08700,-0.26200,-0.03500,-0.56500,-0.68300,-0.67900,194.25000,0.75000
161225_14.47.59.943,-0.03200,-0.07600,1.00800,0.05300,-0.19200,0.00000,-0.56700,-0.68200,-0.67700,193.83000,-0.42000
161225_14.47.59.955,-0.03400,-0.07900,0.99000,0.08700,-0.12300,-0.01800,-0.56700,-0.68200,-0.67700,194.14000,0.31000
161225_14.47.59.966,-0.03600,-0.07700,1.00000,0.14000,-0.24500,-0.01800,-0.57000,-0.68200,-0.68200,193.44000,-0.70000
161225_14.47.59.978,-0.03200,-0.08000,1.01300,0.08700,-0.29800,-0.03500,-0.56700,-0.68100,-0.68200,193.82000,0.38000
161225_14.47.59.989,-0.03500,-0.07800,1.00000,0.07000,-0.05300,-0.03500,-0.56600,-0.67800,-0.68000,193.91000,0.09000
161225_14.48.00.001,-0.03500,-0.07800,0.99200,0.08700,-0.24500,-0.01800,-0.56500,-0.68200,-0.67900,194.15000,0.24000
161225_14.48.00.012,-0.03700,-0.08200,0.99800,0.08700,-0.17500,-0.01800,-0.56500,-0.68200,-0.67900,194.07000,-0.08000
161225_14.48.00.024,-0.03200,-0.07600,1.01100,0.12300,-0.26200,-0.03500,-0.56600,-0.67600,-0.67700,193.43000,-0.64000
161225_14.48.00.035,-0.03200,-0.07600,0.99400,0.01800,-0.01800,-0.03500,-0.56700,-0.68100,-0.68000,193.75000,0.32000
161225_14.48.00.046,-0.03800,-0.07600,0.99200,0.10500,-0.07000,-0.05300,-0.56700,-0.68100,-0.68200,193.77000,0.02000
161225_14.48.00.057,-0.03500,-0.07500,1.01100,0.14000,-0.21000,-0.05300,-0.56300,-0.67700,-0.68900,193.53000,-0.24000
161225_14.48.00.069,-0.03400,-0.07300,1.00100,0.03500,0.01800,-0.05300,-0.56300,-0.67700,-0.68900,194.00000,0.47000
161225_14.48.00.080,-0.02900,-0.07400,0.99000,0.10500,-0.12300,-0.05300,-0.56200,-0.68000,-0.69400,193.86000,-0.14000
161225_14.48.00.092,-0.03100,-0.07700,0.99300,0.08700,-0.12300,-0.03500,-0.56300,-0.67700,-0.69400,193.83000,-0.03000
161225_14.48.00.103,-0.03200,-0.07600,1.00300,0.10500,-0.19200,-0.07000,-0.56600,-0.67500,-0.69300,193.57000,-0.26000
161225_14.48.00.115,-0.03000,-0.07200,1.00200,0.07000,-0.22800,-0.07000,-0.56500,-0.67900,-0.68500,193.39000,-0.18000
161225_14.48.00.126,-0.03500,-0.07500,0.99200,0.10500,-0.17500,-0.05300,-0.56500,-0.67900,-0.68500,193.89000,0.50000
161225_14.48.00.137,-0.03800,-0.07600,1.01000,0.10500,-0.15700,-0.01800,-0.56700,-0.67700,-0.68900,194.24000,0.35000
161225_14.48.00.149,-0.03300,-0.07500,1.00100,0.10500,-0.03500,-0.01800,-0.56300,-0.67900,-0.68700,193.38000,-0.86000
161225_14.48.00.160,-0.03000,-0.07600,0.98700,0.08700,-0.08700,-0.01800,-0.56400,-0.67800,-0.68700,194.37000,0.99000
161225_14.48.00.172,-0.03300,-0.08000,0.99300,0.14000,-0.10500,-0.03500,-0.56600,-0.67900,-0.69000,194.32000,-0.05000
161225_14.48.00.183,-0.03600,-0.07600,1.00400,0.14000,-0.17500,-0.05300,-0.56600,-0.67900,-0.69000,193.83000,-0.49000
161225_14.48.00.195,-0.03700,-0.07600,1.00500,0.08700,-0.08700,-0.05300,-0.56500,-0.68100,-0.69000,193.60000,-0.23000
161225_14.48.00.206,-0.03800,-0.07600,0.99500,0.08700,-0.05300,-0.03500,-0.56300,-0.67500,-0.68800,193.58000,-0.02000
161225_14.48.00.217,-0.03800,-0.07700,1.00300,0.12300,-0.15700,-0.01800,-0.56300,-0.67700,-0.69000,193.24000,-0.34000
161225_14.48.00.229,-0.03500,-0.07600,1.01200,0.12300,-0.17500,0.00000,-0.56300,-0.67100,-0.68900,193.50000,0.26000
161225_14.48.00.240,-0.03100,-0.07300,1.00400,0.08700,-0.07000,0.00000,-0.56300,-0.67100,-0.68900,193.61000,0.11000
161225_14.48.00.252,-0.03300,-0.07400,0.99400,0.12300,-0.15700,-0.03500,-0.56500,-0.67400,-0.69200,193.47000,-0.14000
161225_14.48.00.264,-0.04100,-0.07500,1.01200,0.12300,-0.14000,-0.03500,-0.56600,-0.67700,-0.68700,194.04000,0.57000
161225_14.48.00.275,-0.03700,-0.07200,1.01000,0.07000,-0.12300,-0.03500,-0.56900,-0.67800,-0.68300,193.71000,-0.33000
161225_14.48.00.286,-0.03600,-0.07400,1.00100,0.03500,-0.08700,0.00000,-0.56700,-0.67700,-0.68800,193.92000,0.21000
161225_14.48.00.298,-0.03500,-0.07600,1.00400,0.08700,-0.17500,0.00000,-0.56700,-0.67700,-0.68800,193.58000,-0.34000
161225_14.48.00.309,-0.03200,-0.07400,1.01400,0.12300,-0.19200,0.00000,-0.56900,-0.67800,-0.68700,193.27000,-0.31000
161225_14.48.00.321,-0.03000,-0.07200,1.00400,0.07000,-0.08700,-0.01800,-0.57000,-0.67600,-0.69000,193.61000,0.34000
161225_14.48.00.332,-0.03400,-0.07400,0.99500,0.05300,-0.08700,-0.03500,-0.56300,-0.67600,-0.68800,193.83000,0.22000
161225_14.48.00.344,-0.04100,-0.07700,0.99700,0.07000,-0.12300,-0.05300,-0.56800,-0.68100,-0.68100,193.23000,-0.60000
161225_14.48.00.355,-0.03900,-0.07600,1.00700,0.10500,-0.17500,-0.07000,-0.56800,-0.68100,-0.68100,193.72000,0.49000
161225_14.48.00.367,-0.03400,-0.07300,1.00600,0.05300,-0.15700,-0.01800,-0.56300,-0.67700,-0.67800,193.88000,0.16000
161225_14.48.00.378,-0.03300,-0.07600,0.99300,0.10500,-0.19200,-0.03500,-0.57000,-0.67800,-0.69400,193.24000,-0.64000
161225_14.48.00.390,-0.03500,-0.07600,1.00700,0.14000,-0.19200,-0.05300,-0.56500,-0.67800,-0.68800,193.18000,-0.06000
161225_14.48.00.401,-0.03400,-0.07300,0.99900,0.08700,-0.14000,-0.05300,-0.55900,-0.67600,-0.69400,193.76000,0.58000
161225_14.48.00.413,-0.03500,-0.07700,0.98900,0.07000,-0.08700,-0.07000,-0.55900,-0.67600,-0.69400,193.92000,0.16000
161225_14.48.00.424,-0.03600,-0.07900,0.99200,0.07000,-0.15700,-0.03500,-0.56400,-0.67800,-0.69100,193.71000,-0.21000
161225_14.48.00.436,-0.03700,-0.07800,1.00300,0.10500,-0.21000,-0.01800,-0.56000,-0.67900,-0.69900,193.85000,0.14000
161225_14.48.00.448,-0.03100,-0.07600,1.00200,0.08700,-0.21000,-0.01800,-0.56700,-0.68100,-0.68800,194.03000,0.18000
161225_14.48.00.460,-0.03200,-0.07700,0.99100,0.05300,-0.10500,-0.03500,-0.57000,-0.68100,-0.68900,193.00000,-1.03000
161225_14.48.00.472,-0.03500,-0.08100,0.99200,0.10500,-0.17500,-0.01800,-0.57000,-0.68100,-0.68900,193.44000,0.44000
161225_14.48.00.483,-0.03600,-0.07900,1.00700,0.10500,-0.19200,-0.05300,-0.57200,-0.68100,-0.68700,193.64000,0.20000
161225_14.48.00.495,-0.03500,-0.07600,1.00700,0.08700,-0.05300,-0.03500,-0.57100,-0.68300,-0.68100,193.87000,0.23000
161225_14.48.00.506,-0.03300,-0.07800,0.99400,0.07000,-0.15700,0.00000,-0.57100,-0.67800,-0.67600,193.89000,0.02000
161225_14.48.00.518,-0.03200,-0.07900,1.00400,0.10500,-0.22800,0.00000,-0.57000,-0.67800,-0.68100,193.79000,-0.10000
161225_14.48.00.529,-0.03200,-0.07500,1.00500,0.07000,-0.14000,-0.05300,-0.57000,-0.67800,-0.68100,193.67000,-0.12000
161225_14.48.00.541,-0.03500,-0.07500,0.99500,0.07000,-0.10500,-0.05300,-0.57300,-0.67900,-0.67900,193.92000,0.25000
161225_14.48.00.553,-0.04000,-0.07600,0.99900,0.08700,-0.21000,-0.05300,-0.57000,-0.68400,-0.67400,194.19000,0.27000
161225_14.48.00.564,-0.03900,-0.07500,1.00700,0.08700,-0.26200,-0.03500,-0.57000,-0.67700,-0.68500,193.73000,-0.46000
161225_14.48.00.576,-0.03300,-0.07300,1.01200,0.07000,-0.22800,-0.05300,-0.56900,-0.68100,-0.68000,194.22000,0.49000
161225_14.48.00.587,-0.03000,-0.07500,0.99500,0.07000,-0.17500,-0.03500,-0.56900,-0.68100,-0.68000,193.36000,-0.86000
161225_14.48.00.599,-0.03400,-0.07600,0.99300,0.10500,-0.21000,-0.03500,-0.57400,-0.67900,-0.68300,193.47000,0.11000
161225_14.48.00.611,-0.03600,-0.07500,1.00700,0.10500,-0.31500,-0.07000,-0.56700,-0.67900,-0.68000,193.30000,-0.17000
161225_14.48.00.622,-0.03600,-0.07300,1.00900,0.07000,-0.14000,-0.05300,-0.57100,-0.67900,-0.67700,194.06000,0.76000
161225_14.48.00.634,-0.04000,-0.07500,0.99900,0.07000,-0.21000,-0.01800,-0.57200,-0.67800,-0.67900,193.75000,-0.31000
161225_14.48.00.646,-0.03500,-0.07600,1.01000,0.10500,-0.21000,-0.03500,-0.57200,-0.67800,-0.67900,193.58000,-0.17000
161225_14.48.00.657,-0.03000,-0.07500,1.00600,0.08700,-0.19200,-0.03500,-0.57100,-0.68100,-0.67700,194.29000,0.71000
161225_14.48.00.669,-0.02900,-0.07600,0.99500,0.07000,-0.15700,-0.03500,-0.56600,-0.68000,-0.67800,193.69000,-0.60000
161225_14.48.00.681,-0.03600,-0.08000,0.99500,0.08700,-0.15700,-0.05300,-0.56800,-0.67800,-0.67900,193.90000,0.21000
161225_14.48.00.692,-0.03700,-0.07700,1.00700,0.10500,-0.21000,-0.05300,-0.56900,-0.67900,-0.67700,194.27000,0.37000
161225_14.48.00.704,-0.03600,-0.07600,1.00900,0.05300,-0.17500,-0.05300,-0.56900,-0.67900,-0.67700,193.45000,-0.82000
161225_14.48.00.715,-0.03400,-0.07700,0.99600,0.01800,-0.10500,-0.03500,-0.57000,-0.67800,-0.67600,193.48000,0.03000
161225_14.48.00.727,-0.03400,-0.07800,1.00000,0.05300,-0.17500,-0.01800,-0.56900,-0.67600,-0.68100,193.87000,0.39000
161225_14.48.00.739,-0.03300,-0.07900,1.00600,0.08700,-0.22800,-0.01800,-0.57100,-0.67700,-0.67600,194.09000,0.22000
161225_14.48.00.750,-0.03000,-0.07500,1.00500,0.05300,-0.08700,-0.03500,-0.57100,-0.68000,-0.67900,193.67000,-0.42000
161225_14.48.00.762,-0.03500,-0.07800,0.99600,0.07000,-0.14000,-0.05300,-0.57100,-0.68000,-0.67900,193.54000,-0.13000
161225_14.48.00.773,-0.03800,-0.07800,1.00600,0.08700,-0.19200,-0.01800,-0.56800,-0.67800,-0.68100,194.26000,0.72000
161225_14.48.00.784,-0.03300,-0.07500,1.00700,0.03500,-0.15700,0.00000,-0.57000,-0.68400,-0.67400,193.77000,-0.49000
161225_14.48.00.796,-0.03300,-0.07700,0.99300,0.03500,-0.14000,0.00000,-0.57000,-0.67600,-0.68000,193.93000,0.16000
161225_14.48.00.807,-0.03300,-0.07800,0.99700,0.05300,-0.19200,-0.01800,-0.56700,-0.67700,-0.68000,193.81000,-0.12000
161225_14.48.00.819,-0.03500,-0.07700,1.00500,0.08700,-0.21000,-0.05300,-0.56700,-0.67700,-0.68000,193.78000,-0.03000
161225_14.48.00.830,-0.03500,-0.07600,1.00300,0.07000,-0.14000,-0.05300,-0.56900,-0.68100,-0.68200,194.13000,0.35000
161225_14.48.00.842,-0.03600,-0.07600,0.99300,0.07000,-0.10500,-0.03500,-0.56900,-0.68100,-0.68300,193.72000,-0.41000
161225_14.48.00.853,-0.04000,-0.07700,0.99600,0.08700,-0.14000,-0.01800,-0.56200,-0.67900,-0.68600,193.66000,-0.06000
161225_14.48.00.865,-0.03600,-0.07800,1.00900,0.10500,-0.17500,-0.03500,-0.56500,-0.67600,-0.68400,193.91000,0.25000
161225_14.48.00.876,-0.03100,-0.07600,1.00300,0.08700,-0.10500,-0.03500,-0.56500,-0.67600,-0.68400,194.08000,0.17000
161225_14.48.00.888,-0.03700,-0.07900,0.99500,0.12300,-0.15700,-0.07000,-0.56300,-0.67800,-0.68500,193.40000,-0.68000
161225_14.48.00.899,-0.03600,-0.07900,1.00800,0.10500,-0.19200,-0.07000,-0.56700,-0.67600,-0.69100,194.19000,0.79000
161225_14.48.00.911,-0.03600,-0.07500,1.00300,0.08700,-0.10500,-0.05300,-0.56600,-0.67900,-0.68600,193.30000,-0.89000
161225_14.48.00.922,-0.03500,-0.07700,0.99400,0.08700,-0.08700,-0.03500,-0.56900,-0.67700,-0.69000,193.86000,0.56000
161225_14.48.00.934,-0.03600,-0.07900,0.99700,0.10500,-0.17500,-0.01800,-0.56900,-0.67700,-0.69000,194.22000,0.36000
161225_14.48.00.946,-0.03200,-0.07700,1.00900,0.14000,-0.22800,-0.01800,-0.56300,-0.67600,-0.68800,193.86000,-0.36000
161225_14.48.00.957,-0.03100,-0.07500,1.00400,0.12300,-0.14000,-0.03500,-0.56600,-0.67900,-0.68600,194.05000,0.19000
161225_14.48.00.969,-0.03400,-0.07600,0.99400,0.10500,-0.08700,-0.03500,-0.56900,-0.67800,-0.68100,193.79000,-0.26000
161225_14.48.00.981,-0.03800,-0.07700,1.00200,0.14000,-0.15700,-0.03500,-0.56900,-0.67800,-0.68600,193.95000,0.16000
161225_14.48.00.992,-0.03700,-0.07600,1.00800,0.10500,-0.14000,-0.03500,-0.56900,-0.67800,-0.68600,193.39000,-0.56000
161225_14.48.01.004,-0.03100,-0.07600,0.97300,0.05300,-0.08700,-0.01800,-0.56900,-0.68000,-0.68600,193.57000,0.18000
161225_14.48.01.015,-0.03100,-0.07900,0.99800,0.07000,-0.15700,-0.01800,-0.57000,-0.67600,-0.68500,193.59000,0.02000
161225_14.48.01.027,-0.03300,-0.07600,1.00800,0.10500,-0.15700,-0.03500,-0.56700,-0.68400,-0.68800,192.96000,-0.63000
161225_14.48.01.038,-0.03500,-0.07200,1.00600,0.08700,-0.10500,-0.03500,-0.56900,-0.67700,-0.68800,193.57000,0.61000
161225_14.48.01.050,-0.03700,-0.07200,0.99700,0.07000,-0.05300,-0.03500,-0.56900,-0.67700,-0.68800,193.61000,0.04000
161225_14.48.01.062,-0.03700,-0.07500,1.00100,0.07000,-0.12300,-0.01800,-0.56600,-0.68000,-0.68900,193.76000,0.15000
161225_14.48.01.073,-0.03200,-0.07500,1.00900,0.08700,-0.15700,0.00000,-0.56700,-0.68000,-0.69100,193.71000,-0.05000
161225_14.48.01.085,-0.02600,-0.07300,1.00300,0.07000,-0.10500,0.01800,-0.56900,-0.67900,-0.69100,194.08000,0.37000
161225_14.48.01.097,-0.02900,-0.07600,0.99200,0.07000,-0.08700,-0.01800,-0.56700,-0.67900,-0.69000,193.87000,-0.21000
161225_14.48.01.108,-0.03500,-0.07700,0.99500,0.10500,-0.15700,-0.05300,-0.56700,-0.67900,-0.69000,193.31000,-0.56000
161225_14.48.01.119,-0.03800,-0.07600,1.00800,0.12300,-0.07000,-0.03500,-0.56700,-0.68000,-0.69300,193.28000,-0.03000
161225_14.48.01.131,-0.03600,-0.07200,0.99800,0.05300,-0.05300,-0.01800,-0.56600,-0.67800,-0.69000,193.58000,0.30000
161225_14.48.01.142,-0.03600,-0.07600,0.99800,0.07000,-0.10500,-0.01800,-0.56800,-0.67900,-0.69200,193.95000,0.37000
161225_14.48.01.154,-0.03300,-0.07800,1.00900,0.10500,-0.17500,-0.01800,-0.56700,-0.68100,-0.69700,193.95000,0.00000
161225_14.48.01.165,-0.03200,-0.07600,1.00300,0.08700,-0.10500,-0.01800,-0.56700,-0.68100,-0.69700,193.53000,-0.42000
161225_14.48.01.177,-0.03400,-0.07700,0.99200,0.05300,-0.05300,-0.03500,-0.56800,-0.67700,-0.69200,193.74000,0.21000
161225_14.48.01.188,-0.03900,-0.07900,0.99400,0.07000,-0.10500,-0.05300,-0.56900,-0.68100,-0.69200,193.84000,0.10000
161225_14.48.01.199,-0.03900,-0.07900,1.00400,0.10500,-0.12300,-0.05300,-0.56700,-0.68000,-0.69000,194.31000,0.47000
161225_14.48.01.211,-0.03500,-0.07700,1.00600,0.10500,-0.14000,-0.03500,-0.56400,-0.67900,-0.68900,193.96000,-0.35000
161225_14.48.01.222,-0.03300,-0.07700,0.99600,0.05300,-0.08700,-0.01800,-0.56400,-0.67900,-0.68900,193.75000,-0.21000
161225_14.48.01.234,-0.03500,-0.07900,0.99500,0.07000,-0.12300,-0.01800,-0.56300,-0.68200,-0.68900,193.44000,-0.31000
161225_14.48.01.245,-0.03500,-0.07900,1.00600,0.07000,-0.08700,-0.07000,-0.56700,-0.67900,-0.68400,193.81000,0.37000
161225_14.48.01.256,-0.03500,-0.07500,0.99400,0.03500,-0.05300,-0.07000,-0.56900,-0.68500,-0.68400,193.35000,-0.46000
161225_14.48.01.268,-0.03900,-0.07800,0.99300,0.05300,-0.10500,-0.03500,-0.56800,-0.67800,-0.68000,194.31000,0.96000
161225_14.48.01.279,-0.03500,-0.08100,1.00400,0.10500,-0.17500,-0.01800,-0.56800,-0.67800,-0.68000,194.05000,-0.26000
161225_14.48.01.291,-0.03000,-0.07800,1.00700,0.07000,-0.15700,-0.03500,-0.57100,-0.68100,-0.68800,193.80000,-0.25000
161225_14.48.01.302,-0.03200,-0.07700,0.99500,0.07000,-0.07000,-0.03500,-0.57000,-0.68100,-0.68300,194.32000,0.52000
161225_14.48.01.313,-0.03500,-0.07700,0.99400,0.08700,-0.12300,-0.01800,-0.56800,-0.68300,-0.68000,193.74000,-0.58000
161225_14.48.01.325,-0.03700,-0.07700,1.00400,0.12300,-0.15700,-0.01800,-0.56700,-0.68100,-0.67900,194.67000,0.93000
161225_14.48.01.337,-0.03600,-0.07600,1.00700,0.10500,-0.10500,-0.01800,-0.56700,-0.68100,-0.67900,193.48000,-1.19000
161225_14.48.01.348,-0.03400,-0.07500,0.99600,0.08700,-0.10500,-0.01800,-0.57000,-0.67900,-0.68100,193.87000,0.39000
161225_14.48.01.360,-0.03500,-0.07800,0.99400,0.07000,-0.14000,0.00000,-0.57200,-0.68300,-0.68400,193.07000,-0.80000
161225_14.48.01.371,-0.03300,-0.08000,1.00200,0.10500,-0.15700,0.00000,-0.57300,-0.68200,-0.68300,193.73000,0.66000
161225_14.48.01.383,-0.03400,-0.07500,0.99500,0.10500,-0.10500,-0.03500,-0.56600,-0.68200,-0.67600,194.08000,0.35000
161225_14.48.01.394,-0.04000,-0.07700,0.99500,0.10500,-0.12300,-0.03500,-0.56600,-0.68200,-0.67600,193.61000,-0.47000
161225_14.48.01.406,-0.03900,-0.07500,1.00200,0.10500,-0.17500,-0.01800,-0.57300,-0.68000,-0.67700,193.78000,0.17000
161225_14.48.01.418,-0.03400,-0.07300,1.00700,0.10500,-0.15700,-0.03500,-0.57500,-0.68000,-0.68000,193.36000,-0.42000
161225_14.48.01.429,-0.02800,-0.07500,1.00000,0.10500,-0.15700,0.00000,-0.57400,-0.68000,-0.68600,193.52000,0.16000
161225_14.48.01.441,-0.02900,-0.07700,1.00400,0.12300,-0.19200,-0.01800,-0.57000,-0.68100,-0.67900,193.52000,0.00000
161225_14.48.01.452,-0.03400,-0.07900,0.99400,0.10500,-0.08700,-0.03500,-0.57000,-0.68100,-0.67900,193.54000,0.02000
161225_14.48.01.463,-0.03500,-0.07500,1.00100,0.15700,-0.15700,-0.05300,-0.57100,-0.68000,-0.68200,193.81000,0.27000
161225_14.48.01.475,-0.03500,-0.07200,1.00700,0.08700,-0.17500,-0.07000,-0.57000,-0.68100,-0.68000,194.11000,0.30000
161225_14.48.01.486,-0.03900,-0.07600,0.99300,0.01800,0.00000,-0.03500,-0.57400,-0.68000,-0.68100,193.51000,-0.60000
161225_14.48.01.498,-0.03600,-0.07800,1.00100,0.08700,-0.19200,-0.01800,-0.57600,-0.68000,-0.67900,194.06000,0.55000
161225_14.48.01.509,-0.02900,-0.07500,0.99900,0.03500,-0.05300,-0.05300,-0.57600,-0.68000,-0.67900,193.96000,-0.10000
161225_14.48.01.520,-0.03400,-0.07600,0.99400,0.10500,-0.12300,-0.05300,-0.57300,-0.68200,-0.68000,194.28000,0.32000
161225_14.48.01.532,-0.03600,-0.07600,1.00100,0.07000,-0.14000,-0.07000,-0.57000,-0.68000,-0.68100,194.02000,-0.26000
161225_14.48.01.543,-0.03600,-0.07600,1.00800,0.08700,-0.14000,-0.05300,-0.57100,-0.67900,-0.67800,193.53000,-0.49000
161225_14.48.01.555,-0.03500,-0.07400,1.00000,0.05300,-0.07000,-0.01800,-0.57100,-0.68000,-0.67600,194.05000,0.52000
161225_14.48.01.566,-0.03500,-0.07800,0.99700,0.03500,-0.08700,-0.01800,-0.57100,-0.68000,-0.67600,193.58000,-0.47000
161225_14.48.01.578,-0.03000,-0.08100,1.00400,0.08700,-0.17500,0.00000,-0.57100,-0.67900,-0.68300,193.88000,0.30000
161225_14.48.01.589,-0.02900,-0.07800,1.00900,0.08700,-0.12300,-0.01800,-0.57200,-0.67900,-0.68300,193.78000,-0.10000
161225_14.48.01.601,-0.03000,-0.07400,0.99800,0.08700,-0.05300,-0.01800,-0.57000,-0.68000,-0.68000,193.89000,0.11000
161225_14.48.01.612,-0.03700,-0.07600,0.99500,0.08700,-0.07000,-4.48000,-0.57200,-0.67900,-0.67700,194.12000,0.23000
161225_14.48.01.624,-0.03900,-0.07800,1.00100,0.10500,-0.12300,-0.01800,-0.57200,-0.67900,-0.67700,194.26000,0.14000
161225_14.48.01.635,-0.03100,-0.07500,1.00000,0.07000,-0.03500,-0.01800,-0.57000,-0.67400,-0.68800,193.47000,-0.79000
161225_14.48.01.646,-0.03200,-0.07800,0.99200,0.07000,-0.05300,-0.01800,-0.56100,-0.67700,-0.69200,193.63000,0.16000
161225_14.48.01.658,-0.03200,-0.07900,1.00000,0.10500,-0.15700,-0.01800,-0.56500,-0.67900,-0.68900,193.75000,0.12000
161225_14.48.01.669,-0.03400,-0.07600,1.00800,0.10500,-0.07000,-0.03500,-0.56600,-0.67300,-0.68900,193.78000,0.03000
161225_14.48.01.681,-0.03400,-0.07400,0.99900,0.12300,-0.07000,-0.03500,-0.56600,-0.67300,-0.68900,194.47000,0.69000
161225_14.48.01.692,-0.03900,-0.07600,0.99300,0.07000,-0.05300,-0.03500,-0.56300,-0.67600,-0.68600,193.99000,-0.48000
161225_14.48.01.704,-0.03900,-0.08000,0.99800,0.08700,-0.14000,-0.01800,-0.56100,-0.67400,-0.69000,193.52000,-0.47000
161225_14.48.01.715,-0.03400,-0.07800,1.00900,0.12300,-0.15700,-0.01800,-0.56100,-0.67700,-0.69000,193.76000,0.24000
161225_14.48.01.727,-0.03100,-0.07500,0.99900,0.07000,-0.03500,-0.01800,-0.56600,-0.68100,-0.69400,193.86000,0.10000
161225_14.48.01.738,-0.03600,-0.07600,0.99100,0.08700,-0.03500,-0.03500,-0.56600,-0.68100,-0.69400,194.08000,0.22000
161225_14.48.01.750,-0.03800,-0.07600,1.00700,0.10500,-0.10500,-0.05300,-0.56400,-0.67900,-0.69000,193.81000,-0.27000
161225_14.48.01.761,-0.03500,-0.07400,0.99800,0.07000,-0.05300,-0.05300,-0.56600,-0.68000,-0.68600,194.40000,0.59000
161225_14.48.01.772,-0.03600,-0.07600,0.99200,0.08700,-0.05300,-0.03500,-0.56200,-0.68000,-0.68500,193.27000,-1.13000
161225_14.48.01.784,-0.03300,-0.07700,0.99900,0.12300,-0.17500,-0.01800,-0.56500,-0.68100,-0.68700,193.84000,0.57000
161225_14.48.01.795,-0.03300,-0.07500,1.00700,0.10500,-0.14000,-0.03500,-0.56500,-0.68100,-0.68700,193.98000,0.14000
161225_14.48.01.807,-0.03300,-0.07200,1.00000,0.10500,-0.12300,-0.03500,-0.56800,-0.67800,-0.68900,194.09000,0.11000
161225_14.48.01.819,-0.03800,-0.07400,0.99500,0.08700,-0.07000,-0.03500,-0.56900,-0.68100,-0.69500,193.57000,-0.52000
161225_14.48.01.830,-0.04000,-0.07700,0.99900,0.10500,-0.15700,-0.03500,-0.56800,-0.67600,-0.69100,194.13000,0.56000
161225_14.48.01.842,-0.03800,-0.07700,1.01100,0.10500,-0.15700,-0.03500,-0.57000,-0.68100,-0.69200,193.77000,-0.36000
161225_14.48.01.853,-0.03400,-0.07300,1.00400,0.08700,-0.12300,-0.03500,-0.57000,-0.68100,-0.69200,194.22000,0.45000
161225_14.48.01.865,-0.03400,-0.07600,0.99600,0.07000,-0.15700,-0.03500,-0.56900,-0.68100,-0.68500,193.60000,-0.62000
161225_14.48.01.877,-0.03300,-0.07800,1.01000,0.10500,-0.17500,-0.05300,-0.56700,-0.67900,-0.69400,193.55000,-0.05000
161225_14.48.01.888,-0.03500,-0.07400,1.00900,0.08700,-0.10500,-0.05300,-0.56600,-0.68000,-0.69300,193.53000,-0.02000
161225_14.48.01.899,-0.03700,-0.07600,0.99700,0.05300,-0.07000,-0.05300,-0.56500,-0.68000,-0.69300,193.55000,0.02000
161225_14.48.01.911,-0.03800,-0.07900,0.99900,0.07000,-0.12300,-0.01800,-0.56500,-0.68000,-0.69300,193.30000,-0.25000
161225_14.48.01.922,-0.03400,-0.08100,1.01000,0.10500,-0.19200,0.00000,-0.56700,-0.67900,-0.68700,193.16000,-0.14000
161225_14.48.01.934,-0.02800,-0.07600,1.00800,0.08700,-0.14000,0.00000,-0.56200,-0.68100,-0.68400,193.26000,0.10000
161225_14.48.01.945,-0.03000,-0.07500,0.99500,0.07000,-0.07000,-0.03500,-0.56500,-0.68400,-0.69100,193.74000,0.48000
161225_14.48.01.956,-0.03500,-0.07700,0.99500,0.10500,-0.15700,-0.03500,-0.56800,-0.68200,-0.68800,193.72000,-0.02000
161225_14.48.01.968,-0.04000,-0.07800,1.00900,0.12300,-0.17500,-0.05300,-0.56800,-0.68200,-0.68800,193.66000,-0.06000
161225_14.48.01.979,-0.03700,-0.07300,1.01000,0.08700,-0.12300,-0.03500,-0.56700,-0.67700,-0.68900,193.39000,-0.27000
161225_14.48.01.991,-0.03600,-0.07400,0.98800,0.07000,-0.15700,0.00000,-0.56500,-0.68100,-0.69200,193.34000,-0.05000
161225_14.48.02.002,-0.03100,-0.08100,1.00800,0.10500,-0.24500,0.00000,-0.56600,-0.67700,-0.68900,193.57000,0.23000
161225_14.48.02.014,-0.03000,-0.07800,1.01400,0.07000,-0.12300,-0.03500,-0.56600,-0.67800,-0.68600,193.97000,0.40000
161225_14.48.02.026,-0.03200,-0.07500,0.99100,0.05300,-0.05300,-0.05300,-0.56600,-0.67800,-0.68600,193.96000,-0.01000
161225_14.48.02.037,-0.03800,-0.07600,0.98900,0.07000,-0.08700,-0.05300,-0.57200,-0.67700,-0.67700,193.98000,0.02000
161225_14.48.02.049,-0.04000,-0.07700,0.99800,0.10500,-0.17500,-0.05300,-0.57100,-0.67800,-0.68000,193.51000,-0.47000
161225_14.48.02.061,-0.03600,-0.07500,1.01000,0.10500,-0.15700,-0.03500,-0.57000,-0.68000,-0.68000,193.54000,0.03000
161225_14.48.02.072,-0.03000,-0.07500,0.99700,0.08700,-0.14000,-0.01800,-0.57100,-0.67900,-0.67400,194.26000,0.72000
161225_14.48.02.084,-0.03300,-0.07800,0.99600,0.08700,-0.05300,-0.01800,-0.57100,-0.67900,-0.67400,193.59000,-0.67000
161225_14.48.02.096,-0.03100,-0.07900,0.99800,0.12300,-0.15700,-0.03500,-0.57000,-0.67900,-0.67700,193.94000,0.35000
161225_14.48.02.107,-0.03500,-0.07600,1.00700,0.12300,-0.14000,-0.05300,-0.57000,-0.67700,-0.68300,193.66000,-0.28000
161225_14.48.02.119,-0.03400,-0.07200,0.99800,0.07000,-0.05300,-0.03500,-0.57200,-0.67600,-0.67800,194.25000,0.59000
161225_14.48.02.131,-0.03600,-0.07600,0.99900,0.10500,-0.14000,-0.01800,-0.57100,-0.67500,-0.68000,193.86000,-0.39000
161225_14.48.02.142,-0.03300,-0.07600,1.01200,0.12300,-0.15700,-0.01800,-0.57100,-0.67500,-0.68000,193.80000,-0.06000
161225_14.48.02.154,-0.03000,-0.07200,1.00000,0.08700,-0.08700,0.00000,-0.57400,-0.67600,-0.68200,193.72000,-0.08000
161225_14.48.02.166,-0.03300,-0.07400,0.99500,0.10500,-0.08700,-0.01800,-0.57300,-0.67800,-0.67200,193.47000,-0.25000
161225_14.48.02.178,-0.03700,-0.07800,1.00000,0.10500,-0.15700,-0.03500,-0.57000,-0.68200,-0.66900,194.24000,0.77000
161225_14.48.02.189,-0.03700,-0.07600,1.01100,0.10500,-0.14000,-0.05300,-0.57100,-0.68100,-0.67600,193.45000,-0.79000
161225_14.48.02.201,-0.03600,-0.07300,1.00300,0.08700,-0.10500,-0.01800,-0.57100,-0.68100,-0.67600,193.45000,0.00000
161225_14.48.02.213,-0.03600,-0.07500,0.99200,0.05300,-0.08700,0.00000,-0.57100,-0.67900,-0.67500,193.71000,0.26000
161225_14.48.02.224,-0.03300,-0.07600,0.99900,0.07000,-0.19200,-0.01800,-0.57000,-0.67400,-0.67800,193.67000,-0.04000
161225_14.48.02.236,-0.03200,-0.07700,1.01100,0.08700,-0.19200,-0.03500,-0.57400,-0.67500,-0.67800,193.92000,0.25000
161225_14.48.02.248,-0.03200,-0.07200,1.00300,0.07000,-0.10500,-0.03500,-0.57300,-0.67600,-0.68200,193.91000,-0.01000
161225_14.48.02.259,-0.04000,-0.07700,0.99700,0.07000,-0.15700,-0.03500,-0.57300,-0.67600,-0.68200,193.51000,-0.40000
161225_14.48.02.271,-0.03600,-0.07700,1.01000,0.08700,-0.17500,-0.03500,-0.57100,-0.67800,-0.67900,193.97000,0.46000
161225_14.48.02.283,-0.03300,-0.07500,1.00300,0.08700,-0.10500,-0.01800,-0.57300,-0.67400,-0.67600,194.20000,0.23000
161225_14.48.02.294,-0.03100,-0.07700,0.99200,0.08700,-0.10500,-0.01800,-0.57200,-0.67600,-0.68300,193.15000,-1.05000
161225_14.48.02.306,-0.03400,-0.08000,0.99700,0.07000,-0.17500,-0.03500,-0.57400,-0.68100,-0.67300,193.64000,0.49000
161225_14.48.02.318,-0.03600,-0.07800,1.00900,0.08700,-0.14000,-0.05300,-0.57400,-0.68100,-0.67300,193.65000,0.01000
161225_14.48.02.329,-0.03600,-0.07400,1.00400,0.07000,-0.12300,-0.05300,-0.57500,-0.67800,-0.68000,194.19000,0.54000
161225_14.48.02.341,-0.03900,-0.07600,0.99500,0.03500,-0.08700,-0.03500,-0.57100,-0.67700,-0.67900,193.28000,-0.91000
161225_14.48.02.353,-0.03800,-0.08000,0.99700,0.07000,-0.15700,-0.01800,-0.57100,-0.67700,-0.68300,193.69000,0.41000
161225_14.48.02.365,-0.03400,-0.08100,1.00900,0.08700,-0.19200,-0.01800,-0.57400,-0.67800,-0.68100,193.24000,-0.45000
161225_14.48.02.376,-0.03000,-0.07800,0.99000,0.07000,-0.12300,-0.03500,-0.57400,-0.67800,-0.68100,193.62000,0.38000
161225_14.48.02.388,-0.03700,-0.08000,0.99300,0.12300,-0.17500,-0.03500,-0.57500,-0.67800,-0.67800,193.82000,0.20000
161225_14.48.02.400,-0.04000,-0.07600,1.00800,0.12300,-0.17500,-0.05300,-0.57000,-0.67600,-0.68300,194.14000,0.32000
161225_14.48.02.411,-0.03600,-0.07300,1.00400,0.08700,-0.14000,-0.03500,-0.57200,-0.67800,-0.67800,193.57000,-0.57000
161225_14.48.02.423,-0.03600,-0.07400,0.99400,0.05300,-0.08700,-0.01800,-0.56600,-0.68100,-0.68900,193.79000,0.22000
161225_14.48.02.434,-0.03300,-0.07700,0.99600,0.10500,-0.17500,0.00000,-0.56600,-0.68100,-0.68900,193.47000,-0.32000
161225_14.48.02.446,-0.03100,-0.07700,1.00700,0.12300,-0.22800,-0.01800,-0.56600,-0.67600,-0.69200,193.89000,0.42000
161225_14.48.02.458,-0.02800,-0.07500,1.00200,0.12300,-0.14000,-0.03500,-0.56500,-0.67900,-0.68800,193.96000,0.07000
161225_14.48.02.469,-0.03400,-0.07600,0.99100,0.10500,-0.10500,-0.03500,-0.57100,-0.67400,-0.69100,193.34000,-0.62000
161225_14.48.02.481,-0.03900,-0.07600,0.99400,0.14000,-0.17500,-0.05300,-0.56500,-0.67900,-0.68700,193.82000,0.48000
161225_14.48.02.493,-0.03900,-0.07600,1.00800,0.14000,-0.17500,0.00000,-0.56500,-0.67900,-0.68700,193.87000,0.05000
161225_14.48.02.505,-0.03300,-0.07500,0.99700,0.08700,-0.12300,0.00000,-0.57000,-0.67600,-0.69200,193.68000,-0.19000
161225_14.48.02.516,-0.03000,-0.07600,0.99800,0.10500,-0.19200,0.00000,-0.56800,-0.67600,-0.68800,193.15000,-0.53000
161225_14.48.02.528,-0.03400,-0.07700,1.00900,0.10500,-0.15700,-0.03500,-0.57100,-0.68000,-0.68900,193.65000,0.50000
161225_14.48.02.540,-0.03400,-0.07300,1.00400,0.08700,-0.12300,-0.05300,-0.57100,-0.67800,-0.69100,193.55000,-0.10000
161225_14.48.02.551,-0.03600,-0.07400,0.99400,0.07000,-0.10500,-0.05300,-0.57100,-0.67800,-0.69100,193.93000,0.38000
161225_14.48.02.563,-0.03900,-0.07600,0.99700,0.08700,-0.17500,-0.05300,-0.57000,-0.67500,-0.68900,193.43000,-0.50000
161225_14.48.02.575,-0.03600,-0.07700,1.01000,0.12300,-0.24500,-0.01800,-0.56900,-0.67900,-0.69200,194.03000,0.60000
161225_14.48.02.587,-0.03000,-0.07400,1.01000,0.07000,-0.17500,-0.01800,-0.57400,-0.67900,-0.68700,193.78000,-0.25000
161225_14.48.02.598,-0.03200,-0.07500,0.99500,0.05300,-0.10500,-0.01800,-0.57400,-0.68000,-0.69200,193.94000,0.16000
161225_14.48.02.610,-0.03500,-0.07500,1.00000,0.08700,-0.17500,-0.05300,-0.57400,-0.68000,-0.69200,194.06000,0.12000
161225_14.48.02.622,-0.03700,-0.07700,1.00900,0.08700,-0.12300,-0.05300,-0.57100,-0.67900,-0.68800,193.88000,-0.18000
161225_14.48.02.633,-0.03300,-0.07400,0.99500,0.07000,-0.10500,-0.03500,-0.56700,-0.68100,-0.69200,193.61000,-0.27000
161225_14.48.02.645,-0.03500,-0.07800,0.99500,0.07000,-0.15700,-0.03500,-0.57000,-0.67700,-0.68600,193.91000,0.30000
161225_14.48.02.657,-0.03300,-0.08000,1.00700,0.08700,-0.21000,-0.03500,-0.57000,-0.67900,-0.68900,194.08000,0.17000
161225_14.48.02.669,-0.03300,-0.07700,1.00900,0.07000,-0.12300,-0.03500,-0.57000,-0.67900,-0.68900,194.21000,0.13000
161225_14.48.02.680,-0.03500,-0.07400,0.99500,0.05300,-0.08700,-0.05300,-0.56700,-0.68300,-0.68500,193.71000,-0.50000
161225_14.48.02.692,-0.03900,-0.07600,0.99600,0.07000,-0.12300,-0.07000,-0.57000,-0.68300,-0.68400,193.72000,0.01000
161225_14.48.02.704,-0.03900,-0.07800,1.00600,0.10500,-0.14000,-0.03500,-0.57200,-0.68300,-0.68200,194.08000,0.36000
161225_14.48.02.715,-0.03500,-0.07600,1.00900,0.12300,-0.14000,0.00000,-0.57100,-0.68400,-0.68600,193.55000,-0.53000
161225_14.48.02.727,-0.02800,-0.07900,0.99100,0.05300,-0.08700,0.00000,-0.57100,-0.68400,-0.68600,193.91000,0.36000
161225_14.48.02.739,-0.03100,-0.08100,0.98900,0.08700,-0.12300,-0.01800,-0.57400,-0.68300,-0.68600,193.90000,-0.01000
161225_14.48.02.750,-0.03200,-0.08100,0.99900,0.08700,-0.14000,-0.03500,-0.56900,-0.67800,-0.68600,193.98000,0.08000
161225_14.48.02.762,-0.03700,-0.07500,0.99500,0.07000,-0.12300,-0.05300,-0.56700,-0.67900,-0.69100,194.08000,0.10000
161225_14.48.02.774,-0.04100,-0.07700,0.99600,0.08700,-0.10500,-0.01800,-0.57000,-0.68400,-0.68300,193.97000,-0.11000
161225_14.48.02.785,-0.03400,-0.07900,1.00100,0.12300,-0.21000,-0.01800,-0.57000,-0.68400,-0.68300,194.19000,0.22000
161225_14.48.02.797,-0.03100,-0.07500,1.01100,0.12300,-0.17500,0.00000,-0.56900,-0.67900,-0.68600,194.13000,-0.06000
161225_14.48.02.809,-0.02700,-0.07600,0.99400,0.12300,-0.12300,-0.01800,-0.57000,-0.68000,-0.68800,193.27000,-0.86000
161225_14.48.02.820,-0.03100,-0.07800,0.98900,0.10500,-0.08700,-0.03500,-0.56800,-0.68500,-0.69200,193.75000,0.48000
161225_14.48.02.832,-0.03600,-0.07900,0.99800,0.10500,-0.17500,-0.05300,-0.57200,-0.68100,-0.68700,193.68000,-0.07000
161225_14.48.02.844,-0.03800,-0.07700,1.00900,0.08700,-0.12300,-0.05300,-0.57200,-0.68100,-0.68700,193.95000,0.27000
161225_14.48.02.855,-0.03700,-0.07100,1.00100,0.05300,-0.10500,-0.01800,-0.56900,-0.67800,-0.67700,194.25000,0.30000
161225_14.48.02.867,-0.03700,-0.07400,0.99700,0.05300,-0.10500,0.00000,-0.57000,-0.68300,-0.68200,194.00000,-0.25000
161225_14.48.02.879,-0.03300,-0.07600,1.00100,0.12300,-0.14000,-0.01800,-0.57700,-0.68100,-0.68200,193.55000,-0.45000
161225_14.48.02.890,-0.03000,-0.07100,1.00200,0.08700,-0.08700,-0.03500,-0.57200,-0.68300,-0.68900,193.82000,0.27000
161225_14.48.02.902,-0.03600,-0.07400,0.99300,0.10500,-0.01800,-0.05300,-0.57200,-0.68300,-0.68900,193.97000,0.15000
161225_14.48.02.914,-0.03600,-0.07800,1.00000,0.14000,-0.14000,-0.05300,-0.57200,-0.67900,-0.68700,194.00000,0.03000
161225_14.48.02.925,-0.03600,-0.07800,1.01300,0.12300,-0.12300,-0.03500,-0.57200,-0.68000,-0.68500,193.92000,-0.08000
161225_14.48.02.937,-0.03000,-0.07300,1.00500,0.07000,-0.10500,0.00000,-0.57200,-0.68100,-0.68100,193.53000,-0.39000
161225_14.48.02.949,-0.03000,-0.07600,0.99400,0.08700,-0.07000,0.00000,-0.57400,-0.68400,-0.67800,193.55000,0.02000
161225_14.48.02.961,-0.03200,-0.07800,1.00000,0.14000,-0.15700,-0.01800,-0.57400,-0.68400,-0.67800,193.15000,-0.40000
161225_14.48.02.972,-0.03200,-0.07700,1.01200,0.12300,-0.15700,-0.03500,-0.57400,-0.68300,-0.68400,193.92000,0.77000
161225_14.48.02.984,-0.03600,-0.07200,1.00400,0.07000,-0.05300,-0.05300,-0.57300,-0.68000,-0.68500,194.13000,0.21000
161225_14.48.02.996,-0.03700,-0.07300,0.99300,0.07000,-0.10500,-0.01800,-0.57300,-0.68500,-0.69000,193.53000,-0.60000
161225_14.48.03.007,-0.03900,-0.07900,1.00800,0.10500,-0.17500,-0.01800,-0.57300,-0.67900,-0.68400,193.91000,0.38000
161225_14.48.03.019,-0.03400,-0.07600,1.00600,0.08700,-0.12300,-0.01800,-0.57300,-0.67900,-0.68400,193.21000,-0.70000
161225_14.48.03.031,-0.03500,-0.07600,0.99100,0.05300,-0.08700,-0.01800,-0.57500,-0.67900,-0.67900,193.85000,0.64000
161225_14.48.03.042,-0.03800,-0.07500,0.99600,0.08700,-0.17500,-0.01800,-0.57500,-0.68000,-0.68300,194.04000,0.19000
161225_14.48.03.054,-0.03900,-0.07600,1.00600,0.12300,-0.15700,-0.05300,-0.57200,-0.67800,-0.68200,192.99000,-1.05000
161225_14.48.03.066,-0.03700,-0.07500,1.00600,0.08700,-0.12300,-0.05300,-0.57400,-0.67900,-0.68600,193.59000,0.60000
161225_14.48.03.077,-0.03600,-0.07600,0.99400,0.05300,-0.08700,-0.03500,-0.57400,-0.67900,-0.68600,193.48000,-0.11000
161225_14.48.03.089,-0.03500,-0.08000,0.99300,0.07000,-0.17500,-0.01800,-0.57300,-0.68300,-0.68400,193.72000,0.24000
161225_14.48.03.101,-0.03300,-0.08000,1.00600,0.10500,-0.24500,-0.01800,-0.57300,-0.67900,-0.68200,194.23000,0.51000
161225_14.48.03.112,-0.03100,-0.07500,1.00300,0.05300,-0.19200,-0.03500,-0.57400,-0.68000,-0.69000,193.56000,-0.67000
161225_14.48.03.124,-0.03500,-0.07600,0.99100,0.05300,-0.17500,-0.05300,-0.57400,-0.67800,-0.69000,193.70000,0.14000
161225_14.48.03.136,-0.03900,-0.07600,1.00900,0.08700,-0.19200,-0.03500,-0.57400,-0.67800,-0.69000,193.08000,-0.62000
161225_14.48.03.148,-0.03100,-0.07500,1.00900,0.07000,-0.17500,-0.03500,-0.57200,-0.67700,-0.69000,193.56000,0.48000
161225_14.48.03.159,-0.02900,-0.07600,0.99300,0.07000,-0.10500,0.00000,-0.57400,-0.67500,-0.68600,193.08000,-0.48000
161225_14.48.03.171,-0.03000,-0.07800,0.99700,0.12300,-0.21000,-0.01800,-0.57500,-0.67800,-0.68100,194.41000,1.33000
161225_14.48.03.183,-0.03500,-0.07800,1.00800,0.12300,-0.22800,-0.03500,-0.57700,-0.68200,-0.68600,194.25000,-0.16000
161225_14.48.03.194,-0.03500,-0.07500,1.00500,0.10500,-0.15700,-0.03500,-0.57700,-0.68200,-0.68600,193.66000,-0.59000
161225_14.48.03.206,-0.03700,-0.07500,0.99600,0.12300,-0.15700,-0.05300,-0.57500,-0.67800,-0.68900,193.76000,0.10000
161225_14.48.03.218,-0.03900,-0.07600,0.99700,0.07000,-0.17500,-0.05300,-0.57300,-0.68000,-0.68600,194.00000,0.24000
161225_14.48.03.229,-0.03500,-0.07900,1.00800,0.12300,-0.22800,-0.03500,-0.56700,-0.67700,-0.69000,193.62000,-0.38000
161225_14.48.03.241,-0.02800,-0.07600,1.00700,0.08700,-0.21000,-0.01800,-0.57100,-0.67800,-0.68900,194.08000,0.46000
161225_14.48.03.253,-0.02900,-0.07700,0.99400,0.10500,-0.15700,-0.05300,-0.57100,-0.67800,-0.68900,193.65000,-0.43000
161225_14.48.03.264,-0.03600,-0.07600,1.00800,0.10500,-0.15700,-0.05300,-0.56700,-0.67900,-0.69100,193.47000,-0.18000
161225_14.48.03.276,-0.03400,-0.07300,1.00500,0.07000,-0.14000,-0.05300,-0.57300,-0.67800,-0.69300,194.08000,0.61000
161225_14.48.03.287,-0.03400,-0.07600,0.99600,0.03500,-0.07000,-0.01800,-0.57000,-0.68000,-0.68800,194.03000,-0.05000
161225_14.48.03.299,-0.03400,-0.07800,0.99900,0.08700,-0.14000,-0.01800,-0.56900,-0.67600,-0.69000,193.88000,-0.15000
161225_14.48.03.310,-0.03200,-0.07800,1.01200,0.08700,-0.17500,-0.01800,-0.56900,-0.67600,-0.69000,193.54000,-0.34000
161225_14.48.03.322,-0.03100,-0.07400,1.00400,0.07000,-0.10500,-0.03500,-0.57300,-0.67800,-0.68800,193.74000,0.20000
161225_14.48.03.333,-0.03200,-0.07500,0.99400,0.07000,-0.07000,-0.07000,-0.57100,-0.67600,-0.68800,193.69000,-0.05000
161225_14.48.03.345,-0.03900,-0.07700,0.99700,0.10500,-0.14000,-0.05300,-0.56800,-0.67500,-0.69300,194.43000,0.74000
161225_14.48.03.356,-0.03900,-0.07600,1.00800,0.12300,-0.14000,-0.03500,-0.56900,-0.67500,-0.69400,193.70000,-0.73000
161225_14.48.03.368,-0.03200,-0.07500,1.00700,0.08700,-0.12300,-0.01800,-0.56900,-0.67500,-0.69400,193.61000,-0.09000
161225_14.48.03.379,-0.03200,-0.07500,0.99400,0.10500,-0.17500,-0.03500,-0.56700,-0.67600,-0.69500,193.61000,0.00000
161225_14.48.03.390,-0.03400,-0.07800,1.00600,0.10500,-0.19200,-0.03500,-0.57400,-0.67600,-0.69000,193.58000,-0.03000
161225_14.48.03.402,-0.03300,-0.07600,1.00000,0.10500,-0.14000,-0.03500,-0.57300,-0.68000,-0.69000,193.53000,-0.05000
161225_14.48.03.413,-0.03600,-0.07600,0.99200,0.08700,-0.08700,-0.03500,-0.57400,-0.68000,-0.69000,193.28000,-0.25000
161225_14.48.03.425,-0.03700,-0.07800,0.99300,0.12300,-0.14000,-0.01800,-0.57400,-0.68000,-0.69000,193.78000,0.50000
161225_14.48.03.437,-0.03500,-0.08100,1.00700,0.14000,-0.22800,-0.01800,-0.57100,-0.68000,-0.69000,193.55000,-0.23000
161225_14.48.03.448,-0.03200,-0.07700,1.00300,0.10500,-0.15700,-0.03500,-0.56800,-0.67800,-0.68700,194.19000,0.64000
161225_14.48.03.460,-0.03300,-0.07700,0.99100,0.07000,-0.14000,-0.03500,-0.56700,-0.68200,-0.68900,193.92000,-0.27000
161225_14.48.03.472,-0.03500,-0.07800,0.99600,0.10500,-0.17500,-0.03500,-0.57200,-0.68200,-0.68800,193.64000,-0.28000
161225_14.48.03.483,-0.03700,-0.07800,1.00500,0.10500,-0.17500,-0.03500,-0.57200,-0.68200,-0.68800,194.28000,0.64000
161225_14.48.03.495,-0.03600,-0.07300,1.00800,0.08700,-0.14000,-0.03500,-0.56700,-0.67700,-0.68800,193.78000,-0.50000
161225_14.48.03.507,-0.03600,-0.07600,0.99400,0.10500,-0.14000,-0.01800,-0.56700,-0.68300,-0.68700,193.29000,-0.49000
161225_14.48.03.518,-0.03300,-0.07900,1.00800,0.12300,-0.17500,-0.01800,-0.56800,-0.67400,-0.69200,194.28000,0.99000
161225_14.48.03.530,-0.03000,-0.07500,1.00500,0.08700,-0.10500,-0.03500,-0.56900,-0.67500,-0.69200,193.59000,-0.69000
161225_14.48.03.542,-0.03200,-0.07400,0.99700,0.08700,-0.08700,-0.05300,-0.56900,-0.67500,-0.69200,193.46000,-0.13000
161225_14.48.03.553,-0.03700,-0.07500,0.99600,0.07000,-0.08700,-0.07000,-0.57100,-0.67700,-0.69300,193.68000,0.22000
161225_14.48.03.565,-0.03700,-0.07600,1.00800,0.10500,-0.15700,-0.03500,-0.56900,-0.67800,-0.69100,194.42000,0.74000
161225_14.48.03.577,-0.03200,-0.07300,1.01100,0.07000,-0.10500,-0.01800,-0.57000,-0.68000,-0.68800,193.51000,-0.91000
161225_14.48.03.588,-0.02900,-0.07400,0.99600,0.07000,-0.08700,-0.01800,-0.56600,-0.67700,-0.68800,194.21000,0.70000
161225_14.48.03.600,-0.03100,-0.07600,0.99800,0.08700,-0.14000,0.00000,-0.56600,-0.67700,-0.68800,193.63000,-0.58000
161225_14.48.03.612,-0.03200,-0.07600,1.00600,0.12300,-0.17500,-0.01800,-0.57100,-0.67800,-0.68600,193.84000,0.21000
161225_14.48.03.624,-0.03200,-0.07400,1.00600,0.10500,-0.12300,-0.05300,-0.57400,-0.67700,-0.68300,194.25000,0.41000
161225_14.48.03.635,-0.03500,-0.07500,0.99600,0.07000,-0.14000,-0.05300,-0.57500,-0.67700,-0.68300,193.96000,-0.29000
161225_14.48.03.647,-0.03500,-0.07900,1.00700,0.08700,-0.15700,-0.01800,-0.57100,-0.67600,-0.68800,194.09000,0.13000
161225_14.48.03.659,-0.03000,-0.07500,1.00700,0.08700,-0.10500,-0.01800,-0.57100,-0.67600,-0.68800,193.93000,-0.16000
161225_14.48.03.670,-0.03000,-0.07300,0.99400,0.08700,-0.07000,-0.01800,-0.57100,-0.67700,-0.68600,193.55000,-0.38000
161225_14.48.03.682,-0.03400,-0.07500,0.99100,0.08700,-0.12300,-0.03500,-0.57200,-0.68000,-0.68300,193.10000,-0.45000
161225_14.48.03.693,-0.04000,-0.07700,1.00500,0.12300,-0.14000,-0.03500,-0.57000,-0.67900,-0.68600,193.53000,0.43000
161225_14.48.03.704,-0.03600,-0.07400,1.01000,0.10500,-0.10500,-0.03500,-0.57000,-0.67700,-0.68400,193.96000,0.43000
161225_14.48.03.716,-0.03500,-0.07600,0.99400,0.03500,-0.03500,-0.01800,-0.57000,-0.67700,-0.68400,193.89000,-0.07000
161225_14.48.03.727,-0.03500,-0.08000,0.99500,0.07000,-0.10500,-0.01800,-0.57300,-0.67800,-0.68200,193.06000,-0.83000
161225_14.48.03.739,-0.03200,-0.08100,1.00600,0.10500,-0.12300,0.00000,-0.57200,-0.68200,-0.68600,193.93000,0.87000
161225_14.48.03.750,-0.03000,-0.07700,1.00500,0.07000,-0.07000,-0.03500,-0.57100,-0.68000,-0.69100,193.42000,-0.51000
161225_14.48.03.762,-0.03000,-0.07700,0.99100,0.07000,-0.08700,-0.05300,-0.57300,-0.68000,-0.68500,193.75000,0.33000
161225_14.48.03.773,-0.03900,-0.07700,1.00600,0.10500,-0.14000,-0.05300,-0.57300,-0.68000,-0.68500,194.13000,0.38000
161225_14.48.03.785,-0.03600,-0.07500,1.01100,0.05300,-0.10500,-0.03500,-0.57100,-0.68100,-0.68200,194.25000,0.12000
161225_14.48.03.796,-0.03400,-0.07400,0.99600,0.01800,-0.05300,-0.01800,-0.57000,-0.67900,-0.68600,194.52000,0.27000
161225_14.48.03.808,-0.03300,-0.07700,0.99600,0.07000,-0.17500,-0.01800,-0.57000,-0.67700,-0.68800,193.82000,-0.70000
161225_14.48.03.819,-0.03400,-0.07700,1.00700,0.08700,-0.17500,-0.01800,-0.57100,-0.68000,-0.68900,193.96000,0.14000
161225_14.48.03.831,-0.03100,-0.07500,1.00700,0.05300,-0.12300,-0.01800,-0.57100,-0.68000,-0.68900,193.25000,-0.71000
161225_14.48.03.842,-0.03500,-0.07600,0.99500,0.05300,-0.08700,-0.05300,-0.56900,-0.67800,-0.68800,193.38000,0.13000
161225_14.48.03.854,-0.04000,-0.07800,0.99500,0.08700,-0.15700,-0.03500,-0.57400,-0.67700,-0.69500,194.48000,1.10000
161225_14.48.03.865,-0.03800,-0.07800,1.00800,0.12300,-0.21000,-0.01800,-0.57400,-0.67800,-0.69200,193.94000,-0.54000
161225_14.48.03.877,-0.03500,-0.07600,1.00400,0.05300,-0.12300,-0.03500,-0.57000,-0.67700,-0.68500,194.18000,0.24000
161225_14.48.03.888,-0.03300,-0.07600,0.99600,0.07000,-0.15700,-0.03500,-0.57000,-0.67700,-0.68500,193.07000,-1.11000
161225_14.48.03.900,-0.03800,-0.07500,1.00600,0.12300,-0.19200,-0.03500,-0.56800,-0.67900,-0.68600,194.23000,1.16000
161225_14.48.03.911,-0.03700,-0.07500,1.00600,0.07000,-0.14000,-0.05300,-0.57400,-0.67800,-0.68100,193.30000,-0.93000
161225_14.48.03.923,-0.03500,-0.07600,0.99300,0.07000,-0.08700,-0.03500,-0.57300,-0.67800,-0.67700,193.92000,0.62000
161225_14.48.03.934,-0.03600,-0.07800,0.99500,0.08700,-0.21000,-0.03500,-0.57300,-0.67800,-0.67700,193.60000,-0.32000
161225_14.48.03.945,-0.03200,-0.07900,1.00900,0.10500,-0.19200,-0.03500,-0.57300,-0.67800,-0.67700,193.48000,-0.12000
161225_14.48.03.957,-0.02900,-0.07700,1.00200,0.10500,-0.15700,-0.03500,-0.57300,-0.68300,-0.67500,193.88000,0.40000
161225_14.48.03.968,-0.03200,-0.07800,0.99400,0.07000,-0.10500,-0.03500,-0.57300,-0.68000,-0.67700,193.73000,-0.15000
161225_14.48.03.980,-0.03600,-0.07800,0.99900,0.12300,-0.15700,-0.03500,-0.56800,-0.67900,-0.67500,194.08000,0.35000
161225_14.48.03.991,-0.03700,-0.07500,1.01200,0.14000,-0.19200,-0.05300,-0.56900,-0.67800,-0.68000,193.44000,-0.64000
161225_14.48.04.003,-0.03000,-0.07500,1.00300,0.07000,-0.12300,-0.01800,-0.56900,-0.67800,-0.68000,193.44000,0.00000
161225_14.48.04.014,-0.03400,-0.07800,0.99900,0.12300,-0.22800,-0.01800,-0.57300,-0.68300,-0.67800,193.55000,0.11000
161225_14.48.04.026,-0.03300,-0.07600,1.01000,0.10500,-0.21000,-0.01800,-0.56700,-0.68000,-0.68900,194.50000,0.95000
161225_14.48.04.037,-0.03200,-0.07500,0.99900,0.08700,-0.15700,-0.01800,-0.56800,-0.68200,-0.68800,193.30000,-1.20000
161225_14.48.04.049,-0.03600,-0.07800,0.99300,0.07000,-0.10500,-0.03500,-0.56800,-0.67700,-0.69000,193.33000,0.03000
161225_14.48.04.060,-0.03700,-0.07600,1.00200,0.08700,-0.17500,-0.01800,-0.56800,-0.67700,-0.69000,194.03000,0.70000
161225_14.48.04.072,-0.03300,-0.07500,1.01000,0.10500,-0.15700,-0.05300,-0.56300,-0.67700,-0.68500,194.15000,0.12000
161225_14.48.04.083,-0.02800,-0.07600,0.99700,0.07000,-0.12300,-0.05300,-0.56500,-0.67500,-0.68900,193.71000,-0.44000
161225_14.48.04.095,-0.03100,-0.07800,0.99100,0.08700,-0.14000,-0.01800,-0.56900,-0.67600,-0.68800,193.43000,-0.28000
161225_14.48.04.107,-0.03400,-0.07700,1.00000,0.10500,-0.15700,-0.05300,-0.56500,-0.67900,-0.69100,193.54000,0.11000
161225_14.48.04.119,-0.03600,-0.07300,1.00700,0.12300,-0.12300,-0.05300,-0.56500,-0.67900,-0.69100,193.48000,-0.06000
161225_14.48.04.130,-0.03300,-0.07600,0.99900,0.08700,-0.10500,-0.03500,-0.57000,-0.68100,-0.69200,193.53000,0.05000
161225_14.48.04.142,-0.03400,-0.07800,1.00700,0.12300,-0.19200,-0.03500,-0.56600,-0.68200,-0.68400,193.39000,-0.14000
161225_14.48.04.154,-0.02900,-0.07600,1.00800,0.10500,-0.15700,-0.01800,-0.56800,-0.67500,-0.68800,194.00000,0.61000
161225_14.48.04.165,-0.02900,-0.07800,0.99400,0.07000,-0.07000,-0.03500,-0.56800,-0.68100,-0.68800,193.87000,-0.13000
161225_14.48.04.177,-0.03500,-0.07800,0.99400,0.10500,-0.08700,-0.07000,-0.56800,-0.68100,-0.68800,193.28000,-0.59000
161225_14.48.04.189,-0.04000,-0.07600,1.00700,0.12300,-0.12300,-0.05300,-0.56700,-0.67900,-0.68600,193.75000,0.47000
161225_14.48.04.201,-0.03500,-0.07200,1.01100,0.12300,-0.15700,-0.05300,-0.56700,-0.68300,-0.68500,193.67000,-0.08000
161225_14.48.04.212,-0.03100,-0.07600,0.99900,0.08700,-0.10500,-0.03500,-0.56900,-0.68000,-0.68500,193.45000,-0.22000
161225_14.48.04.224,-0.03500,-0.07800,0.99600,0.08700,-0.12300,-0.01800,-0.57100,-0.68300,-0.68400,193.96000,0.51000
161225_14.48.04.236,-0.03500,-0.07700,1.00500,0.15700,-0.15700,-0.01800,-0.57100,-0.68300,-0.68400,193.57000,-0.39000
161225_14.48.04.247,-0.03300,-0.07500,1.00600,0.10500,-0.12300,-0.03500,-0.56900,-0.67800,-0.68900,193.88000,0.31000
161225_14.48.04.259,-0.03200,-0.07500,0.99400,0.07000,-0.08700,-0.03500,-0.56400,-0.67700,-0.69200,193.60000,-0.28000
161225_14.48.04.271,-0.04000,-0.07600,1.00800,0.07000,-0.10500,-0.01800,-0.56700,-0.68200,-0.68900,194.04000,0.44000
161225_14.48.04.283,-0.03400,-0.07400,1.00600,0.03500,-0.10500,0.00000,-0.56600,-0.68100,-0.68800,194.44000,0.40000
161225_14.48.04.294,-0.03300,-0.07400,0.99500,0.03500,-0.03500,0.00000,-0.56600,-0.68100,-0.68800,193.50000,-0.94000
161225_14.48.04.306,-0.03500,-0.07700,0.99500,0.08700,-0.12300,-0.01800,-0.56400,-0.67900,-0.68900,194.06000,0.56000
161225_14.48.04.318,-0.03600,-0.07500,1.00600,0.08700,-0.14000,-0.03500,-0.56700,-0.68100,-0.68600,193.31000,-0.75000
161225_14.48.04.329,-0.03600,-0.07300,1.00400,0.07000,-0.08700,-0.03500,-0.56700,-0.68000,-0.68400,193.78000,0.47000
161225_14.48.04.341,-0.03400,-0.07600,0.99500,0.05300,-0.05300,-0.03500,-0.56500,-0.68300,-0.68500,193.96000,0.18000
161225_14.48.04.353,-0.03700,-0.07900,0.99700,0.08700,-0.12300,-0.01800,-0.56500,-0.68300,-0.68500,194.30000,0.34000
161225_14.48.04.364,-0.03800,-0.07600,1.00900,0.12300,-0.19200,-0.01800,-0.56300,-0.67900,-0.68500,194.31000,0.01000
161225_14.48.04.376,-0.03500,-0.07600,1.00200,0.10500,-0.10500,-0.01800,-0.56000,-0.68000,-0.69000,193.68000,-0.63000
161225_14.48.04.388,-0.03500,-0.07700,0.99800,0.10500,-0.14000,-0.03500,-0.56600,-0.67900,-0.68300,193.81000,0.13000
161225_14.48.04.400,-0.03900,-0.07500,1.01000,0.12300,-0.17500,-0.05300,-0.56500,-0.67600,-0.68500,194.11000,0.30000
161225_14.48.04.411,-0.03500,-0.07600,1.00300,0.07000,-0.12300,-0.03500,-0.56500,-0.67600,-0.68500,193.35000,-0.76000
161225_14.48.04.423,-0.03400,-0.07900,0.99300,0.05300,-0.10500,-0.01800,-0.56800,-0.68000,-0.68500,194.04000,0.69000
161225_14.48.04.434,-0.03400,-0.08100,0.99700,0.10500,-0.21000,-0.03500,-0.56900,-0.67700,-0.69100,193.52000,-0.52000
161225_14.48.04.446,-0.03500,-0.07700,1.00700,0.10500,-0.19200,-0.05300,-0.56800,-0.68400,-0.68700,194.28000,0.76000
161225_14.48.04.457,-0.03300,-0.07700,0.99900,0.08700,-0.12300,-0.03500,-0.57000,-0.68000,-0.68500,193.79000,-0.49000
161225_14.48.04.469,-0.03700,-0.07800,0.99200,0.12300,-0.12300,-0.05300,-0.57000,-0.68000,-0.68500,193.72000,-0.07000
161225_14.48.04.480,-0.03700,-0.07600,1.00400,0.12300,-0.21000,-0.05300,-0.57200,-0.67900,-0.68000,193.48000,-0.24000
161225_14.48.04.492,-0.03200,-0.07500,1.01300,0.10500,-0.22800,-0.03500,-0.57000,-0.67900,-0.68200,193.98000,0.50000
161225_14.48.04.503,-0.03000,-0.07600,0.99800,0.08700,-0.12300,-0.03500,-0.56800,-0.67700,-0.68200,193.50000,-0.48000
161225_14.48.04.515,-0.03100,-0.07800,1.00200,0.10500,-0.21000,-0.05300,-0.57500,-0.68300,-0.67900,194.27000,0.77000
161225_14.48.04.527,-0.03300,-0.07500,1.00900,0.10500,-0.15700,-0.03500,-0.57500,-0.68300,-0.67900,193.58000,-0.69000
161225_14.48.04.538,-0.03100,-0.07500,0.99900,0.08700,-0.10500,-0.05300,-0.56900,-0.67600,-0.67900,194.30000,0.72000
161225_14.48.04.550,-0.03500,-0.07800,0.99600,0.08700,-0.12300,0.00000,-0.57000,-0.67900,-0.68000,193.36000,-0.94000
161225_14.48.04.562,-0.03300,-0.07700,1.00700,0.12300,-0.19200,0.00000,-0.57100,-0.67900,-0.68100,193.97000,0.61000
161225_14.48.04.573,-0.03000,-0.07400,1.00700,0.08700,-0.15700,-0.01800,-0.56700,-0.67500,-0.67800,193.63000,-0.34000
161225_14.48.04.585,-0.02900,-0.07700,0.99300,0.08700,-0.07000,0.00000,-0.56700,-0.67500,-0.67800,193.94000,0.31000
161225_14.48.04.597,-0.03500,-0.07700,0.99400,0.10500,-0.10500,-0.03500,-0.57300,-0.67800,-0.67500,193.94000,0.00000
161225_14.48.04.608,-0.03800,-0.07300,1.00600,0.10500,-0.14000,-0.03500,-0.57200,-0.68200,-0.68400,193.33000,-0.61000
161225_14.48.04.620,-0.03400,-0.07300,1.00800,0.08700,-0.08700,-0.01800,-0.57100,-0.68200,-0.67300,193.70000,0.37000
161225_14.48.04.631,-0.03100,-0.07600,0.99500,0.07000,-0.12300,-0.01800,-0.56700,-0.68100,-0.67300,193.74000,0.04000
161225_14.48.04.643,-0.03200,-0.07500,1.00700,0.08700,-0.17500,0.00000,-0.56700,-0.68100,-0.67300,193.17000,-0.57000
161225_14.48.04.655,-0.02900,-0.07500,1.00100,0.05300,-0.05300,-0.01800,-0.57200,-0.68200,-0.68200,193.42000,0.25000
161225_14.48.04.667,-0.03100,-0.07600,0.99000,0.08700,-0.03500,-0.03500,-0.57300,-0.68300,-0.68300,193.15000,-0.27000
161225_14.48.04.678,-0.03700,-0.07600,1.00000,0.08700,-0.10500,-0.05300,-0.57200,-0.68000,-0.68300,193.68000,0.53000
161225_14.48.04.690,-0.03600,-0.07200,1.01100,0.12300,-0.15700,-0.03500,-0.57200,-0.68300,-0.67600,193.44000,-0.24000
161225_14.48.04.702,-0.03300,-0.07200,1.00200,0.07000,-0.10500,-0.01800,-0.57200,-0.68300,-0.67600,193.74000,0.30000
161225_14.48.04.714,-0.03300,-0.07700,0.99100,0.07000,-0.05300,-0.01800,-0.57400,-0.67900,-0.68800,193.98000,0.24000
161225_14.48.04.725,-0.03400,-0.07600,1.00200,0.12300,-0.15700,-0.01800,-0.57200,-0.67800,-0.68100,193.75000,-0.23000
161225_14.48.04.737,-0.03300,-0.07500,1.00800,0.10500,-0.10500,-0.03500,-0.57200,-0.67800,-0.68300,193.85000,0.10000
161225_14.48.04.749,-0.03300,-0.07700,0.99700,0.05300,-0.05300,-0.05300,-0.57000,-0.67900,-0.68200,194.07000,0.22000
161225_14.48.04.761,-0.03600,-0.07900,0.99300,0.10500,-0.15700,-0.03500,-0.57000,-0.67900,-0.68200,193.83000,-0.24000
161225_14.48.04.772,-0.03600,-0.07600,1.00800,0.10500,-0.15700,-0.01800,-0.57200,-0.67700,-0.68300,193.89000,0.06000
161225_14.48.04.784,-0.03400,-0.07600,0.99400,0.07000,-0.08700,-0.01800,-0.57300,-0.67800,-0.68300,193.61000,-0.28000
161225_14.48.04.796,-0.03800,-0.07800,0.99300,0.10500,-0.10500,-0.05300,-0.57100,-0.68100,-0.68400,193.55000,-0.06000
161225_14.48.04.807,-0.03900,-0.07600,1.00900,0.12300,-0.14000,-0.03500,-0.57200,-0.67900,-0.68300,194.99000,1.44000
161225_14.48.04.819,-0.03400,-0.07500,1.00800,0.08700,-0.07000,-0.03500,-0.57200,-0.67900,-0.68300,193.66000,-1.33000
161225_14.48.04.831,-0.03200,-0.07700,0.99700,0.05300,-0.03500,-0.01800,-0.57000,-0.68300,-0.69200,193.42000,-0.24000
161225_14.48.04.842,-0.03500,-0.07900,0.99700,0.08700,-0.12300,0.00000,-0.56700,-0.68300,-0.68700,193.74000,0.32000
161225_14.48.04.854,-0.03700,-0.07700,1.00900,0.10500,-0.15700,-0.01800,-0.56600,-0.68100,-0.68400,194.20000,0.46000
161225_14.48.04.865,-0.03600,-0.07600,1.00100,0.05300,-0.07000,-0.03500,-0.57100,-0.68400,-0.68700,193.40000,-0.80000
161225_14.48.04.877,-0.03500,-0.07800,0.99100,0.07000,-0.07000,-0.03500,-0.57100,-0.68400,-0.68700,192.98000,-0.42000
161225_14.48.04.889,-0.03900,-0.07600,1.00200,0.07000,-0.12300,-0.03500,-0.56800,-0.68200,-0.68900,194.11000,1.13000
161225_14.48.04.900,-0.03300,-0.07400,1.00000,0.05300,-0.12300,0.00000,-0.56500,-0.68400,-0.68400,193.73000,-0.38000
161225_14.48.04.912,-0.03300,-0.07800,0.99000,0.07000,-0.10500,0.00000,-0.56700,-0.68400,-0.68900,193.02000,-0.71000
161225_14.48.04.924,-0.03700,-0.07800,1.00300,0.12300,-0.17500,-0.01800,-0.56700,-0.68200,-0.68800,193.75000,0.73000
161225_14.48.04.935,-0.03400,-0.07700,1.00800,0.10500,-0.14000,-0.03500,-0.56700,-0.68200,-0.68800,193.34000,-0.41000
161225_14.48.04.947,-0.03300,-0.07700,0.99500,0.07000,-0.05300,-0.05300,-0.56700,-0.68000,-0.68200,192.80000,-0.54000
161225_14.48.04.959,-0.03700,-0.07900,0.99600,0.07000,-0.12300,-0.01800,-0.56700,-0.68100,-0.68900,193.83000,1.03000
161225_14.48.04.970,-0.03800,-0.07500,1.00800,0.10500,-0.21000,-0.01800,-0.56500,-0.68000,-0.68900,194.03000,0.20000
161225_14.48.04.982,-0.03300,-0.07300,1.00800,0.07000,-0.14000,-0.01800,-0.56700,-0.67800,-0.68400,193.40000,-0.63000
161225_14.48.04.994,-0.03000,-0.07600,0.99100,0.07000,-0.08700,-0.03500,-0.56700,-0.67800,-0.68400,194.55000,1.15000
161225_14.48.05.005,-0.03600,-0.07800,0.99400,0.10500,-0.14000,-0.03500,-0.56900,-0.68100,-0.69000,193.90000,-0.65000
161225_14.48.05.017,-0.03600,-0.07500,1.00400,0.08700,-0.12300,-0.03500,-0.56900,-0.67800,-0.69300,193.41000,-0.49000
161225_14.48.05.029,-0.03200,-0.07700,0.99300,0.05300,-0.08700,-0.03500,-0.56600,-0.67700,-0.68900,193.12000,-0.29000
161225_14.48.05.040,-0.03400,-0.07700,0.99900,0.10500,-0.17500,-0.01800,-0.56900,-0.68100,-0.68900,193.84000,0.72000
161225_14.48.05.052,-0.03400,-0.07400,1.01000,0.10500,-0.17500,-0.03500,-0.56900,-0.68100,-0.68900,193.82000,-0.02000
161225_14.48.05.064,-0.03400,-0.07500,0.99500,0.05300,-0.10500,-0.03500,-0.56300,-0.67700,-0.68000,193.18000,-0.64000
161225_14.48.05.075,-0.03500,-0.07700,0.99100,0.08700,-0.10500,-0.03500,-0.56800,-0.68200,-0.68700,194.38000,1.20000
161225_14.48.05.087,-0.03600,-0.07600,1.00200,0.12300,-0.15700,-0.03500,-0.56500,-0.67900,-0.69000,194.37000,-0.01000
161225_14.48.05.099,-0.03400,-0.07200,1.01300,0.12300,-0.15700,-0.05300,-0.56500,-0.67400,-0.68300,193.63000,-0.74000
161225_14.48.05.110,-0.03100,-0.07400,0.99900,0.03500,-0.07000,-0.01800,-0.56500,-0.67400,-0.68300,193.53000,-0.10000
161225_14.48.05.122,-0.03200,-0.07600,0.98900,0.05300,-0.08700,-0.01800,-0.57100,-0.67700,-0.68500,194.10000,0.57000
161225_14.48.05.134,-0.03400,-0.07700,1.00400,0.10500,-0.14000,-0.03500,-0.56700,-0.68100,-0.68500,193.88000,-0.22000
161225_14.48.05.145,-0.00100,-0.07700,0.99400,0.07000,-0.08700,-0.05300,-0.56600,-0.67700,-0.68500,193.85000,-0.03000
161225_14.48.05.157,-0.03500,-0.07800,0.99600,0.08700,-0.14000,-0.03500,-0.56600,-0.68100,-0.68100,194.05000,0.20000
161225_14.48.05.169,-0.03600,-0.07500,1.01100,0.10500,-0.17500,-0.01800,-0.56600,-0.68100,-0.68100,194.06000,0.01000
161225_14.48.05.180,-0.03100,-0.07400,1.00900,0.07000,-0.15700,-0.01800,-0.56500,-0.67900,-0.68400,193.55000,-0.51000
161225_14.48.05.192,-0.03000,-0.07700,0.99200,0.03500,-0.08700,-0.01800,-0.56900,-0.68100,-0.68300,193.92000,0.37000
161225_14.48.05.204,-0.03500,-0.07700,0.99900,0.12300,-0.17500,-0.01800,-0.56900,-0.67700,-0.68400,193.65000,-0.27000
161225_14.48.05.215,-0.03500,-0.07500,1.01000,0.10500,-0.12300,-0.05300,-0.56900,-0.68200,-0.67600,193.74000,0.09000
161225_14.48.05.227,-0.03100,-0.07700,1.00100,0.07000,-0.10500,-0.03500,-0.56900,-0.68200,-0.67600,193.70000,-0.04000
161225_14.48.05.239,-0.03000,-0.07900,0.99500,0.08700,-0.12300,-0.01800,-0.57200,-0.68100,-0.67700,193.94000,0.24000
161225_14.48.05.250,-0.03600,-0.07800,1.00300,0.07000,-0.15700,-0.01800,-0.57000,-0.68200,-0.68200,193.26000,-0.68000
161225_14.48.05.262,-0.03400,-0.07600,1.01100,0.07000,-0.07000,-0.05300,-0.56700,-0.67600,-0.68100,193.46000,0.20000
161225_14.48.05.274,-0.03600,-0.08000,0.99300,0.10500,-0.07000,-0.03500,-0.57100,-0.68100,-0.68000,194.07000,0.61000
161225_14.48.05.285,-0.03600,-0.07800,1.00500,0.12300,-0.15700,-0.03500,-0.57100,-0.68100,-0.68000,193.64000,-0.43000
161225_14.48.05.297,-0.03400,-0.07500,1.01300,0.08700,-0.14000,-0.03500,-0.57200,-0.67900,-0.68000,193.72000,0.08000
161225_14.48.05.309,-0.03300,-0.07700,0.99800,0.07000,-0.08700,-0.03500,-0.57200,-0.67900,-0.67700,193.20000,-0.52000
161225_14.48.05.321,-0.03300,-0.07900,0.99000,0.07000,-0.08700,-0.03500,-0.56800,-0.67800,-0.68000,193.99000,0.79000
161225_14.48.05.332,-0.03700,-0.07800,1.00300,0.10500,-0.17500,-0.03500,-0.57000,-0.68200,-0.67600,193.01000,-0.98000
161225_14.48.05.344,-0.03600,-0.07500,1.00700,0.10500,-0.17500,-0.03500,-0.57000,-0.68200,-0.67600,193.12000,0.11000
161225_14.48.05.356,-0.03400,-0.07600,0.99400,0.07000,-0.08700,-0.05300,-0.56800,-0.67800,-0.67600,193.62000,0.50000
161225_14.48.05.368,-0.03800,-0.07700,0.99500,0.10500,-0.14000,-0.03500,-0.57200,-0.68200,-0.67600,193.92000,0.30000
161225_14.48.05.379,-0.03900,-0.07500,1.01000,0.14000,-0.17500,-0.01800,-0.57100,-0.67900,-0.67700,193.98000,0.06000
161225_14.48.05.391,-0.03400,-0.07400,1.00200,0.05300,-0.08700,-0.01800,-0.57000,-0.68100,-0.68300,193.54000,-0.44000
161225_14.48.05.403,-0.03700,-0.07700,0.99600,0.12300,-0.10500,-0.05300,-0.57000,-0.68100,-0.68300,194.05000,0.51000
161225_14.48.05.414,-0.03800,-0.07500,1.01000,0.10500,-0.15700,-0.05300,-0.57100,-0.67900,-0.67800,193.33000,-0.72000
161225_14.48.05.426,-0.03500,-0.07500,1.00200,0.05300,-0.12300,-0.05300,-0.57500,-0.68300,-0.68300,194.44000,1.11000
161225_14.48.05.438,-0.03600,-0.07600,0.99200,0.08700,-0.12300,-0.05300,-0.56800,-0.67500,-0.68300,193.70000,-0.74000
161225_14.48.05.449,-0.03600,-0.07600,1.00500,0.10500,-0.22800,-0.01800,-0.57600,-0.67900,-0.68500,193.65000,-0.05000
161225_14.48.05.461,-0.03300,-0.07100,1.01100,0.08700,-0.17500,-0.03500,-0.57600,-0.67900,-0.68500,193.43000,-0.22000
161225_14.48.05.473,-0.03100,-0.07400,0.99300,0.07000,-0.12300,-0.05300,-0.57400,-0.67700,-0.68200,193.65000,0.22000
161225_14.48.05.485,-0.03600,-0.07800,0.99000,0.10500,-0.14000,-0.03500,-0.57600,-0.68100,-0.68100,193.81000,0.16000
161225_14.48.05.496,-0.03700,-0.07700,1.00800,0.12300,-0.17500,-0.03500,-0.57100,-0.67900,-0.68400,193.96000,0.15000
161225_14.48.05.507,-0.03400,-0.07400,1.01000,0.07000,-0.15700,-0.01800,-0.57000,-0.67900,-0.69000,193.81000,-0.15000
161225_14.48.05.518,-0.03100,-0.07600,0.99600,0.10500,-0.17500,-0.01800,-0.57000,-0.67900,-0.69000,194.07000,0.26000
161225_14.48.05.530,-0.03600,-0.07600,1.00800,0.10500,-0.21000,-0.05300,-0.57400,-0.68100,-0.68400,193.83000,-0.24000
161225_14.48.05.541,-0.03200,-0.07700,1.00000,0.07000,-0.14000,-0.03500,-0.57400,-0.68600,-0.68100,193.66000,-0.17000
161225_14.48.05.552,-0.03200,-0.07700,0.99000,0.08700,-0.12300,-0.01800,-0.57200,-0.67900,-0.68400,194.22000,0.56000
161225_14.48.05.564,-0.03500,-0.07800,1.00100,0.12300,-0.19200,-0.01800,-0.56900,-0.68300,-0.68700,193.47000,-0.75000
161225_14.48.05.575,-0.03300,-0.07400,1.01500,0.10500,-0.21000,-0.03500,-0.56900,-0.68300,-0.68700,193.48000,0.01000
161225_14.48.05.587,-0.03100,-0.07600,0.99900,0.05300,-0.08700,-0.05300,-0.56700,-0.68200,-0.67900,193.20000,-0.28000
161225_14.48.05.598,-0.03200,-0.07900,0.98800,0.07000,-0.10500,-0.01800,-0.57200,-0.68200,-0.68000,193.78000,0.58000
161225_14.48.05.610,-0.03300,-0.07700,1.00500,0.12300,-0.15700,-0.03500,-0.56500,-0.68100,-0.68500,194.12000,0.34000
161225_14.48.05.621,-0.03200,-0.07400,1.01000,0.08700,-0.14000,-0.03500,-0.56700,-0.68000,-0.69300,194.54000,0.42000
161225_14.48.05.633,-0.03100,-0.07600,0.99500,0.03500,-0.08700,-0.03500,-0.56700,-0.68000,-0.69300,193.13000,-1.41000
161225_14.48.05.645,-0.03400,-0.08000,1.01200,0.12300,-0.17500,-0.01800,-0.56700,-0.68200,-0.68600,193.18000,0.05000
161225_14.48.05.656,-0.03300,-0.07500,1.00400,0.08700,-0.14000,-0.03500,-0.56500,-0.68100,-0.68400,193.02000,-0.16000
161225_14.48.05.667,-0.03100,-0.07800,0.99100,0.08700,-0.07000,-0.03500,-0.57000,-0.67900,-0.68600,193.65000,0.63000
161225_14.48.05.679,-0.03500,-0.07800,0.99800,0.12300,-0.15700,-0.03500,-0.56700,-0.68000,-0.68900,193.37000,-0.28000
161225_14.48.05.690,-0.03400,-0.07500,1.01100,0.12300,-0.17500,-0.05300,-0.56700,-0.68000,-0.68900,193.06000,-0.31000
161225_14.48.05.702,-0.03200,-0.07600,1.00300,0.07000,-0.07000,-0.03500,-0.56800,-0.67900,-0.68700,193.77000,0.71000
161225_14.48.05.713,-0.03300,-0.07900,0.98900,0.07000,-0.08700,-0.03500,-0.57000,-0.68100,-0.68500,194.02000,0.25000
161225_14.48.05.725,-0.03600,-0.07800,1.00400,0.12300,-0.17500,-0.03500,-0.56700,-0.68200,-0.68900,193.39000,-0.63000
161225_14.48.05.736,-0.03300,-0.07500,1.01100,0.08700,-0.14000,-0.01800,-0.57100,-0.68500,-0.68800,194.02000,0.63000
161225_14.48.05.748,-0.03300,-0.07700,0.99400,0.07000,-0.05300,-0.05300,-0.57100,-0.68500,-0.68800,193.97000,-0.05000
161225_14.48.05.759,-0.03500,-0.07800,0.99400,0.10500,-0.15700,-0.03500,-0.57000,-0.68200,-0.68900,193.79000,-0.18000
161225_14.48.05.771,-0.03500,-0.07300,1.00800,0.07000,-0.12300,-0.01800,-0.57000,-0.68200,-0.68300,193.62000,-0.17000
161225_14.48.05.782,-0.03100,-0.07600,0.99200,0.05300,-0.07000,-0.01800,-0.56800,-0.68400,-0.68800,194.10000,0.48000
161225_14.48.05.794,-0.03600,-0.07800,0.99500,0.12300,-0.10500,-0.03500,-0.56600,-0.68200,-0.68500,193.90000,-0.20000
161225_14.48.05.805,-0.03800,-0.07600,1.01100,0.12300,-0.14000,-0.03500,-0.56600,-0.68200,-0.68500,193.66000,-0.24000
161225_14.48.05.817,-0.03600,-0.07500,1.00400,0.07000,-0.08700,0.00000,-0.57100,-0.67900,-0.68800,194.09000,0.43000
161225_14.48.05.828,-0.03300,-0.07600,0.99300,0.07000,-0.05300,-0.01800,-0.56800,-0.68100,-0.68500,193.88000,-0.21000
161225_14.48.05.839,-0.03600,-0.07600,1.00200,0.12300,-0.15700,-0.03500,-0.56600,-0.68100,-0.68100,193.59000,-0.29000
161225_14.48.05.851,-0.03500,-0.07400,1.01300,0.10500,-0.15700,-0.01800,-0.56900,-0.68000,-0.68800,194.19000,0.60000
161225_14.48.05.863,-0.03400,-0.07400,0.99700,0.05300,-0.05300,-0.03500,-0.56900,-0.68000,-0.68800,193.01000,-1.18000
161225_14.48.05.874,-0.03600,-0.07700,0.98700,0.08700,-0.08700,-0.01800,-0.56600,-0.67800,-0.68800,193.43000,0.42000
161225_14.48.05.886,-0.03700,-0.07700,1.00300,0.10500,-0.14000,-0.03500,-0.56600,-0.68300,-0.68400,193.87000,0.44000
161225_14.48.05.898,-0.03400,-0.07500,0.99600,0.05300,-0.07000,-0.01800,-0.56900,-0.67800,-0.67700,193.50000,-0.37000
161225_14.48.05.909,-0.03600,-0.07500,0.99200,0.08700,-0.14000,0.00000,-0.56900,-0.68200,-0.68100,193.72000,0.22000
161225_14.48.05.921,-0.03700,-0.07500,1.00700,0.10500,-0.19200,-0.03500,-0.56900,-0.68200,-0.68100,193.77000,0.05000
161225_14.48.05.932,-0.03500,-0.07400,1.00400,0.05300,-0.08700,-0.03500,-0.57100,-0.68300,-0.68200,193.49000,-0.28000
161225_14.48.05.944,-0.03300,-0.07800,0.98900,0.05300,-0.08700,-0.03500,-0.56900,-0.68200,-0.68100,193.60000,0.11000
161225_14.48.05.955,-0.03600,-0.07800,0.99700,0.10500,-0.17500,-0.01800,-0.56900,-0.67700,-0.68000,194.23000,0.63000
161225_14.48.05.967,-0.03700,-0.07500,1.01500,0.12300,-0.21000,-0.03500,-0.56700,-0.68300,-0.67700,194.11000,-0.12000
161225_14.48.05.978,-0.03400,-0.07500,1.00100,0.05300,-0.12300,-0.03500,-0.56700,-0.68300,-0.67700,193.44000,-0.67000
161225_14.48.05.990,-0.03300,-0.07800,0.98700,0.03500,-0.10500,-0.01800,-0.56500,-0.67700,-0.68600,193.75000,0.31000
161225_14.48.06.001,-0.03500,-0.07800,1.00300,0.10500,-0.19200,-0.03500,-0.56600,-0.68400,-0.68200,194.52000,0.77000
161225_14.48.06.013,-0.03600,-0.07300,1.01100,0.07000,-0.10500,-0.03500,-0.56900,-0.67900,-0.68300,193.74000,-0.78000
161225_14.48.06.024,-0.03300,-0.08000,0.99300,0.07000,-0.10500,-0.03500,-0.57200,-0.68100,-0.67300,194.31000,0.57000
161225_14.48.06.036,-0.03500,-0.07800,1.00800,0.10500,-0.21000,-0.03500,-0.57200,-0.68100,-0.67300,194.03000,-0.28000
161225_14.48.06.047,-0.03300,-0.07600,1.00900,0.07000,-0.14000,-0.01800,-0.57200,-0.67900,-0.68100,194.00000,-0.03000
161225_14.48.06.059,-0.03300,-0.07800,0.99400,0.03500,-0.05300,-0.05300,-0.57200,-0.68600,-0.67500,193.95000,-0.05000
161225_14.48.06.070,-0.03500,-0.08000,0.99400,0.08700,-0.12300,-0.05300,-0.56900,-0.68700,-0.67700,193.91000,-0.04000
161225_14.48.06.082,-0.03500,-0.07700,1.01000,0.14000,-0.17500,-0.05300,-0.57100,-0.68200,-0.67300,193.22000,-0.69000
161225_14.48.06.093,-0.03400,-0.07600,1.00800,0.08700,-0.15700,-0.01800,-0.57100,-0.68200,-0.67300,192.89000,-0.33000
161225_14.48.06.105,-0.03000,-0.07700,0.99600,0.05300,-0.08700,-0.01800,-0.57400,-0.68300,-0.67500,193.59000,0.70000
161225_14.48.06.116,-0.03500,-0.07800,0.99800,0.10500,-0.14000,-0.01800,-0.57700,-0.68300,-0.67400,193.54000,-0.05000
161225_14.48.06.128,-0.03500,-0.07500,1.01200,0.12300,-0.17500,-0.05300,-0.57500,-0.67800,-0.68100,193.48000,-0.06000
161225_14.48.06.139,-0.03300,-0.07600,1.00100,0.08700,-0.07000,-0.01800,-0.57300,-0.68600,-0.68200,193.15000,-0.33000
161225_14.48.06.151,-0.03400,-0.07700,1.00300,0.15700,-0.17500,-0.03500,-0.57300,-0.68600,-0.68200,193.33000,0.18000
161225_14.48.06.162,-0.03200,-0.07500,1.01400,0.12300,-0.17500,-0.01800,-0.57400,-0.68300,-0.67600,194.75000,1.42000
161225_14.48.06.174,-0.03300,-0.07600,0.99500,0.07000,-0.08700,-0.03500,-0.57700,-0.68000,-0.68000,194.63000,-0.12000
161225_14.48.06.185,-0.03500,-0.07600,0.99100,0.07000,-0.15700,-0.01800,-0.57300,-0.68200,-0.67800,193.94000,-0.69000
161225_14.48.06.196,-0.03700,-0.07600,1.00400,0.10500,-0.15700,-0.05300,-0.57700,-0.68300,-0.68200,194.03000,0.09000
161225_14.48.06.208,-0.03400,-0.07300,1.00800,0.10500,-0.15700,-0.03500,-0.57700,-0.68300,-0.68200,193.58000,-0.45000
161225_14.48.06.220,-0.03200,-0.07400,0.99600,0.08700,-0.08700,-0.03500,-0.57500,-0.67900,-0.67100,194.40000,0.82000
161225_14.48.06.231,-0.03500,-0.07600,0.99400,0.08700,-0.12300,0.00000,-0.57500,-0.68300,-0.67900,193.67000,-0.73000
161225_14.48.06.242,-0.03500,-0.07300,1.01200,0.15700,-0.19200,-0.01800,-0.57300,-0.67800,-0.67600,193.61000,-0.06000
161225_14.48.06.254,-0.03200,-0.07400,1.00200,0.05300,-0.08700,-0.03500,-0.57200,-0.68000,-0.67900,193.74000,0.13000
161225_14.48.06.265,-0.03200,-0.07600,0.99900,0.10500,-0.12300,-0.03500,-0.57200,-0.68000,-0.67900,193.84000,0.10000
161225_14.48.06.277,-0.03500,-0.07300,1.01200,0.08700,-0.14000,-0.03500,-0.57400,-0.67800,-0.68200,193.95000,0.11000
161225_14.48.06.288,-0.03400,-0.07400,1.00100,0.03500,-0.08700,0.00000,-0.57300,-0.68300,-0.67700,193.52000,-0.43000
161225_14.48.06.300,-0.03400,-0.07600,0.99200,0.05300,-0.08700,-0.03500,-0.57400,-0.67800,-0.68000,193.21000,-0.31000
161225_14.48.06.311,-0.03500,-0.07600,1.00400,0.10500,-0.19200,-0.03500,-0.57700,-0.68200,-0.68100,193.81000,0.60000
161225_14.48.06.323,-0.03300,-0.07300,1.00700,0.07000,-0.07000,-0.03500,-0.57700,-0.68200,-0.68100,193.58000,-0.23000
161225_14.48.06.334,-0.03200,-0.07800,0.98900,0.07000,-0.05300,-0.05300,-0.57400,-0.68000,-0.67300,193.63000,0.05000
161225_14.48.06.346,-0.03500,-0.08000,0.99400,0.10500,-0.14000,-0.05300,-0.57500,-0.68400,-0.68100,193.67000,0.04000
161225_14.48.06.357,-0.03700,-0.07600,1.00900,0.10500,-0.14000,-0.05300,-0.57300,-0.68000,-0.67600,193.87000,0.20000
161225_14.48.06.368,-0.03400,-0.07600,1.00500,0.07000,-0.14000,-0.05300,-0.57800,-0.68000,-0.67500,193.65000,-0.22000
161225_14.48.06.379,-0.03300,-0.07800,0.99200,0.05300,-0.17500,-0.05300,-0.57800,-0.68000,-0.67500,193.17000,-0.48000
161225_14.48.06.391,-0.03600,-0.07500,1.00900,0.14000,-0.19200,-0.03500,-0.57400,-0.68000,-0.67500,193.72000,0.55000
161225_14.48.06.402,-0.03500,-0.07600,1.00100,0.07000,-0.07000,-0.03500,-0.56900,-0.68000,-0.68800,193.82000,0.10000
161225_14.48.06.414,-0.03400,-0.07800,0.99100,0.07000,-0.10500,-0.03500,-0.56800,-0.67700,-0.68300,193.74000,-0.08000
161225_14.48.06.425,-0.03700,-0.07900,1.00700,0.10500,-0.17500,-0.01800,-0.57100,-0.68000,-0.68200,194.68000,0.94000
161225_14.48.06.437,-0.03500,-0.07600,1.01600,0.10500,-0.17500,-0.05300,-0.57100,-0.68000,-0.68200,193.98000,-0.70000
161225_14.48.06.448,-0.03400,-0.07800,0.99700,0.07000,-0.05300,-0.03500,-0.56800,-0.68100,-0.68600,193.70000,-0.28000
161225_14.48.06.460,-0.03500,-0.07900,0.99200,0.08700,-0.10500,-0.03500,-0.56900,-0.68000,-0.68900,194.56000,0.86000
161225_14.48.06.472,-0.03500,-0.07900,1.01100,0.12300,-0.17500,-0.05300,-0.57000,-0.68300,-0.68300,193.83000,-0.73000
161225_14.48.06.483,-0.03200,-0.07800,1.00800,0.05300,-0.08700,-0.03500,-0.56800,-0.68400,-0.68600,193.62000,-0.21000
161225_14.48.06.495,-0.03100,-0.07900,0.99400,0.07000,-0.08700,-0.01800,-0.56800,-0.68400,-0.68600,193.66000,0.04000
161225_14.48.06.507,-0.03300,-0.07800,0.99800,0.10500,-0.14000,-0.01800,-0.56500,-0.68300,-0.69000,193.75000,0.09000
161225_14.48.06.518,-0.03400,-0.07700,1.00200,0.07000,-0.08700,-0.03500,-0.56400,-0.68100,-0.69500,193.33000,-0.42000
161225_14.48.06.530,-0.03300,-0.07700,0.99300,0.07000,-0.10500,-0.03500,-0.56600,-0.67800,-0.69300,193.59000,0.26000
161225_14.48.06.541,-0.03400,-0.07700,1.00200,0.14000,-0.15700,-0.03500,-0.56700,-0.68200,-0.68800,194.11000,0.52000
161225_14.48.06.553,-0.03200,-0.07400,1.01500,0.10500,-0.15700,-0.01800,-0.56700,-0.68200,-0.68800,194.26000,0.15000
161225_14.48.06.564,-0.03000,-0.07500,0.99700,0.03500,-0.10500,-0.05300,-0.56400,-0.68100,-0.68300,193.88000,-0.38000
161225_14.48.06.576,-0.03400,-0.07700,0.98700,0.08700,-0.14000,-0.03500,-0.56700,-0.68100,-0.68800,193.90000,0.02000
161225_14.48.06.587,-0.03600,-0.07600,1.00300,0.12300,-0.22800,-0.03500,-0.56900,-0.68100,-0.68400,194.03000,0.13000
161225_14.48.06.599,-0.03700,-0.07400,1.01000,0.10500,-0.14000,-0.05300,-0.56800,-0.68100,-0.68900,194.22000,0.19000
161225_14.48.06.610,-0.03400,-0.07400,0.99200,0.07000,-0.08700,-0.03500,-0.56800,-0.68100,-0.68900,193.34000,-0.88000
161225_14.48.06.622,-0.03700,-0.07600,0.99200,0.10500,-0.14000,-0.03500,-0.56700,-0.68400,-0.68900,193.99000,0.65000
161225_14.48.06.633,-0.03600,-0.07400,1.01000,0.05300,-0.07000,-0.03500,-0.56900,-0.67500,-0.68700,194.09000,0.10000
161225_14.48.06.645,-0.03200,-0.07600,0.98600,0.07000,-0.07000,-0.05300,-0.57100,-0.67700,-0.68600,194.18000,0.09000
161225_14.48.06.656,-0.03500,-0.07600,0.99600,0.08700,-0.14000,-0.03500,-0.57000,-0.68100,-0.68900,193.78000,-0.40000
161225_14.48.06.668,-0.03300,-0.07400,1.01200,0.10500,-0.15700,-0.05300,-0.57000,-0.68100,-0.68900,194.36000,0.58000
161225_14.48.06.680,-0.03100,-0.07600,1.00000,0.07000,-0.08700,-0.03500,-0.56700,-0.68300,-0.68900,193.59000,-0.77000
161225_14.48.06.691,-0.03100,-0.07600,0.99000,0.07000,-0.10500,-0.03500,-0.56700,-0.68500,-0.68800,193.49000,-0.10000
161225_14.48.06.702,-0.03300,-0.07700,1.00500,0.12300,-0.17500,-0.01800,-0.56600,-0.68100,-0.68600,193.10000,-0.39000
161225_14.48.06.714,-0.03200,-0.07400,1.01200,0.08700,-0.10500,-0.01800,-0.56500,-0.68200,-0.68900,193.75000,0.65000
161225_14.48.06.725,-0.03000,-0.07600,0.99300,0.01800,-0.05300,-0.03500,-0.56500,-0.68200,-0.68900,193.63000,-0.12000
161225_14.48.06.737,-0.03300,-0.07700,0.99400,0.08700,-0.14000,-0.03500,-0.56700,-0.68100,-0.68800,193.74000,0.11000
161225_14.48.06.748,-0.03500,-0.07600,1.01200,0.10500,-0.17500,-0.01800,-0.56800,-0.68000,-0.69000,193.26000,-0.48000
161225_14.48.06.760,-0.03200,-0.07600,1.00800,0.07000,-0.12300,-0.01800,-0.57100,-0.68100,-0.69000,193.59000,0.33000
161225_14.48.06.771,-0.03600,-0.08000,0.99600,0.08700,-0.12300,0.00000,-0.56900,-0.67800,-0.68200,193.61000,0.02000
161225_14.48.06.783,-0.03500,-0.07800,1.00900,0.08700,-0.17500,-0.01800,-0.56900,-0.67800,-0.68200,193.28000,-0.33000
161225_14.48.06.794,-0.03500,-0.07800,1.00300,0.07000,-0.10500,-0.03500,-0.57300,-0.68600,-0.68400,193.44000,0.16000
161225_14.48.06.806,-0.03500,-0.08000,0.99100,0.07000,-0.12300,-0.01800,-0.56900,-0.68700,-0.67800,194.12000,0.68000
161225_14.48.06.817,-0.03800,-0.07900,1.00300,0.10500,-0.21000,-0.01800,-0.57200,-0.68500,-0.67000,193.73000,-0.39000
161225_14.48.06.829,-0.03600,-0.07600,1.01400,0.10500,-0.21000,-0.01800,-0.57300,-0.68300,-0.67600,194.02000,0.29000
161225_14.48.06.840,-0.03500,-0.07700,0.99900,0.08700,-0.08700,-0.01800,-0.57300,-0.68300,-0.67600,193.53000,-0.49000
161225_14.48.06.852,-0.03600,-0.07900,0.99100,0.08700,-0.08700,-0.03500,-0.57100,-0.68400,-0.67200,194.05000,0.52000
161225_14.48.06.863,-0.03800,-0.07800,1.00700,0.12300,-0.17500,-0.03500,-0.57200,-0.68400,-0.67200,194.01000,-0.04000
161225_14.48.06.875,-0.03500,-0.07500,1.01200,0.08700,-0.12300,-0.01800,-0.57300,-0.67900,-0.67200,193.77000,-0.24000
161225_14.48.06.886,-0.03300,-0.07700,0.99500,0.12300,-0.14000,-0.03500,-0.57200,-0.67800,-0.67600,193.09000,-0.68000
161225_14.48.06.898,-0.03600,-0.07600,1.00900,0.14000,-0.19200,-0.03500,-0.57200,-0.67800,-0.67600,193.20000,0.11000
161225_14.48.06.909,-0.03400,-0.07600,1.00500,0.08700,-0.10500,-0.05300,-0.57400,-0.67900,-0.67700,194.02000,0.82000
161225_14.48.06.921,-0.03300,-0.07600,0.99200,0.08700,-0.05300,-0.03500,-0.57700,-0.67800,-0.67100,194.04000,0.02000
161225_14.48.06.932,-0.03400,-0.07700,0.99700,0.14000,-0.15700,-0.03500,-0.57500,-0.68100,-0.67400,193.75000,-0.29000
161225_14.48.06.943,-0.03300,-0.07400,1.01300,0.14000,-0.17500,-0.01800,-0.57300,-0.68000,-0.67700,193.39000,-0.36000
161225_14.48.06.955,-0.03100,-0.07500,1.00000,0.05300,-0.10500,-0.03500,-0.57300,-0.68000,-0.67700,193.54000,0.15000
161225_14.48.06.966,-0.03200,-0.07600,0.98500,0.08700,-0.10500,-0.01800,-0.57400,-0.67700,-0.67700,193.09000,-0.45000
161225_14.48.06.978,-0.03500,-0.07500,0.99900,0.14000,-0.21000,-0.01800,-0.57200,-0.67600,-0.67800,193.59000,0.50000
161225_14.48.06.989,-0.03500,-0.07200,1.01100,0.10500,-0.17500,-0.03500,-0.56900,-0.67600,-0.67100,194.48000,0.89000
161225_14.48.07.001,-0.03300,-0.07500,0.99400,0.07000,-0.17500,-0.01800,-0.57200,-0.67500,-0.67400,193.76000,-0.72000
161225_14.48.07.012,-0.03600,-0.07600,1.01000,0.14000,-0.24500,-0.01800,-0.57200,-0.67500,-0.67400,193.70000,-0.06000
161225_14.48.07.024,-0.03300,-0.07400,1.00500,0.05300,-0.12300,-0.03500,-0.57300,-0.67000,-0.68000,193.64000,-0.06000
161225_14.48.07.035,-0.03100,-0.07700,0.98700,0.07000,-0.10500,-0.03500,-0.57000,-0.67500,-0.68000,193.58000,-0.06000
161225_14.48.07.047,-0.03500,-0.07700,0.99500,0.08700,-0.15700,-0.03500,-0.57300,-0.67300,-0.68000,193.29000,-0.29000
161225_14.48.07.058,-0.03700,-0.07500,1.01000,0.10500,-0.17500,-0.03500,-0.57000,-0.67400,-0.67900,193.43000,0.14000
161225_14.48.07.070,-0.03400,-0.07500,1.00500,0.07000,-0.12300,-0.03500,-0.57000,-0.67400,-0.67900,194.23000,0.80000
161225_14.48.07.081,-0.03300,-0.07700,0.99300,0.08700,-0.08700,-0.01800,-0.56600,-0.67600,-0.67600,194.05000,-0.18000
161225_14.48.07.093,-0.03500,-0.07600,1.00500,0.14000,-0.17500,-0.01800,-0.57200,-0.67600,-0.68000,193.73000,-0.32000
161225_14.48.07.105,-0.03100,-0.07600,1.01200,0.08700,-0.12300,-0.03500,-0.57000,-0.67500,-0.68400,194.18000,0.45000
161225_14.48.07.116,-0.03200,-0.07800,0.99500,0.05300,-0.03500,-0.05300,-0.57500,-0.67500,-0.68000,193.79000,-0.39000
161225_14.48.07.128,-0.03400,-0.07900,0.99300,0.10500,-0.15700,-0.03500,-0.57500,-0.67500,-0.68000,194.04000,0.25000
161225_14.48.07.139,-0.03500,-0.07500,1.01100,0.07000,-0.14000,-0.03500,-0.57200,-0.67900,-0.68100,193.21000,-0.83000
161225_14.48.07.151,-0.03200,-0.07700,0.99400,0.03500,-0.05300,-0.01800,-0.57500,-0.68100,-0.67800,193.38000,0.17000
161225_14.48.07.162,-0.03300,-0.07800,0.99700,0.12300,-0.14000,-0.01800,-0.56700,-0.68200,-0.68000,194.10000,0.72000
161225_14.48.07.174,-0.03300,-0.07500,1.01300,0.14000,-0.17500,-0.03500,-0.56900,-0.67800,-0.68200,194.06000,-0.04000
161225_14.48.07.185,-0.03200,-0.07600,1.00200,0.05300,-0.07000,-0.03500,-0.56900,-0.67800,-0.68200,193.76000,-0.30000
161225_14.48.07.196,-0.03200,-0.08000,0.98900,0.07000,-0.08700,-0.03500,-0.56600,-0.67900,-0.68400,193.09000,-0.67000
161225_14.48.07.207,-0.03500,-0.07700,1.00500,0.10500,-0.15700,-0.03500,-0.56600,-0.67900,-0.67900,193.50000,0.41000
161225_14.48.07.219,-0.03400,-0.07600,1.01400,0.10500,-0.17500,-0.03500,-0.56700,-0.67400,-0.67900,194.20000,0.70000
161225_14.48.07.230,-0.03600,-0.07800,0.99700,0.07000,-0.03500,-0.03500,-0.56800,-0.67600,-0.68400,193.80000,-0.40000
161225_14.48.07.242,-0.03500,-0.07900,0.98700,0.08700,-0.10500,0.00000,-0.56800,-0.67600,-0.68400,193.70000,-0.10000
161225_14.48.07.253,-0.03600,-0.07700,1.00800,0.07000,-0.07000,-0.05300,-0.56600,-0.67600,-0.68600,194.23000,0.53000
161225_14.48.07.265,-0.03300,-0.07900,0.99100,0.08700,-0.07000,-0.03500,-0.56900,-0.67300,-0.68600,193.59000,-0.64000
161225_14.48.07.276,-0.03600,-0.07700,0.99300,0.12300,-0.14000,-0.05300,-0.56700,-0.67400,-0.68800,193.74000,0.15000
161225_14.48.07.288,-0.03600,-0.07500,1.01000,0.14000,-0.19200,-0.03500,-0.57000,-0.67700,-0.68300,194.36000,0.62000
161225_14.48.07.299,-0.03400,-0.07600,0.99900,0.08700,-0.07000,-0.03500,-0.57000,-0.67700,-0.68300,193.04000,-1.32000
161225_14.48.07.311,-0.03600,-0.07700,0.98600,0.08700,-0.07000,-0.03500,-0.57000,-0.67200,-0.68100,193.46000,0.42000
161225_14.48.07.322,-0.03500,-0.07600,1.00300,0.14000,-0.19200,-0.01800,-0.57000,-0.67600,-0.68000,193.52000,0.06000
161225_14.48.07.334,-0.03300,-0.07400,1.01300,0.10500,-0.15700,-0.01800,-0.56400,-0.67700,-0.68500,193.62000,0.10000
161225_14.48.07.345,-0.03300,-0.07400,0.99600,0.05300,-0.08700,-0.03500,-0.56700,-0.67400,-0.68600,193.50000,-0.12000
161225_14.48.07.357,-0.03500,-0.07600,0.99200,0.10500,-0.12300,-0.05300,-0.56700,-0.67400,-0.68600,194.32000,0.82000
161225_14.48.07.368,-0.03800,-0.07400,1.00600,0.14000,-0.17500,-0.05300,-0.56900,-0.67700,-0.68300,193.66000,-0.66000
161225_14.48.07.380,-0.03500,-0.07400,1.00800,0.07000,-0.07000,-0.01800,-0.56900,-0.67400,-0.68300,193.29000,-0.37000
161225_14.48.07.391,-0.03500,-0.07600,0.99800,0.12300,-0.17500,-0.03500,-0.56800,-0.68000,-0.68200,193.73000,0.44000
161225_14.48.07.403,-0.03500,-0.07200,1.01600,0.12300,-0.19200,-0.01800,-0.57000,-0.67700,-0.68800,193.99000,0.26000
161225_14.48.07.414,-0.03300,-0.07500,1.00300,0.03500,-0.08700,-0.03500,-0.57000,-0.67700,-0.68800,193.96000,-0.03000
161225_14.48.07.426,-0.03400,-0.07700,0.98900,0.05300,-0.08700,-0.01800,-0.56700,-0.67800,-0.68400,193.59000,-0.37000
161225_14.48.07.437,-0.03700,-0.07800,1.00000,0.08700,-0.15700,-0.01800,-0.56500,-0.67300,-0.68200,193.81000,0.22000
161225_14.48.07.450,-0.03500,-0.07500,1.01300,0.10500,-0.19200,-0.03500,-0.56800,-0.67400,-0.68700,193.72000,-0.09000
161225_14.48.07.461,-0.03300,-0.07600,1.00000,0.03500,-0.10500,-0.01800,-0.56700,-0.67300,-0.68300,193.12000,-0.60000
161225_14.48.07.473,-0.03600,-0.07700,0.99100,0.07000,-0.12300,-0.03500,-0.56700,-0.67300,-0.68300,193.26000,0.14000
161225_14.48.07.485,-0.03600,-0.07600,1.00600,0.12300,-0.22800,-0.03500,-0.56800,-0.67600,-0.67600,193.41000,0.15000
161225_14.48.07.497,-0.03300,-0.07600,1.00700,0.05300,-0.12300,-0.05300,-0.56700,-0.67700,-0.68100,193.72000,0.31000
161225_14.48.07.508,-0.03100,-0.07700,0.99300,0.10500,-0.12300,-0.01800,-0.56800,-0.67300,-0.68200,193.63000,-0.09000
161225_14.48.07.520,-0.03400,-0.07700,1.01000,0.12300,-0.19200,-0.03500,-0.56800,-0.67400,-0.68300,193.69000,0.06000
161225_14.48.07.532,-0.03000,-0.07600,1.00800,0.08700,-0.15700,-0.01800,-0.56800,-0.67400,-0.68300,193.59000,-0.10000
161225_14.48.07.543,-0.03000,-0.07800,0.99200,0.03500,-0.08700,-0.03500,-0.56700,-0.67500,-0.68900,193.38000,-0.21000
161225_14.48.07.555,-0.03400,-0.07800,0.99600,0.10500,-0.17500,-0.03500,-0.56700,-0.67300,-0.68900,193.88000,0.50000
161225_14.48.07.566,-0.03400,-0.07600,1.01000,0.08700,-0.14000,-0.05300,-0.56800,-0.67800,-0.68700,194.08000,0.20000
161225_14.48.07.578,-0.03300,-0.07700,1.00100,0.07000,-0.08700,-0.01800,-0.57200,-0.68000,-0.67600,194.01000,-0.07000
