timestamp,ax,ay,az,gx,gy,gz,mx,my,mz,altitude,relative_altitude
041225_03.31.48.374,-0.63700,-0.91800,0.01700,8.50500,-81.02500,-85.82000,-0.00500,0.20500,-0.17300,83.53000,0.00000
041225_03.31.48.386,-0.57500,-0.97000,0.04700,7.38500,-60.76000,-91.80500,-0.00500,0.20500,-0.17300,82.89000,-0.64000
041225_03.31.48.398,-0.54800,-0.96200,0.14500,7.42000,-51.15300,-86.80000,0.00900,0.21700,-0.17300,83.32000,0.43000
041225_03.31.48.410,-0.52400,-1.06000,0.12600,13.40500,-52.83300,-63.15800,0.01000,0.22600,-0.17700,83.03000,-0.29000
041225_03.31.48.422,-0.55600,-1.03800,0.15200,47.19700,-57.27800,-45.25500,0.01900,0.23200,-0.17000,83.23000,0.20000
041225_03.31.48.434,-0.42700,-1.02700,0.08500,54.72200,-70.54300,-29.80200,0.02700,0.24300,-0.16500,83.69000,0.46000
041225_03.31.48.445,-0.33000,-1.03000,0.06000,58.71300,-88.11300,-17.22000,0.02700,0.24300,-0.16500,83.12000,-0.57000
041225_03.31.48.457,-0.26200,-1.01900,0.04600,59.23700,-101.32500,-11.25200,0.04000,0.24700,-0.16000,83.70000,0.58000
041225_03.31.48.468,-0.24100,-0.99800,0.09100,60.35800,-107.69500,-11.56800,0.05000,0.25800,-0.17000,83.18000,-0.52000
041225_03.31.48.480,-0.27800,-1.03000,0.09300,55.91200,-108.86800,-16.18700,0.06600,0.26700,-0.18300,83.29000,0.11000
041225_03.31.48.492,-0.34400,-0.98500,0.09500,50.15500,-103.79300,-21.54200,0.08300,0.27700,-0.18600,83.23000,-0.06000
041225_03.31.48.503,-0.45500,-0.92200,0.08800,46.70800,-96.09200,-23.39800,0.08300,0.27700,-0.18600,83.51000,0.28000
041225_03.31.48.515,-0.53400,-0.86700,0.13000,43.61000,-88.81300,-22.75000,0.09500,0.29200,-0.19300,83.67000,0.16000
041225_03.31.48.527,-0.51300,-0.82400,0.20600,39.51500,-81.84800,-21.92700,0.10500,0.30400,-0.19900,83.07000,-0.60000
041225_03.31.48.538,-0.48400,-0.83600,0.28700,34.65000,-71.10300,-18.39200,0.11500,0.31200,-0.20600,83.28000,0.21000
041225_03.31.48.550,-0.45700,-0.83500,0.31900,28.29800,-58.50200,-16.92300,0.11500,0.31900,-0.20900,83.42000,0.14000
041225_03.31.48.561,-0.40700,-0.80800,0.26800,12.39000,-18.98700,-31.95500,0.12500,0.31900,-0.20900,83.23000,-0.19000
041225_03.31.48.573,-0.39300,-0.79700,0.31100,4.20000,2.67800,-38.64000,0.13300,0.32500,-0.20500,83.89000,0.66000
041225_03.31.48.584,-0.19700,-0.74800,0.35300,1.34700,16.38000,-39.25200,0.13300,0.32900,-0.21000,83.62000,-0.27000
041225_03.31.48.596,-0.05500,-0.76200,0.32000,-0.64700,19.23300,-34.63200,0.13500,0.34200,-0.20800,83.05000,-0.57000
041225_03.31.48.608,0.07400,-0.79500,0.33900,-1.69700,16.25700,-27.59700,0.13500,0.34200,-0.20800,83.43000,0.38000
041225_03.31.48.620,0.19200,-0.84100,0.37100,-5.05700,8.97700,-18.58500,0.13200,0.33700,-0.20400,83.59000,0.16000
041225_03.31.48.631,0.20400,-0.84400,0.44000,-6.91200,3.78000,-9.92200,0.13700,0.33700,-0.20700,84.40000,0.81000
041225_03.31.48.643,0.10300,-0.82500,0.52500,-8.03300,-2.15200,-5.51200,0.13700,0.33100,-0.21100,83.58000,-0.82000
041225_03.31.48.654,0.02000,-0.79900,0.54700,-3.69300,-9.90500,-5.96800,0.14100,0.33000,-0.21600,83.74000,0.16000
041225_03.31.48.666,-0.03500,-0.79700,0.55700,2.27500,-17.04500,-8.59200,0.14100,0.33000,-0.21600,83.63000,-0.11000
041225_03.31.48.678,-0.04400,-0.77500,0.49800,6.52800,-23.71200,-12.70500,0.14700,0.32900,-0.22600,83.76000,0.13000
041225_03.31.48.689,-0.07000,-0.77000,0.42900,11.44500,-26.88000,-14.98000,0.14900,0.32300,-0.23300,84.03000,0.27000
041225_03.31.48.701,-0.10200,-0.75400,0.31800,15.34700,-28.22800,-18.25300,0.14800,0.32400,-0.23900,83.49000,-0.54000
041225_03.31.48.712,-0.04100,-0.76200,0.27800,17.90300,-22.54000,-26.00500,0.15100,0.32400,-0.25000,83.86000,0.37000
041225_03.31.48.724,0.17000,-0.76400,0.27400,17.53500,-21.82300,-30.13500,0.15100,0.32400,-0.25000,83.78000,-0.08000
041225_03.31.48.735,0.21400,-0.84500,0.33500,17.22000,-21.94500,-34.21300,0.15300,0.32500,-0.26100,83.33000,-0.45000
041225_03.31.48.747,0.30900,-0.79400,0.45800,10.90300,-23.74700,-42.22800,0.15100,0.32300,-0.27900,83.64000,0.31000
041225_03.31.48.758,0.40200,-0.67200,0.61200,2.95700,-30.25700,-49.82200,0.14500,0.33700,-0.29800,83.66000,0.02000
041225_03.31.48.770,0.49200,-0.59000,0.59000,-0.49000,-38.90300,-51.45000,0.14900,0.34200,-0.31700,84.29000,0.63000
041225_03.31.48.782,0.45200,-0.59500,0.54000,5.00500,-43.83800,-44.94000,0.14900,0.34200,-0.31700,83.20000,-1.09000
041225_03.31.48.793,0.42400,-0.67400,0.51500,15.92500,-43.13800,-37.53700,0.14600,0.34500,-0.33500,84.07000,0.87000
041225_03.31.48.805,0.35900,-0.65800,0.48100,24.95500,-44.69500,-37.62500,0.14400,0.35000,-0.34800,82.82000,-1.25000
041225_03.31.48.817,0.26300,-0.68800,0.46700,32.62000,-46.35800,-40.07500,0.13800,0.35700,-0.37100,83.25000,0.43000
041225_03.31.48.828,0.27300,-0.69800,0.41900,35.38500,-41.61500,-44.29200,0.13800,0.35700,-0.38200,83.33000,0.08000
041225_03.31.48.840,0.27900,-0.72000,0.36100,31.18500,-29.27800,-43.97800,0.13000,0.36200,-0.38200,83.26000,-0.07000
041225_03.31.48.851,0.28000,-0.69800,0.31400,23.36200,-6.17800,-43.61000,0.11900,0.36900,-0.40100,83.48000,0.22000
041225_03.31.48.863,0.31600,-0.60000,0.30900,23.04800,-9.59000,-40.68800,0.10800,0.36900,-0.41300,83.39000,-0.09000
041225_03.31.48.874,0.47200,-0.51800,0.31800,33.75700,-24.08000,-31.15000,0.09600,0.37600,-0.43900,83.74000,0.35000
041225_03.31.48.886,0.47800,-0.57100,0.37800,46.67300,-48.79000,-20.98300,0.09600,0.37600,-0.43900,83.03000,-0.71000
041225_03.31.48.898,0.41000,-0.69200,0.45500,57.15500,-74.34000,-15.31300,0.08000,0.37800,-0.46100,83.22000,0.19000
041225_03.31.48.909,0.44400,-0.67200,0.48100,58.55500,-89.82700,-18.95200,0.06400,0.38200,-0.49100,83.72000,0.50000
041225_03.31.48.921,0.53100,-0.57200,0.48200,50.38200,-85.62800,-22.97800,0.05000,0.38200,-0.51400,83.12000,-0.60000
041225_03.31.48.933,0.50600,-0.61500,0.48800,37.43200,-72.53700,-23.10000,0.03000,0.38400,-0.53800,84.09000,0.97000
041225_03.31.48.945,0.49500,-0.61900,0.50400,29.73300,-62.96500,-28.82300,0.03000,0.38400,-0.53800,84.20000,0.11000
041225_03.31.48.956,0.59600,-0.59300,0.52300,27.59700,-59.85000,-35.38500,0.00900,0.38600,-0.56300,83.59000,-0.61000
041225_03.31.48.968,0.67100,-0.53200,0.46400,28.15700,-59.55300,-38.37700,-0.01700,0.39500,-0.57500,83.74000,0.15000
041225_03.31.48.980,0.66600,-0.51700,0.42400,31.92000,-57.01500,-36.01500,-0.03900,0.40200,-0.59400,83.77000,0.03000
041225_03.31.48.992,0.65500,-0.53300,0.39100,36.10300,-53.86500,-30.59000,-0.06300,0.41700,-0.60600,83.20000,-0.57000
041225_03.31.49.004,0.64500,-0.57200,0.37300,42.07000,-58.38000,-19.37200,-0.06300,0.41700,-0.60600,83.64000,0.44000
041225_03.31.49.016,0.63000,-0.56300,0.31600,46.48000,-66.78000,-16.74700,-0.08500,0.42100,-0.62100,83.84000,0.20000
041225_03.31.49.028,0.59700,-0.58600,0.40200,51.50200,-81.28700,-24.72800,-0.11500,0.43000,-0.64100,83.92000,0.08000
041225_03.31.49.039,0.63600,-0.54100,0.54000,48.94700,-93.87000,-44.17000,-0.14400,0.44000,-0.65600,83.80000,-0.12000
041225_03.31.49.051,0.68600,-0.46900,0.62900,38.50000,-99.45200,-60.72500,-0.14400,0.45600,-0.66400,83.86000,0.06000
041225_03.31.49.063,0.74300,-0.39600,0.55400,27.66700,-100.01200,-67.55000,-0.17000,0.45600,-0.66400,83.10000,-0.76000
041225_03.31.49.075,0.83200,-0.42900,0.40700,26.37200,-95.11300,-66.08000,-0.20000,0.46100,-0.66900,83.60000,0.50000
041225_03.31.49.086,0.74300,-0.46700,0.32200,36.45200,-86.11800,-69.35300,-0.22300,0.46700,-0.66500,83.96000,0.36000
041225_03.31.49.098,0.82500,-0.46200,0.17100,50.54000,-78.96000,-77.75300,-0.25100,0.47700,-0.67400,83.64000,-0.32000
041225_03.31.49.110,0.81700,-0.43800,0.08100,60.00700,-81.25300,-91.07000,-0.25100,0.47700,-0.67400,84.04000,0.40000
041225_03.31.49.122,0.72000,-0.43400,0.06800,67.55000,-86.87000,-108.62200,-0.28000,0.49200,-0.68000,84.01000,-0.03000
041225_03.31.49.133,0.67900,-0.33700,0.03900,75.60000,-90.03700,-128.03000,-0.30600,0.49900,-0.68900,82.99000,-1.02000
041225_03.31.49.145,0.72800,-0.22300,-0.03700,84.33200,-84.70000,-145.30300,-0.33200,0.49700,-0.69500,83.40000,0.41000
041225_03.31.49.157,0.72000,-0.09600,-0.12500,122.90300,-83.56300,-160.59800,-0.36100,0.50400,-0.70200,83.37000,-0.03000
041225_03.31.49.169,1.11200,0.16100,-0.01500,161.10500,-100.78300,-155.22500,-0.36100,0.50400,-0.70200,83.01000,-0.36000
041225_03.31.49.181,1.25400,0.25000,0.24200,182.49000,-117.68800,-142.55500,-0.39200,0.49300,-0.71400,83.67000,0.66000
041225_03.31.49.193,1.34800,0.27500,0.45500,163.10000,-124.47800,-123.23500,-0.41500,0.47500,-0.72000,83.81000,0.14000
041225_03.31.49.205,1.49000,0.37800,0.57500,112.14000,-121.29300,-95.79500,-0.43100,0.45600,-0.72400,83.05000,-0.76000
041225_03.31.49.217,1.39300,0.31700,0.48500,58.81800,-108.13200,-61.49500,-0.45800,0.45200,-0.72500,83.58000,0.53000
041225_03.31.49.229,1.25000,0.25100,0.40200,30.17000,-86.81700,-35.42000,-0.45800,0.45200,-0.72500,83.89000,0.31000
041225_03.31.49.240,1.09400,0.27800,0.30600,25.69000,-70.33200,-22.06700,-0.47300,0.45500,-0.72500,83.16000,-0.73000
041225_03.31.49.252,1.08000,0.30500,0.21200,35.43800,-67.53300,-15.48800,-0.48600,0.45900,-0.72700,83.37000,0.21000
041225_03.31.49.263,1.08400,0.34100,0.15900,54.39000,-68.14500,-15.01500,-0.49700,0.45800,-0.73100,83.39000,0.02000
041225_03.31.49.275,1.09000,0.31100,0.13500,67.16500,-65.55500,-17.62200,-0.50800,0.45300,-0.73400,83.06000,-0.33000
041225_03.31.49.287,1.10200,0.22700,0.10000,69.07300,-60.69000,-20.80800,-0.50800,0.45300,-0.73400,84.11000,1.05000
041225_03.31.49.299,1.11300,0.22500,0.00200,64.24300,-57.89000,-36.78500,-0.52100,0.44700,-0.73600,83.94000,-0.17000
041225_03.31.49.311,1.16000,0.24500,-0.05700,64.31300,-58.06500,-42.63000,-0.52900,0.43500,-0.74000,84.01000,0.07000
041225_03.31.49.323,1.19600,0.24400,0.05100,58.78300,-59.48300,-46.21700,-0.54400,0.42600,-0.73900,83.69000,-0.32000
041225_03.31.49.334,1.16500,0.26900,0.07000,52.78000,-61.98500,-45.76300,-0.54400,0.42600,-0.74100,83.20000,-0.49000
041225_03.31.49.346,1.14400,0.31600,0.08400,47.02200,-60.11200,-40.77500,-0.55400,0.41700,-0.74100,83.86000,0.66000
041225_03.31.49.358,1.15100,0.34300,0.11700,41.96500,-55.17800,-31.23700,-0.56400,0.40700,-0.72900,83.47000,-0.39000
041225_03.31.49.370,1.18400,0.36500,0.11700,37.73000,-51.99300,-21.36800,-0.57700,0.39900,-0.73000,83.29000,-0.18000
041225_03.31.49.382,1.20000,0.41100,0.05100,34.52800,-51.55500,-13.72000,-0.58900,0.39500,-0.72800,83.66000,0.37000
041225_03.31.49.393,1.16800,0.41000,-0.02500,32.76000,-52.32500,-8.03300,-0.58900,0.39500,-0.72800,82.84000,-0.82000
041225_03.31.49.405,1.12700,0.38800,-0.06800,30.73000,-51.69500,-4.14800,-0.60200,0.39400,-0.72500,83.82000,0.98000
041225_03.31.49.417,1.08800,0.34800,-0.14400,28.07000,-52.16700,-1.13800,-0.60600,0.39200,-0.72100,83.66000,-0.16000
041225_03.31.49.428,1.10400,0.30500,-0.22300,27.40500,-56.85800,1.33000,-0.61300,0.38200,-0.71500,83.47000,-0.19000
041225_03.31.49.440,1.09300,0.29200,-0.30100,29.01500,-65.03000,4.53200,-0.62300,0.38600,-0.70500,82.83000,-0.64000
041225_03.31.49.451,1.09700,0.26400,-0.33300,24.01000,-80.85000,16.32700,-0.62300,0.38600,-0.70500,83.54000,0.71000
041225_03.31.49.463,1.04200,0.10400,-0.37700,25.18300,-88.48000,23.03000,-0.63200,0.39000,-0.69700,83.72000,0.18000
041225_03.31.49.475,1.03300,0.06400,-0.36400,22.62800,-95.44500,30.03000,-0.64800,0.38700,-0.68400,83.59000,-0.13000
041225_03.31.49.487,1.01900,0.04600,-0.34800,22.31200,-99.80200,41.17800,-0.66300,0.39200,-0.66900,83.23000,-0.36000
041225_03.31.49.498,0.99500,-0.00200,-0.38400,20.98300,-96.02200,54.53000,-0.67200,0.40300,-0.65500,83.75000,0.52000
041225_03.31.49.510,0.98700,-0.04800,-0.38500,14.35000,-85.97800,66.32500,-0.67200,0.40300,-0.65500,83.10000,-0.65000
041225_03.31.49.522,1.04200,-0.07100,-0.34900,0.22800,-78.38200,74.27000,-0.68200,0.41600,-0.64700,82.82000,-0.28000
041225_03.31.49.533,1.13000,-0.05400,-0.33300,-16.04800,-76.31700,78.06700,-0.68900,0.43200,-0.63900,82.88000,0.06000
041225_03.31.49.545,1.08700,-0.01900,-0.40400,-26.30200,-78.69800,78.71500,-0.70100,0.45200,-0.62400,82.98000,0.10000
041225_03.31.49.557,1.00800,0.00800,-0.41400,-27.10800,-75.14500,76.70200,-0.70100,0.46900,-0.61500,83.80000,0.82000
041225_03.31.49.568,1.00800,0.04300,-0.38300,-22.97800,-69.80800,71.99500,-0.70300,0.46900,-0.61500,83.58000,-0.22000
041225_03.31.49.580,1.06100,0.08700,-0.40200,-18.69000,-66.01000,64.71500,-0.70400,0.48400,-0.60400,83.06000,-0.52000
041225_03.31.49.592,1.04100,0.06800,-0.43100,-11.88200,-68.07500,57.62700,-0.71100,0.50000,-0.59500,82.71000,-0.35000
041225_03.31.49.604,0.95600,0.05700,-0.47500,8.29500,-76.45700,43.99500,-0.71200,0.50900,-0.58000,83.79000,1.08000
041225_03.31.49.615,0.84200,0.06500,-0.56100,17.65700,-74.13000,39.21700,-0.71200,0.50900,-0.58000,83.21000,-0.58000
041225_03.31.49.627,0.84300,0.07900,-0.59300,23.08300,-70.66500,35.22800,-0.71700,0.51600,-0.57100,83.35000,0.14000
041225_03.31.49.638,0.86300,0.13500,-0.57000,21.49000,-67.46300,32.41000,-0.71500,0.52300,-0.55800,83.47000,0.12000
041225_03.31.49.650,0.88800,0.09900,-0.56800,8.94300,-64.06700,34.05500,-0.72300,0.53100,-0.54900,83.41000,-0.06000
041225_03.31.49.662,0.87700,0.00600,-0.60000,-6.00300,-62.89500,36.62700,-0.72600,0.53600,-0.53300,83.56000,0.15000
041225_03.31.49.674,0.78300,-0.06000,-0.68200,-16.38000,-65.99300,34.91200,-0.72600,0.53600,-0.53300,83.85000,0.29000
041225_03.31.49.686,0.76800,-0.07100,-0.79000,-20.94800,-70.61300,28.49000,-0.72300,0.53700,-0.52700,82.61000,-1.24000
041225_03.31.49.697,0.76800,-0.08500,-0.77700,-20.91300,-75.16200,23.29200,-0.72600,0.54500,-0.50700,83.80000,1.19000
041225_03.31.49.709,0.78700,-0.10300,-0.66100,-17.86800,-80.64000,16.43300,-0.72400,0.55100,-0.49500,83.07000,-0.73000
041225_03.31.49.720,0.79200,-0.14400,-0.61600,-20.47500,-86.39700,9.88700,-0.72900,0.55000,-0.48000,83.45000,0.38000
041225_03.31.49.732,0.71700,-0.19000,-0.70800,-32.70800,-84.01800,6.14200,-0.72900,0.55000,-0.48000,83.96000,0.51000
041225_03.31.49.744,0.60100,-0.20200,-0.83400,-41.87700,-71.48800,4.23500,-0.73200,0.55200,-0.46400,83.88000,-0.08000
041225_03.31.49.755,0.57700,-0.19800,-0.81700,-11.44500,-59.01000,7.73500,-0.73000,0.55200,-0.45100,83.42000,-0.46000
041225_03.31.49.767,0.73100,-0.07200,-0.81500,7.64800,-62.79000,17.88500,-0.72600,0.55100,-0.43900,83.70000,0.28000
041225_03.31.49.779,0.72800,-0.10500,-0.77400,16.36200,-67.91800,31.01000,-0.72500,0.56500,-0.42900,83.60000,-0.10000
041225_03.31.49.791,0.59900,-0.13200,-0.83200,15.31300,-71.83800,41.35300,-0.72500,0.56500,-0.42900,82.74000,-0.86000
041225_03.31.49.802,0.51500,-0.17800,-0.84900,6.31800,-69.38700,47.11000,-0.72400,0.57000,-0.42000,83.24000,0.50000
041225_03.31.49.814,0.50300,-0.17800,-0.86400,-12.19800,-63.42000,52.83300,-0.71600,0.57700,-0.40200,83.87000,0.63000
041225_03.31.49.826,0.46400,-0.34500,-0.86000,-40.86200,-56.45500,64.82000,-0.71100,0.59200,-0.38900,83.26000,-0.61000
041225_03.31.49.837,0.65900,-0.40800,-0.75200,-75.47800,-53.70800,69.66800,-0.71100,0.59200,-0.37300,83.03000,-0.23000
041225_03.31.49.849,0.75000,-0.28300,-0.81900,-100.29300,-59.92000,63.73500,-0.70100,0.59800,-0.37300,83.19000,0.16000
041225_03.31.49.861,0.54100,-0.18400,-1.05400,-108.86800,-63.99800,53.86500,-0.69200,0.60600,-0.35100,83.17000,-0.02000
041225_03.31.49.872,0.56100,0.06300,-1.03400,-102.51500,-70.47300,37.08300,-0.68600,0.60400,-0.32900,83.18000,0.01000
041225_03.31.49.885,0.57700,-0.09900,-0.92700,-86.08200,-77.05200,22.12000,-0.68200,0.59900,-0.31800,82.79000,-0.39000
041225_03.31.49.896,0.55100,-0.32800,-0.77800,-94.13200,-81.51500,-48.56300,-0.68200,0.59900,-0.31800,84.08000,1.29000
041225_03.31.49.908,0.48000,-0.28100,-0.83100,-106.76800,-60.91700,-84.96300,-0.67700,0.58000,-0.29500,83.17000,-0.91000
041225_03.31.49.920,0.36700,0.27000,-0.85300,-110.25000,-39.84700,-105.43800,-0.68300,0.55300,-0.27500,83.52000,0.35000
041225_03.31.49.931,0.37500,0.34000,-0.72000,-95.25300,-36.27800,-109.53300,-0.68300,0.53200,-0.26300,83.38000,-0.14000
041225_03.31.49.943,0.32000,0.23800,-0.68800,-80.57000,-36.41700,-108.37800,-0.68900,0.50200,-0.26400,83.57000,0.19000
041225_03.31.49.954,0.26600,0.18400,-0.73600,-70.50700,-36.83800,-114.78300,-0.68900,0.50200,-0.26400,83.10000,-0.47000
041225_03.31.49.966,0.16200,0.20000,-0.78200,-63.85800,-41.52800,-126.68300,-0.69000,0.47400,-0.25000,83.64000,0.54000
041225_03.31.49.978,0.09500,0.29000,-0.80400,-59.22000,-47.46000,-138.09200,-0.68700,0.44800,-0.24400,83.02000,-0.62000
041225_03.31.49.990,0.04600,0.35900,-0.74600,-51.81800,-55.14300,-144.32200,-0.68300,0.41000,-0.23300,83.62000,0.60000
041225_03.31.50.002,-0.06300,0.36500,-0.72700,-41.68500,-64.47000,-140.03500,-0.68100,0.38400,-0.21700,83.27000,-0.35000
041225_03.31.50.014,-0.09800,0.30200,-0.72300,-36.20800,-63.22800,-123.02500,-0.68100,0.38400,-0.21700,83.87000,0.60000
041225_03.31.50.025,-0.02700,0.23500,-0.66700,-39.90000,-50.19000,-95.88200,-0.67200,0.36500,-0.21200,82.93000,-0.94000
041225_03.31.50.037,0.07300,0.22200,-0.56100,-50.22500,-34.51000,-58.74800,-0.67100,0.35400,-0.20900,83.14000,0.21000
041225_03.31.50.049,0.29200,0.60900,-0.63200,-41.42300,-39.60300,-26.98500,-0.66200,0.34100,-0.20200,82.73000,-0.41000
041225_03.31.50.060,0.10900,0.39000,-0.77100,-33.81000,-54.98500,-33.32000,-0.66200,0.33000,-0.20000,83.66000,0.93000
041225_03.31.50.072,0.09600,0.40700,-0.82600,-33.32000,-58.04800,-43.19000,-0.65300,0.33000,-0.20000,84.45000,0.79000
041225_03.31.50.084,-0.20100,0.64800,-0.86400,-31.55200,-61.61800,-45.97200,-0.65100,0.31400,-0.19900,83.45000,-1.00000
041225_03.31.50.096,-0.33800,0.73000,-0.80000,-22.54000,-53.20000,-26.91500,-0.64000,0.31000,-0.18400,82.93000,-0.52000
041225_03.31.50.107,-0.19300,0.55600,-0.77500,-7.92800,-42.36800,-2.39800,-0.63000,0.30300,-0.17900,83.20000,0.27000
041225_03.31.50.119,-0.13200,0.41500,-0.77900,4.16500,-42.66500,14.52500,-0.63000,0.30300,-0.17900,83.45000,0.25000
041225_03.31.50.131,-0.10000,0.40200,-0.78200,6.28200,-39.76000,19.79200,-0.62500,0.30100,-0.17200,82.90000,-0.55000
041225_03.31.50.142,-0.10500,0.39200,-0.82200,3.65800,-32.65500,23.31000,-0.62000,0.30500,-0.16000,83.44000,0.54000
041225_03.31.50.154,-0.10900,0.40100,-0.88900,-2.39800,-21.19200,22.64500,-0.61900,0.31200,-0.16200,83.05000,-0.39000
041225_03.31.50.166,-0.23200,0.50700,-0.99500,-9.55500,-6.42300,16.73000,-0.62700,0.31300,-0.16100,83.65000,0.60000
041225_03.31.50.177,-0.01500,0.30500,-0.86500,-16.18700,9.24000,10.67500,-0.62700,0.31300,-0.16100,83.01000,-0.64000
041225_03.31.50.189,0.05700,0.35700,-0.79700,-28.73500,18.35800,-3.36000,-0.62600,0.30000,-0.16500,83.37000,0.36000
041225_03.31.50.201,-0.01800,0.44900,-0.87800,-37.90500,32.86500,-8.34700,-0.63200,0.29500,-0.17000,83.59000,0.22000
041225_03.31.50.213,-0.06900,0.33000,-0.54900,-38.04500,27.26500,-13.49300,-0.63900,0.28500,-0.17700,83.06000,-0.53000
041225_03.31.50.224,-0.15500,0.37500,-0.54000,-43.22500,1.48700,-16.22200,-0.63700,0.27900,-0.18100,83.66000,0.60000
041225_03.31.50.236,-0.14100,0.35500,-0.66900,-51.01300,-15.41800,-12.25000,-0.63700,0.27900,-0.18100,83.05000,-0.61000
041225_03.31.50.247,-0.13500,0.37900,-0.82100,-53.37500,-20.54500,-12.33700,-0.63600,0.26600,-0.18600,83.73000,0.68000
041225_03.31.50.259,-0.22200,0.43100,-1.11700,-47.54800,-18.76000,-15.54000,-0.63100,0.25400,-0.17800,83.35000,-0.38000
041225_03.31.50.271,-0.13700,0.43500,-1.07800,-36.90800,0.63000,-23.71200,-0.63200,0.24500,-0.18000,82.96000,-0.39000
041225_03.31.50.283,-0.15400,0.53900,-0.99600,-27.54500,10.22000,-36.64500,-0.63300,0.23900,-0.18200,83.01000,0.05000
041225_03.31.50.295,-0.12300,0.78800,-0.98800,-27.49300,10.39500,-42.99800,-0.63300,0.23900,-0.18200,82.92000,-0.09000
041225_03.31.50.306,0.02000,0.80900,-0.94000,-37.64300,12.37300,-37.55500,-0.62700,0.22500,-0.18700,83.22000,0.30000
041225_03.31.50.318,0.10500,0.70900,-0.87000,-56.89300,13.82500,-30.78200,-0.62400,0.20900,-0.18700,83.20000,-0.02000
041225_03.31.50.329,0.03000,0.81900,-0.86700,-75.56500,10.11500,-34.73700,-0.62800,0.19200,-0.19700,83.27000,0.07000
041225_03.31.50.341,-0.03200,0.88900,-0.81400,-87.25500,1.19000,-38.58800,-0.62800,0.19200,-0.20200,83.17000,-0.10000
041225_03.31.50.353,-0.09900,0.90600,-0.85400,-84.64700,-4.42800,-36.20800,-0.62000,0.17600,-0.20200,82.98000,-0.19000
041225_03.31.50.365,-0.26700,0.73400,-0.93300,-74.21700,-2.67800,-29.54000,-0.61800,0.16000,-0.20600,83.66000,0.68000
041225_03.31.50.376,-0.40400,0.84700,-1.04700,-58.18800,4.46300,-23.67700,-0.61600,0.14900,-0.22100,83.33000,-0.33000
041225_03.31.50.388,-0.36400,0.73000,-0.96400,-37.71300,20.84300,-18.86500,-0.61700,0.13800,-0.22400,83.88000,0.55000
041225_03.31.50.399,-0.26000,0.47900,-0.73100,-19.12800,36.29500,-16.43300,-0.61700,0.13800,-0.22400,83.27000,-0.61000
041225_03.31.50.411,-0.28400,0.42100,-0.47800,-8.64500,34.63200,-23.64200,-0.61800,0.13500,-0.23200,82.96000,-0.31000
041225_03.31.50.423,-0.31400,0.42000,-0.33200,-3.76300,18.06000,-36.96000,-0.61800,0.13000,-0.23300,83.32000,0.36000
041225_03.31.50.434,-0.38900,0.47800,-0.27100,10.78000,-17.39500,-35.73500,-0.61000,0.12500,-0.22700,83.50000,0.18000
041225_03.31.50.446,0.04800,-0.00200,-0.75900,14.22700,-57.89000,-28.35000,-0.60400,0.12200,-0.21900,83.16000,-0.34000
041225_03.31.50.458,-0.24000,0.24100,-0.55900,-2.74700,-64.97800,-24.78000,-0.60400,0.12200,-0.21900,82.90000,-0.26000
041225_03.31.50.470,-0.16900,0.56900,-0.59300,-34.35300,-23.60800,-32.58500,-0.59700,0.11000,-0.21600,83.46000,0.56000
041225_03.31.50.482,-0.11600,0.85800,-0.46800,-51.80000,-6.73800,-41.65000,-0.58900,0.09700,-0.22600,83.15000,-0.31000
041225_03.31.50.494,-0.14400,0.97600,-0.39200,-64.33000,-15.29500,-34.33500,-0.58800,0.08400,-0.22700,83.48000,0.33000
041225_03.31.50.506,-0.16200,1.08700,-0.54100,-62.37000,-17.90300,-22.43500,-0.58300,0.07200,-0.22700,83.02000,-0.46000
041225_03.31.50.518,-0.25800,1.03400,-0.67000,-60.14700,-17.60500,-11.97000,-0.58300,0.07200,-0.22700,83.83000,0.81000
041225_03.31.50.530,-0.32400,1.00900,-0.78000,-61.18000,-11.32300,-5.02300,-0.58200,0.06500,-0.22100,83.89000,0.06000
041225_03.31.50.542,-0.29300,1.04400,-0.76300,-61.67000,-1.54000,-0.07000,-0.58600,0.05800,-0.24000,83.44000,-0.45000
041225_03.31.50.553,-0.18600,1.03300,-0.60700,-59.15000,2.92200,6.16000,-0.58000,0.05200,-0.24100,83.01000,-0.43000
041225_03.31.50.565,-0.12400,1.08500,-0.56700,-53.62000,-2.06500,12.33700,-0.58000,0.04800,-0.25300,83.70000,0.69000
041225_03.31.50.577,-0.07900,1.15900,-0.56000,-48.68500,-9.95800,13.63200,-0.58200,0.04800,-0.25300,83.38000,-0.32000
041225_03.31.50.589,-0.09100,1.20700,-0.58900,-44.78300,-15.55700,10.51700,-0.58100,0.04200,-0.25600,83.24000,-0.14000
041225_03.31.50.600,-0.11600,1.24700,-0.62200,-36.50500,-17.99000,4.14800,-0.57700,0.03600,-0.25800,83.13000,-0.11000
041225_03.31.50.612,-0.15400,1.16200,-0.63700,-22.94200,-20.80800,-8.76700,-0.57400,0.02800,-0.26300,83.70000,0.57000
041225_03.31.50.624,-0.19800,1.05300,-0.65900,-10.30700,-19.58300,-22.69800,-0.57400,0.02800,-0.26300,82.85000,-0.85000
041225_03.31.50.635,-0.25200,0.89600,-0.56600,3.11500,-17.76300,-56.56000,-0.56700,0.02700,-0.25700,83.24000,0.39000
041225_03.31.50.647,-0.35700,0.85200,-0.50600,-1.22500,-2.62500,-76.80800,-0.55600,0.01800,-0.26700,83.47000,0.23000
041225_03.31.50.659,-0.50700,0.74500,-0.38600,-8.01500,-1.19000,-91.70000,-0.54300,0.00700,-0.27200,83.55000,0.08000
041225_03.31.50.671,-0.71100,0.69800,-0.28900,-5.53000,-11.02500,-103.96700,-0.52800,-0.00600,-0.27400,83.49000,-0.06000
041225_03.31.50.683,-0.93800,0.78400,-0.22200,-0.71800,-18.28800,-109.23500,-0.52800,-0.00600,-0.27400,83.21000,-0.28000
041225_03.31.50.695,0.14000,2.17900,0.37600,-11.44500,-35.54200,-65.80000,-0.50400,-0.02000,-0.27600,83.33000,0.12000
041225_03.31.50.706,-0.64100,0.88600,-0.61000,14.54300,-77.10500,38.74500,-0.50100,-0.01200,-0.28200,83.02000,-0.31000
041225_03.31.50.718,-0.56900,0.71800,-0.30900,67.67300,-100.22300,74.93500,-0.50600,-0.00300,-0.26500,83.73000,0.71000
041225_03.31.50.730,-0.72500,0.68900,-0.24400,99.26000,-108.69200,105.56000,-0.51800,0.01900,-0.24500,83.30000,-0.43000
041225_03.31.50.742,-0.68500,0.70500,-0.25400,114.62500,-115.46500,114.73000,-0.51800,0.01900,-0.24500,83.74000,0.44000
041225_03.31.50.754,-0.68200,0.64600,-0.38800,124.05800,-125.31700,94.93800,-0.52300,0.04400,-0.22500,83.48000,-0.26000
041225_03.31.50.766,-0.66800,0.62200,-0.43500,131.21500,-125.28300,59.92000,-0.51800,0.06100,-0.20500,83.92000,0.44000
041225_03.31.50.778,-0.66200,0.60700,-0.41900,135.57200,-111.86000,27.03800,-0.51600,0.07600,-0.17900,82.40000,-1.52000
041225_03.31.50.789,-0.60200,0.58300,-0.43400,136.46500,-74.30500,-32.95200,-0.50800,0.09100,-0.16400,83.39000,0.99000
041225_03.31.50.801,-0.55100,0.52600,-0.31800,131.75800,-56.52500,-59.64000,-0.50800,0.09100,-0.16400,83.21000,-0.18000
041225_03.31.50.813,-0.40900,0.11700,-0.13400,112.14000,-41.38800,-82.07500,-0.49800,0.09900,-0.15400,82.66000,-0.55000
041225_03.31.50.824,-0.21500,0.17600,-0.16800,78.45200,-29.13800,-93.15300,-0.48400,0.10000,-0.14400,82.79000,0.13000
041225_03.31.50.836,-0.23300,0.39900,-0.36400,42.54200,-17.41300,-87.93800,-0.47700,0.08800,-0.14800,83.62000,0.83000
041225_03.31.50.848,-0.44400,0.64700,-0.42700,16.67700,-6.91200,-71.64500,-0.47700,0.08800,-0.14800,83.56000,-0.06000
041225_03.31.50.860,-0.65600,0.64600,-0.44100,-0.22800,-5.74000,-44.50200,-0.47300,0.08100,-0.14800,83.65000,0.09000
041225_03.31.50.871,-0.74200,0.65800,-0.47800,-9.22200,-15.26000,-28.05200,-0.47900,0.07400,-0.15100,83.27000,-0.38000
041225_03.31.50.883,-0.76100,0.57000,-0.51600,-4.35800,-27.45800,-34.66700,-0.47500,0.05900,-0.14800,83.75000,0.48000
041225_03.31.50.895,-0.71300,0.46400,-0.58300,3.53500,-44.78300,-43.64500,-0.46600,0.05000,-0.14900,83.07000,-0.68000
041225_03.31.50.906,-0.69800,0.26400,-0.64000,16.92300,-63.71700,-44.24000,-0.46600,0.05000,-0.14900,83.16000,0.09000
041225_03.31.50.918,-0.90800,0.44100,-0.53800,26.54800,-72.22300,-39.18200,-0.45800,0.03700,-0.13500,82.92000,-0.24000
041225_03.31.50.930,-0.80100,0.31800,-0.82000,26.35500,-82.35500,-22.45200,-0.44700,0.03500,-0.12700,83.73000,0.81000
041225_03.31.50.942,-0.72000,-0.03500,-0.57300,31.60500,-66.04500,-0.89200,-0.44500,0.03100,-0.12100,83.43000,-0.30000
041225_03.31.50.954,-0.71500,0.33700,-0.65700,27.44000,-65.95700,14.45500,-0.44100,0.02900,-0.11200,83.27000,-0.16000
041225_03.31.50.965,-0.56600,0.40000,-0.82100,10.36000,-61.68800,10.09700,-0.44100,0.02900,-0.11200,83.45000,0.18000
041225_03.31.50.977,-0.82500,0.52300,-0.54500,2.90500,-69.09000,0.17500,-0.44200,0.02200,-0.10900,84.20000,0.75000
041225_03.31.50.988,-0.55400,0.50700,-0.66000,0.36800,-62.02000,7.29800,-0.43700,0.01900,-0.10400,83.39000,-0.81000
041225_03.31.51.000,-0.53900,0.44900,-0.60000,-7.10500,-54.21500,12.09200,-0.43700,0.01500,-0.10300,82.68000,-0.71000
041225_03.31.51.012,-0.60700,0.37400,-0.61900,-15.45300,-50.12000,11.20000,-0.43800,0.00700,-0.09300,82.69000,0.01000
041225_03.31.51.023,-0.62700,0.32000,-0.61900,-22.55800,-48.89500,8.36500,-0.43800,0.00700,-0.09300,83.50000,0.81000
041225_03.31.51.035,-0.64900,0.28800,-0.55500,-29.83700,-50.85500,-0.15700,-0.43200,-0.00100,-0.09500,83.46000,-0.04000
041225_03.31.51.047,-0.85000,0.22600,-0.41200,-32.28700,-52.95500,-12.56500,-0.42900,-0.01100,-0.10000,83.43000,-0.03000
041225_03.31.51.059,-0.95400,0.28000,-0.41100,-31.22000,-53.74300,-28.73500,-0.41500,-0.01900,-0.09500,83.71000,0.28000
041225_03.31.51.071,-0.88900,0.41800,-0.47100,-24.32500,-49.28000,-50.54000,-0.41500,-0.03100,-0.09700,83.52000,-0.19000
041225_03.31.51.082,-0.97700,0.38000,-0.39500,-18.14800,-34.89500,-105.33200,-0.40300,-0.03100,-0.09700,82.80000,-0.72000
041225_03.31.51.094,-1.17800,0.47800,-0.26900,-26.79200,21.68300,-128.95800,-0.38600,-0.03300,-0.09500,84.01000,1.21000
041225_03.31.51.106,0.30700,0.85500,-0.43700,-18.09500,30.46800,-117.91500,-0.37000,-0.04100,-0.10700,83.26000,-0.75000
041225_03.31.51.117,-0.31000,0.19400,-0.38000,3.46500,-33.47800,-75.86300,-0.36100,-0.04500,-0.09600,83.26000,0.00000
041225_03.31.51.129,-0.94300,0.02400,-0.35800,-10.15000,-61.07500,-55.44000,-0.36100,-0.04500,-0.09600,83.29000,0.03000
041225_03.31.51.141,-1.04700,0.23400,-0.45500,-14.85800,-60.76000,-47.33800,-0.34500,-0.05300,-0.09400,83.34000,0.05000
041225_03.31.51.153,-1.01800,0.35400,-0.31300,3.22000,-59.39500,-33.04000,-0.32100,-0.06100,-0.09500,82.95000,-0.39000
041225_03.31.51.164,-0.99300,0.28400,-0.29400,14.33300,-54.23300,-22.89000,-0.31300,-0.06100,-0.09200,83.28000,0.33000
041225_03.31.51.176,-0.89200,0.28100,-0.29700,8.87300,-45.99000,-19.79200,-0.30200,-0.06500,-0.09100,83.25000,-0.03000
041225_03.31.51.188,-0.88800,0.23600,-0.26000,-4.04300,-35.78700,-21.85800,-0.30200,-0.06500,-0.09100,83.31000,0.06000
041225_03.31.51.199,-0.87200,0.19800,-0.24700,-17.30800,-26.68700,-26.47800,-0.29400,-0.07000,-0.08600,83.56000,0.25000
041225_03.31.51.211,-0.90400,0.19600,-0.20900,-25.95200,-22.26000,-30.22200,-0.28800,-0.07600,-0.09600,82.98000,-0.58000
041225_03.31.51.223,-0.89800,0.24400,-0.18900,-28.64800,-21.50700,-30.94000,-0.27700,-0.08500,-0.10100,83.90000,0.92000
041225_03.31.51.235,-0.90000,0.26700,-0.15900,-28.47200,-24.78000,-31.57000,-0.27300,-0.09500,-0.09800,82.61000,-1.29000
041225_03.31.51.247,-1.10900,0.13600,0.16000,-47.67000,-46.51500,-54.47800,-0.27300,-0.09500,-0.09800,83.30000,0.69000
041225_03.31.51.258,-1.21500,0.02100,0.15500,-79.55500,-81.51500,-81.72500,-0.25600,-0.10500,-0.11100,83.27000,-0.03000
041225_03.31.51.270,-1.16200,0.23500,-0.38900,-106.40000,-106.61000,-100.66000,-0.21700,-0.11900,-0.12700,82.94000,-0.33000
041225_03.31.51.282,-1.03500,0.31600,-0.24400,-111.49300,-85.94200,-101.60500,-0.18300,-0.12700,-0.14700,84.15000,1.21000
041225_03.31.51.293,-0.96300,-0.03800,0.27400,-127.64500,-76.68500,-100.88700,-0.15200,-0.14000,-0.18300,83.01000,-1.14000
041225_03.31.51.305,-1.02400,0.17100,0.02900,-147.36800,-87.67500,-112.87500,-0.15200,-0.14000,-0.18300,82.90000,-0.11000
041225_03.31.51.317,-1.06300,0.20700,-0.01000,-133.91000,-76.30000,-111.54500,-0.11600,-0.15300,-0.21300,83.25000,0.35000
041225_03.31.51.329,-1.14000,-0.08400,0.25600,-108.92000,-55.16000,-107.20500,-0.08600,-0.15000,-0.24000,82.97000,-0.28000
041225_03.31.51.341,-1.15500,-0.19300,0.33800,-107.62500,-49.56000,-116.09500,-0.05400,-0.14700,-0.25400,83.89000,0.92000
041225_03.31.51.353,-1.09600,-0.00800,0.29200,-121.48500,-51.99300,-124.86300,-0.05400,-0.14700,-0.28900,82.99000,-0.90000
041225_03.31.51.364,-0.86300,0.09600,0.37100,-130.74300,-47.28500,-115.29000,-0.02900,-0.14500,-0.28900,83.80000,0.81000
041225_03.31.51.376,-1.05600,-0.01000,0.15400,-132.38700,-46.14700,-91.80500,-0.00400,-0.14600,-0.32200,83.50000,-0.30000
041225_03.31.51.388,-1.03200,-0.08300,0.03000,-109.97000,-50.90800,-64.50500,0.01600,-0.13700,-0.34100,83.16000,-0.34000
041225_03.31.51.399,-0.84900,-0.12000,-0.02800,-96.19800,-52.43000,-50.73300,0.02500,-0.13700,-0.36900,83.49000,0.33000
041225_03.31.51.411,-0.88900,-0.09500,0.00200,-86.43300,-55.40500,-43.10300,0.02500,-0.13700,-0.36900,83.67000,0.18000
041225_03.31.51.423,-0.98000,-0.03400,0.01500,-77.05200,-59.20200,-34.21300,0.03400,-0.12800,-0.39600,83.61000,-0.06000
041225_03.31.51.435,-0.92300,0.00100,0.00800,-71.80200,-59.50000,-16.18700,0.04100,-0.13100,-0.41700,82.59000,-1.02000
041225_03.31.51.447,-0.89400,-0.18600,0.06800,-66.37800,-49.14000,1.96000,0.04400,-0.12900,-0.43900,82.78000,0.19000
041225_03.31.51.458,-0.90000,-0.25400,0.05900,-55.96500,-47.60000,6.56200,0.04200,-0.13500,-0.45500,83.06000,0.28000
041225_03.31.51.470,-0.94600,-0.24700,0.04800,-48.07200,-47.26800,5.25000,0.04200,-0.13500,-0.45500,83.53000,0.47000
041225_03.31.51.481,-0.95800,-0.32600,0.10400,-43.38200,-44.01300,-0.89200,0.04300,-0.13800,-0.46400,82.99000,-0.54000
041225_03.31.51.493,-0.85200,-0.37200,0.16200,-42.08800,-38.46500,-11.62000,0.04100,-0.13400,-0.48200,83.02000,0.03000
041225_03.31.51.505,-0.73400,-0.48400,0.19100,-45.62300,-38.15000,-15.73300,0.04200,-0.13600,-0.49300,82.83000,-0.19000
041225_03.31.51.517,-0.80800,-0.43600,0.17800,-58.95800,-50.48700,-11.86500,0.04300,-0.12900,-0.52000,83.25000,0.42000
041225_03.31.51.528,-0.83800,-0.35300,0.24500,-76.58000,-68.26800,-9.94000,0.04300,-0.12900,-0.52000,82.88000,-0.37000
041225_03.31.51.540,-0.90600,-0.34700,0.25300,-110.40800,-90.65000,-13.77300,0.04400,-0.12200,-0.54400,83.12000,0.24000
041225_03.31.51.552,-1.01000,-0.34800,0.25200,-120.24300,-92.94200,-21.57700,0.04000,-0.10900,-0.58000,84.08000,0.96000
041225_03.31.51.564,-0.83600,-0.30500,0.23600,-123.69000,-92.27800,-27.07300,0.03900,-0.09700,-0.61700,83.22000,-0.86000
041225_03.31.51.575,-1.00900,-0.39800,-0.01700,-115.36000,-89.33800,-30.92300,0.04200,-0.07500,-0.63700,83.47000,0.25000
041225_03.31.51.587,-0.94600,-0.44800,0.22100,-107.13500,-76.28300,-51.60800,0.04200,-0.07500,-0.63700,83.13000,-0.34000
041225_03.31.51.599,-0.86000,-0.40900,0.28200,-116.93500,-72.53700,-66.74500,0.05200,-0.04900,-0.66900,83.47000,0.34000
041225_03.31.51.610,-0.78300,-0.35500,0.39100,-119.45500,-75.56500,-68.02200,0.05500,-0.01900,-0.69700,83.42000,-0.05000
041225_03.31.51.622,-0.82900,-0.39300,0.49200,-114.17000,-81.46300,-64.34800,0.06100,0.01600,-0.72200,83.14000,-0.28000
041225_03.31.51.634,-0.83300,-0.44900,0.54400,-112.54300,-86.87000,-64.45200,0.06100,0.01600,-0.72200,83.83000,0.69000
041225_03.31.51.646,-0.79700,-0.44800,0.58100,-112.99700,-94.25500,-65.52000,0.06600,0.04400,-0.74800,83.44000,-0.39000
041225_03.31.51.658,-0.79400,-0.42900,0.62000,-111.44000,-104.87800,-65.13500,0.06400,0.08200,-0.77600,83.16000,-0.28000
041225_03.31.51.669,-0.77400,-0.43900,0.62800,-106.45200,-115.95500,-63.91000,0.04900,0.10700,-0.80400,82.99000,-0.17000
041225_03.31.51.696,-0.72000,-0.49600,0.58000,-99.89000,-128.46700,-64.97800,0.03500,0.14300,-0.82500,82.94000,-0.05000
041225_03.31.51.708,-0.67700,-0.56500,0.48800,-90.87800,-125.33500,-66.53500,0.03500,0.14300,-0.82500,83.20000,0.26000
041225_03.31.51.719,-0.52800,-0.70600,0.43300,-91.87500,-122.09800,-68.28500,0.01200,0.16600,-0.84500,83.39000,0.19000
041225_03.31.51.731,-0.45200,-0.58400,0.31300,-93.11800,-121.25700,-64.54000,-0.00700,0.19400,-0.86600,82.65000,-0.74000
041225_03.31.51.742,-0.43600,-0.47500,0.37100,-83.59800,-118.31700,-55.84200,-0.03300,0.22000,-0.89000,83.38000,0.73000
041225_03.31.51.754,-0.39100,-0.70000,0.48700,-80.83200,-112.66500,-47.81000,-0.05500,0.24100,-0.90900,83.51000,0.13000
041225_03.31.51.766,-0.51000,-0.85400,0.57700,-96.28500,-108.64000,-44.32700,-0.05500,0.24100,-0.90900,83.02000,-0.49000
041225_03.31.51.777,-0.65400,-0.90700,0.64500,-115.71000,-105.68300,-44.88800,-0.08100,0.25900,-0.92900,83.35000,0.33000
041225_03.31.51.789,-0.61800,-0.88100,0.66800,-127.61000,-101.53500,-43.03300,-0.11200,0.28800,-0.94100,83.44000,0.09000
041225_03.31.51.801,-0.51900,-0.78000,0.68000,-124.40800,-93.08200,-32.69000,-0.13100,0.32000,-0.96000,83.82000,0.38000
041225_03.31.51.812,-0.41200,-0.86400,0.63500,-109.27000,-81.51500,-19.54800,-0.16000,0.33800,-0.97400,82.88000,-0.94000
041225_03.31.51.824,-0.37800,-1.01500,0.43300,-94.09800,-75.84500,-18.95200,-0.16000,0.33800,-0.97400,83.67000,0.79000
041225_03.31.51.835,-0.36700,-1.03200,0.27400,-85.99500,-70.82300,-32.65500,-0.19100,0.36000,-0.97900,83.38000,-0.29000
041225_03.31.51.847,-0.33100,-0.93700,0.29000,-77.57700,-79.59000,-56.36800,-0.21000,0.37900,-0.97900,83.93000,0.55000
041225_03.31.51.858,-0.36700,-0.89200,0.29600,-78.97800,-92.94200,-57.03300,-0.23200,0.40100,-0.98500,83.28000,-0.65000
041225_03.31.51.870,-0.36500,-0.57200,0.34800,-84.03500,-99.01500,-53.91700,-0.23200,0.40100,-0.98800,84.15000,0.87000
041225_03.31.51.881,-0.23100,-0.58200,0.39300,-89.18000,-103.58200,-35.00000,-0.27100,0.41800,-0.98800,83.16000,-0.99000
041225_03.31.51.893,-0.09100,-0.85800,0.26600,-99.68000,-101.25500,-17.48300,-0.29800,0.44600,-0.98800,83.82000,0.66000
041225_03.31.51.905,-0.05800,-0.93000,0.14500,-113.22500,-80.51800,-11.51500,-0.32900,0.48000,-0.99000,83.54000,-0.28000
041225_03.31.51.917,-0.12100,-1.10400,0.36100,-126.45500,-49.59500,-7.00000,-0.35000,0.51700,-0.97800,83.58000,0.04000
041225_03.31.51.928,-0.22800,-1.20100,0.41600,-133.35000,-31.53500,-12.56500,-0.35000,0.51700,-0.97800,83.03000,-0.55000
041225_03.31.51.940,-0.23800,-1.20100,0.32300,-126.64700,-26.54800,-27.23000,-0.37200,0.55100,-0.97400,83.32000,0.29000
041225_03.31.51.952,-0.22900,-1.23200,0.15600,-108.57000,-28.38500,-45.08000,-0.40100,0.56900,-0.96900,82.95000,-0.37000
041225_03.31.51.964,-0.14900,-1.30100,0.21100,-80.88500,-33.67000,-62.24800,-0.43500,0.56100,-0.96600,83.15000,0.20000
041225_03.31.51.976,-0.16000,-1.24500,0.30900,-52.13200,-43.40000,-76.44000,-0.47400,0.54100,-0.96200,83.14000,-0.01000
041225_03.31.51.987,-0.21800,-1.08400,0.42000,-33.58300,-52.79800,-87.20200,-0.47400,0.54100,-0.96200,83.48000,0.34000
041225_03.31.51.999,-0.46700,-1.06700,0.31200,-22.62800,-70.07000,-96.60000,-0.51900,0.50500,-0.96900,84.05000,0.57000
041225_03.31.52.011,-0.34100,-0.95200,0.14500,-22.08500,-66.88500,-97.05500,-0.55400,0.46200,-0.95700,83.21000,-0.84000
041225_03.31.52.022,-0.29200,-0.95300,0.08300,-22.68000,-58.71300,-92.38200,-0.58500,0.41800,-0.95300,83.66000,0.45000
041225_03.31.52.034,-0.30000,-0.95800,0.07400,-30.10000,-52.51800,-81.25300,-0.60500,0.36800,-0.95900,83.17000,-0.49000
041225_03.31.52.046,-0.37100,-0.96700,0.08500,-41.37000,-53.28700,-69.38700,-0.60500,0.36800,-0.95900,83.82000,0.65000
041225_03.31.52.057,-0.38000,-0.97700,0.17400,-57.94300,-60.70800,-59.83300,-0.62000,0.33900,-0.95100,82.99000,-0.83000
041225_03.31.52.069,-0.31900,-0.98900,0.28500,-72.73000,-75.63500,-50.64500,-0.64200,0.31600,-0.96400,83.76000,0.77000
041225_03.31.52.080,-0.32600,-1.03800,0.24200,-81.46300,-93.24000,-43.87300,-0.65100,0.30600,-0.96100,82.84000,-0.92000
041225_03.31.52.092,-0.33200,-1.05600,0.11400,-83.65000,-104.19500,-41.68500,-0.67300,0.29800,-0.96400,83.58000,0.74000
041225_03.31.52.104,-0.33600,-1.01200,0.02500,-80.57000,-105.45500,-41.65000,-0.67300,0.29800,-0.96400,83.41000,-0.17000
041225_03.31.52.116,-0.31600,-0.96400,-0.01900,-76.42300,-97.12500,-40.02200,-0.68500,0.29800,-0.95600,83.04000,-0.37000
041225_03.31.52.128,-0.21500,-0.90400,0.03300,-75.91500,-88.16500,-35.26300,-0.69500,0.29700,-0.95800,83.26000,0.22000
041225_03.31.52.139,-0.09200,-0.89400,0.04400,-78.03300,-88.04300,-21.10500,-0.71500,0.31300,-0.95900,82.96000,-0.30000
041225_03.31.52.151,-0.05000,-0.92100,-0.01500,-80.71000,-101.20200,-19.33700,-0.71500,0.31300,-0.95900,82.83000,-0.13000
041225_03.31.52.163,-0.01600,-0.92300,-0.01600,-82.47800,-108.62200,-19.79200,-0.74200,0.32500,-0.94300,83.58000,0.75000
041225_03.31.52.174,-0.02400,-0.83600,-0.05000,-85.40000,-119.50700,-20.51000,-0.76900,0.34400,-0.93600,83.57000,-0.01000
041225_03.31.52.186,-0.08900,-0.94100,-0.16300,-84.26200,-125.91200,-20.87800,-0.80300,0.36300,-0.91700,83.26000,-0.31000
041225_03.31.52.198,-0.00000,-0.98000,-0.25900,-81.76000,-119.29800,-21.08700,-0.84100,0.38000,-0.90900,83.73000,0.47000
041225_03.31.52.209,0.04200,-0.95000,-0.17900,-75.70500,-110.23200,-25.07700,-0.84100,0.38000,-0.90900,83.84000,0.11000
041225_03.31.52.221,0.04400,-0.89200,-0.24100,-67.11300,-108.11500,-32.77800,-0.88100,0.38600,-0.89200,83.47000,-0.37000
041225_03.31.52.233,0.03800,-0.82500,-0.30800,-60.56800,-107.38000,-37.78300,-0.91500,0.39100,-0.87600,83.36000,-0.11000
041225_03.31.52.245,0.01200,-0.80000,-0.38400,-60.98700,-107.34500,-39.77800,-0.94900,0.39000,-0.84700,83.28000,-0.08000
041225_03.31.52.257,-0.01600,-0.74600,-0.46600,-63.22800,-107.74700,-40.88000,-0.99300,0.39900,-0.82300,83.76000,0.48000
041225_03.31.52.268,-0.14900,-0.74500,-0.48200,-64.47000,-105.26200,-42.47200,-0.99300,0.39900,-0.82300,83.16000,-0.60000
041225_03.31.52.280,-0.22300,-0.74300,-0.51400,-70.82300,-97.00300,-44.38000,-1.03400,0.39700,-0.79400,83.01000,-0.15000
041225_03.31.52.292,-0.21200,-0.73100,-0.47500,-75.39000,-87.32500,-40.39000,-1.07500,0.39400,-0.76300,83.06000,0.05000
041225_03.31.52.303,-0.19600,-0.70400,-0.57600,-69.00300,-76.93000,-31.95500,-1.11400,0.39900,-0.73300,83.39000,0.33000
041225_03.31.52.315,-0.13900,-0.70300,-0.66300,-65.55500,-56.49000,-21.63000,-1.15000,0.40000,-0.70900,84.36000,0.97000
041225_03.31.52.327,-0.10000,-0.74000,-0.76200,-60.91700,-29.55800,-13.80700,-1.15000,0.40000,-0.70900,83.70000,-0.66000
041225_03.31.52.339,-0.08400,-0.76700,-0.80100,-54.26800,-3.01000,-9.41500,-1.18400,0.40500,-0.69100,83.26000,-0.44000
041225_03.31.52.351,-0.05900,-0.78500,-0.75700,-46.48000,17.29000,-9.57300,-1.20800,0.40900,-0.69000,83.61000,0.35000
041225_03.31.52.362,0.05100,-0.80400,-0.70600,-43.78500,31.93700,-8.55700,-1.22900,0.41100,-0.69600,82.87000,-0.74000
041225_03.31.52.374,0.00600,-0.80600,-0.64200,-43.13800,40.05700,-7.10500,-1.22900,0.41100,-0.70100,83.46000,0.59000
041225_03.31.52.386,0.01500,-0.79800,-0.63200,-42.64700,45.41200,-8.76700,-1.24300,0.41100,-0.70100,83.21000,-0.25000
041225_03.31.52.397,-0.03100,-0.76000,-0.64000,-43.97800,46.88200,-10.29000,-1.26100,0.40700,-0.71100,83.41000,0.20000
041225_03.31.52.409,-0.19400,-0.70900,-0.74600,-38.30700,42.73500,-15.40000,-1.27500,0.39800,-0.70300,83.06000,-0.35000
041225_03.31.52.421,-0.18700,-0.58900,-0.75400,-30.57300,37.27500,-22.48700,-1.29200,0.39100,-0.69600,82.99000,-0.07000
041225_03.31.52.432,-0.02400,-0.54500,-0.67300,-28.52500,29.85500,-21.70000,-1.29200,0.39100,-0.69600,82.94000,-0.05000
041225_03.31.52.444,-0.12900,-0.46800,-0.85700,-26.67000,31.51700,-11.32300,-1.30400,0.38400,-0.69400,83.49000,0.55000
041225_03.31.52.455,-0.07300,-0.34000,-0.91100,-21.05200,49.61200,-7.80500,-1.31900,0.38300,-0.69200,83.69000,0.20000
041225_03.31.52.467,0.01300,-0.35100,-0.93100,-18.81200,65.27500,-4.91800,-1.32000,0.38100,-0.69600,82.67000,-1.02000
041225_03.31.52.478,0.05800,-0.40500,-0.86300,-15.96000,76.80800,-1.31200,-1.32200,0.38100,-0.70700,83.42000,0.75000
041225_03.31.52.490,0.16000,-0.46300,-0.58600,-19.86200,85.71500,1.78500,-1.32200,0.38100,-0.70700,82.53000,-0.89000
041225_03.31.52.502,0.14300,-0.59500,-0.57700,-34.09000,85.76800,6.94800,-1.32300,0.38800,-0.72100,82.42000,-0.11000
041225_03.31.52.513,0.09800,-0.67100,-0.81300,-39.98700,81.14700,5.16200,-1.32900,0.39500,-0.73500,82.75000,0.33000
041225_03.31.52.525,0.23100,-0.72000,-0.77000,-35.66500,75.44200,1.90800,-1.33700,0.39600,-0.74400,83.07000,0.32000
041225_03.31.52.536,0.43500,-0.78400,-0.78000,-24.93700,57.17300,2.29300,-1.34100,0.40000,-0.72800,82.52000,-0.55000
041225_03.31.52.548,0.40600,-0.79500,-0.83900,-15.97700,36.12000,5.37200,-1.34100,0.40000,-0.72800,83.53000,1.01000
041225_03.31.52.559,0.39100,-0.72800,-0.82600,-14.96200,29.69800,5.12800,-1.34800,0.39800,-0.71400,82.99000,-0.54000
041225_03.31.52.571,0.43700,-0.64900,-0.83400,-15.31300,33.84500,6.16000,-1.35000,0.39700,-0.71500,83.04000,0.05000
041225_03.31.52.582,0.53200,-0.58100,-0.82100,-15.13700,43.05000,12.37300,-1.35500,0.38800,-0.71700,83.12000,0.08000
041225_03.31.52.594,0.52300,-0.59200,-0.75200,-15.01500,50.47000,9.08300,-1.36000,0.37200,-0.72100,83.07000,-0.05000
041225_03.31.52.605,0.39300,-0.61800,-0.78500,-11.48000,49.89300,-0.47200,-1.36000,0.37200,-0.72100,83.16000,0.09000
041225_03.31.52.617,0.32700,-0.59600,-0.82200,-6.56200,47.63500,-9.38000,-1.36600,0.34800,-0.73100,83.05000,-0.11000
041225_03.31.52.628,0.26300,-0.53600,-0.73000,-4.86500,44.83500,-18.35800,-1.36900,0.32000,-0.73200,83.17000,0.12000
041225_03.31.52.640,0.25100,-0.50400,-0.64700,-6.44000,36.78500,-26.95000,-1.36900,0.28600,-0.72700,83.09000,-0.08000
041225_03.31.52.651,0.26100,-0.46100,-0.67400,-6.82500,22.33000,-35.22800,-1.36900,0.28600,-0.72700,83.20000,0.11000
041225_03.31.52.663,0.23600,-0.45900,-0.70400,-0.56000,7.66500,-44.38000,-1.37300,0.24300,-0.70700,83.39000,0.19000
041225_03.31.52.674,0.27900,-0.43700,-0.75500,9.24000,-1.20700,-51.36200,-1.37000,0.19900,-0.68000,83.41000,0.02000
041225_03.31.52.686,0.29000,-0.47800,-0.72600,19.05800,-2.11800,-46.97000,-1.36700,0.15800,-0.65000,83.23000,-0.18000
041225_03.31.52.697,0.29100,-0.50400,-0.73400,23.90500,3.46500,-35.52500,-1.36400,0.12300,-0.62500,83.65000,0.42000
041225_03.31.52.709,0.31400,-0.52000,-0.70900,29.38200,15.48800,-22.45200,-1.36400,0.12300,-0.62500,82.88000,-0.77000
041225_03.31.52.720,0.39600,-0.51100,-0.69900,35.40300,28.52500,-11.34000,-1.35700,0.09800,-0.60400,82.94000,0.06000
041225_03.31.52.732,0.45500,-0.52100,-0.63800,41.10800,29.03200,-7.17500,-1.34800,0.07500,-0.58000,83.46000,0.52000
041225_03.31.52.744,0.44800,-0.50500,-0.61100,50.64500,13.52800,-17.11500,-1.34800,0.05600,-0.54600,83.14000,-0.32000
041225_03.31.52.755,0.43400,-0.67400,-0.68600,51.41500,-4.49700,-31.36000,-1.34000,0.02700,-0.50200,82.82000,-0.32000
041225_03.31.52.767,0.26600,-0.74500,-0.93300,54.28500,-15.66300,-41.61500,-1.34000,0.02700,-0.50200,82.75000,-0.07000
041225_03.31.52.778,0.21500,-0.69900,-1.00600,56.22800,-6.68500,-44.78300,-1.32100,0.00000,-0.45300,83.25000,0.50000
041225_03.31.52.790,0.32000,-0.65000,-0.79800,51.03000,7.87500,-37.80000,-1.30000,-0.01900,-0.42200,83.05000,-0.20000
041225_03.31.52.801,0.38500,-0.50600,-0.68500,42.63000,15.06800,-32.07700,-1.26600,-0.03200,-0.39400,83.52000,0.47000
041225_03.31.52.813,0.39900,-0.59300,-0.59600,47.54800,17.08000,-26.70500,-1.24000,-0.03500,-0.36500,83.50000,-0.02000
041225_03.31.52.824,0.43900,-0.64400,-0.56100,49.10500,17.37800,-24.57000,-1.24000,-0.03500,-0.36500,83.53000,0.03000
041225_03.31.52.836,0.51100,-0.71200,-0.52600,48.37000,13.61500,-22.20800,-1.21600,-0.03500,-0.33500,83.12000,-0.41000
041225_03.31.52.848,0.56800,-0.73300,-0.47200,44.92300,5.44300,-19.14500,-1.19000,-0.02600,-0.30400,82.95000,-0.17000
041225_03.31.52.859,0.60000,-0.72200,-0.44500,36.80300,-3.74500,-16.43300,-1.15700,-0.01600,-0.26500,83.49000,0.54000
041225_03.31.52.871,0.64800,-0.68600,-0.38800,26.65300,-13.21200,-13.23000,-1.15700,-0.00300,-0.22500,83.83000,0.34000
041225_03.31.52.882,0.58000,-0.73600,-0.57600,27.61500,-32.00700,-16.10000,-1.11200,-0.00300,-0.22500,83.44000,-0.39000
041225_03.31.52.894,0.54400,-0.65400,-0.74700,41.98300,-34.66700,-23.64200,-1.06900,0.00500,-0.18500,83.18000,-0.26000
041225_03.31.52.905,0.50500,-0.68600,-0.66500,48.91200,-35.92800,-27.16000,-1.02400,0.02000,-0.14600,83.17000,-0.01000
041225_03.31.52.917,0.46700,-0.67600,-0.64800,48.19500,-37.41500,-28.85800,-0.97700,0.03500,-0.10800,83.43000,0.26000
041225_03.31.52.928,0.51200,-0.62300,-0.60500,46.11200,-36.45200,-26.46000,-0.97700,0.03500,-0.10800,83.72000,0.29000
041225_03.31.52.940,0.61900,-0.58700,-0.47700,45.78000,-33.42500,-17.72800,-0.93100,0.04800,-0.07700,83.48000,-0.24000
041225_03.31.52.952,0.57800,-0.67800,-0.53400,46.13000,-30.57300,-7.29800,-0.88000,0.06700,-0.04700,83.15000,-0.33000
041225_03.31.52.963,0.54500,-0.75400,-0.60800,59.64000,-28.07000,-8.03300,-0.83600,0.09900,-0.01400,83.38000,0.23000
041225_03.31.52.975,0.68300,-0.73600,-0.58900,74.55000,-26.60000,-11.25200,-0.78300,0.12900,0.01700,83.11000,-0.27000
041225_03.31.52.986,0.62000,-0.71800,-0.48500,85.34800,-36.08500,-9.27500,-0.78300,0.12900,0.01700,83.54000,0.43000
041225_03.31.52.998,0.47700,-0.69300,-0.49700,95.97000,-54.35500,-10.04500,-0.72600,0.16500,0.04300,83.00000,-0.54000
041225_03.31.53.009,0.41300,-0.65900,-0.54900,107.53700,-73.36000,-11.30500,-0.65900,0.21000,0.07200,83.45000,0.45000
041225_03.31.53.021,0.31100,-0.67500,-0.63300,125.23000,-89.77500,3.11500,-0.58600,0.27000,0.09600,83.08000,-0.37000
041225_03.31.53.032,0.05300,-1.02100,-0.58200,117.19800,-80.04500,-2.71300,-0.53000,0.33300,0.10300,82.94000,-0.14000
041225_03.31.53.044,-0.02000,-1.05800,-0.49200,90.42300,-55.75500,-8.76700,-0.53000,0.33300,0.10300,82.89000,-0.05000
041225_03.31.53.055,0.19000,-1.00300,-0.31600,74.74300,-30.06500,-8.54000,-0.47800,0.37700,0.09100,82.99000,0.10000
041225_03.31.53.067,0.20900,-0.96800,-0.25800,67.16500,-16.55500,-4.04300,-0.43400,0.42000,0.06700,83.59000,0.60000
041225_03.31.53.078,0.31800,-0.99500,-0.15500,64.99500,-11.95300,0.03500,-0.39600,0.46000,0.03700,83.24000,-0.35000
041225_03.31.53.090,0.40500,-1.06800,-0.14600,60.44500,-16.52000,5.02300,-0.37000,0.49600,0.00100,82.73000,-0.51000
041225_03.31.53.101,0.41100,-1.06400,-0.22900,58.99300,-24.88500,4.30500,-0.37000,0.49600,0.00100,83.14000,0.41000
041225_03.31.53.113,0.34700,-1.08900,-0.36100,65.52000,-34.40500,-2.25700,-0.33100,0.53200,-0.04200,82.95000,-0.19000
041225_03.31.53.124,0.40500,-1.01300,-0.38500,72.17000,-40.74000,-10.95500,-0.30500,0.56200,-0.08700,83.08000,0.13000
041225_03.31.53.136,0.40700,-0.96200,-0.32700,77.54300,-43.22500,-13.91300,-0.27200,0.59500,-0.13200,82.84000,-0.24000
041225_03.31.53.147,0.33300,-0.96000,-0.24100,79.13500,-46.02500,-11.07800,-0.27200,0.59500,-0.13200,82.99000,0.15000
041225_03.31.53.159,0.39000,-0.96400,-0.11900,76.40500,-47.88000,-5.39000,-0.24900,0.62200,-0.18100,83.17000,0.18000
041225_03.31.53.170,0.37600,-1.11300,-0.02200,74.00700,-51.17000,3.41200,-0.22700,0.64300,-0.23300,82.81000,-0.36000
041225_03.31.53.182,0.44000,-1.03500,-0.28700,83.12500,-45.32500,9.60800,-0.21000,0.66000,-0.29100,83.02000,0.21000
041225_03.31.53.194,0.44600,-1.18500,-0.18900,90.82500,-22.57500,9.43200,-0.20000,0.67300,-0.33200,82.99000,-0.03000
041225_03.31.53.205,0.27800,-1.05900,0.08100,93.48500,-12.02300,12.74000,-0.20000,0.67300,-0.33200,82.88000,-0.11000
041225_03.31.53.217,0.10200,-1.09000,-0.16400,90.23000,-10.97200,14.52500,-0.19100,0.68300,-0.38500,82.88000,0.00000
041225_03.31.53.228,0.08500,-1.06800,-0.14100,89.79300,2.27500,11.39200,-0.18400,0.68800,-0.42800,83.10000,0.22000
041225_03.31.53.240,0.06000,-1.06600,-0.07800,93.78300,17.37800,8.26000,-0.18900,0.68500,-0.47700,83.05000,-0.05000
041225_03.31.53.251,0.07500,-1.10100,-0.07200,97.79000,31.74500,2.25700,-0.19900,0.68100,-0.51200,82.66000,-0.39000
041225_03.31.53.263,0.26300,-1.14400,-0.08400,99.17300,46.63800,-4.77800,-0.19900,0.68100,-0.51200,83.11000,0.45000
041225_03.31.53.274,0.47600,-1.10500,-0.07200,97.03700,56.64700,-7.45500,-0.21200,0.67400,-0.54300,83.01000,-0.10000
041225_03.31.53.286,0.56800,-1.09100,-0.04300,97.16000,54.28500,-6.72000,-0.22200,0.66400,-0.57700,83.34000,0.33000
041225_03.31.53.297,0.60600,-1.13000,0.01700,98.59500,42.80500,-1.38300,-0.22400,0.65300,-0.60000,83.73000,0.39000
041225_03.31.53.309,0.49500,-1.14300,0.12400,97.28300,28.84000,4.95200,-0.22900,0.65000,-0.62700,83.64000,-0.09000
041225_03.31.53.320,0.33900,-1.18600,0.11000,93.80000,20.07300,2.32800,-0.22900,0.65000,-0.62700,83.23000,-0.41000
041225_03.31.53.332,0.12100,-1.03300,0.13400,95.76000,35.91000,1.68000,-0.24000,0.64000,-0.65500,83.14000,-0.09000
041225_03.31.53.343,0.19100,-0.98100,0.21100,96.93300,59.69300,-0.01800,-0.25000,0.63100,-0.67100,83.19000,0.05000
041225_03.31.53.355,0.33400,-0.90700,0.27800,97.16000,67.11300,2.81800,-0.25300,0.61900,-0.69100,83.27000,0.08000
041225_03.31.53.366,0.19100,-0.88800,0.26200,94.37800,65.57300,7.47200,-0.25300,0.59900,-0.70500,83.47000,0.20000
041225_03.31.53.378,0.13900,-0.77400,0.29700,105.33200,67.23500,11.44500,-0.25400,0.59900,-0.70500,83.06000,-0.41000
041225_03.31.53.389,0.20400,-0.84700,0.36300,129.02700,72.85300,12.49500,-0.25500,0.57600,-0.72400,82.87000,-0.19000
041225_03.31.53.401,0.25400,-0.91700,0.36300,142.46700,81.56700,13.47500,-0.25000,0.55600,-0.74000,83.50000,0.63000
041225_03.31.53.412,0.37500,-0.95400,0.42700,149.08300,87.76200,14.59500,-0.24600,0.52900,-0.74600,83.13000,-0.37000
041225_03.31.53.424,0.39400,-0.99100,0.47300,146.98200,82.75700,17.65700,-0.24600,0.52900,-0.74600,83.48000,0.35000
041225_03.31.53.436,0.25800,-0.73900,0.49000,145.96700,70.24500,18.48000,-0.24600,0.50600,-0.75400,83.29000,-0.19000
041225_03.31.53.447,0.21300,-0.73000,0.49700,165.53300,56.26300,15.85500,-0.24000,0.47600,-0.76600,82.62000,-0.67000
041225_03.31.53.459,0.21100,-0.75600,0.49800,184.71200,50.17300,15.41800,-0.23300,0.43700,-0.77100,83.44000,0.82000
041225_03.31.53.470,0.15300,-0.72200,0.58400,177.92300,54.91500,17.16700,-0.22800,0.40400,-0.77100,83.04000,-0.40000
041225_03.31.53.482,0.14600,-0.78600,0.71000,162.48800,54.65300,20.56200,-0.22800,0.40400,-0.77100,83.09000,0.05000
041225_03.31.53.493,0.11700,-0.85900,0.74700,145.65200,55.59700,12.26700,-0.22600,0.37200,-0.76600,82.99000,-0.10000
041225_03.31.53.505,0.10300,-0.90100,0.77900,128.90500,56.92800,3.88500,-0.22000,0.35200,-0.76000,83.44000,0.45000
041225_03.31.53.516,0.08100,-0.87700,0.82500,111.05500,62.14300,-4.06000,-0.21700,0.33700,-0.76100,83.29000,-0.15000
041225_03.31.53.528,0.05400,-0.75500,0.81200,92.52200,71.82000,-12.82800,-0.21300,0.32400,-0.75700,83.78000,0.49000
041225_03.31.53.539,-0.03400,-0.65300,0.77600,82.65300,80.06300,-22.40000,-0.21300,0.32400,-0.75700,82.75000,-1.03000
041225_03.31.53.551,-0.11100,-0.61500,0.72700,82.21500,87.39500,-33.81000,-0.20700,0.31700,-0.75300,83.00000,0.25000
041225_03.31.53.562,-0.08000,-0.48700,0.71700,85.85500,100.50300,-46.04200,-0.19600,0.30900,-0.74500,83.73000,0.73000
041225_03.31.53.574,0.00100,-0.40900,0.85700,89.77500,118.14300,-54.96700,-0.18300,0.30400,-0.73000,82.83000,-0.90000
041225_03.31.53.585,0.09000,-0.34600,1.01100,91.12200,130.14800,-57.92500,-0.17200,0.29600,-0.71900,83.27000,0.44000
041225_03.31.53.597,0.06700,-0.26400,1.08100,87.69200,138.33700,-54.56500,-0.17200,0.29600,-0.71900,83.76000,0.49000
041225_03.31.53.608,0.10600,-0.14100,1.11700,83.96500,126.14000,-32.21700,-0.15300,0.29200,-0.70800,83.54000,-0.22000
041225_03.31.53.620,0.07400,-0.17400,0.85000,90.44000,111.87800,-29.71500,-0.13800,0.28200,-0.69300,82.90000,-0.64000
041225_03.31.53.631,-0.06800,-0.24900,0.84200,92.83800,105.49000,-33.46000,-0.13100,0.27400,-0.69000,83.24000,0.34000
041225_03.31.53.643,-0.28800,-0.24500,0.89400,94.13200,102.23500,-38.88500,-0.13100,0.27400,-0.69000,83.32000,0.08000
041225_03.31.53.655,-0.53600,-0.11300,0.94000,102.09500,101.95500,-48.89500,-0.11600,0.26900,-0.67400,83.73000,0.41000
041225_03.31.53.666,-0.67300,-0.00700,1.00100,118.42300,116.21700,-56.71700,-0.10900,0.26800,-0.65700,83.99000,0.26000
041225_03.31.53.678,-0.72900,-0.03200,0.99600,128.88700,145.82700,-58.11800,-0.09600,0.26200,-0.64300,83.51000,-0.48000
041225_03.31.53.689,-0.71000,-0.00900,0.99900,132.09000,184.39800,-56.35000,-0.08600,0.24500,-0.61800,83.12000,-0.39000
041225_03.31.53.701,-0.30700,-0.14300,1.60200,126.29800,211.06800,-52.51800,-0.08600,0.24500,-0.61800,83.94000,0.82000
041225_03.31.53.713,-0.30900,-0.02500,1.07500,100.53700,200.67300,-32.18200,-0.07700,0.23900,-0.59000,83.00000,-0.94000
041225_03.31.53.724,-0.57100,0.08600,0.71200,108.27200,212.34500,-14.64800,-0.06400,0.22900,-0.56700,82.64000,-0.36000
041225_03.31.53.736,-0.71700,0.03700,0.70400,135.41500,251.37000,-16.59000,-0.05600,0.22200,-0.52900,83.04000,0.40000
041225_03.31.53.747,-0.65100,-0.06300,0.80800,149.95800,285.60000,-24.99000,-0.05400,0.21500,-0.48900,83.35000,0.31000
041225_03.31.53.759,-0.86700,-0.01600,0.48900,155.01500,339.76300,-40.53000,-0.05400,0.21500,-0.48900,83.71000,0.36000
041225_03.31.53.770,-0.99200,-0.02500,1.31400,140.45500,330.64500,-47.32000,-0.05000,0.20900,-0.45100,84.18000,0.47000
041225_03.31.53.782,-0.67000,0.00500,0.36200,98.22800,299.37200,-42.03500,-0.05400,0.21600,-0.42100,83.07000,-1.11000
041225_03.31.53.793,-0.46600,0.13700,0.74400,95.91800,291.83000,-49.31500,-0.06800,0.22200,-0.38500,83.17000,0.10000
041225_03.31.53.805,-0.69500,0.12400,0.18300,90.35300,271.46000,-47.95000,-0.07900,0.23200,-0.36300,83.50000,0.33000
041225_03.31.53.817,-0.64500,0.15300,-0.04100,83.47500,276.43000,-41.33500,-0.07900,0.23200,-0.36300,82.47000,-1.03000
041225_03.31.53.828,-0.55700,0.22300,-0.06200,95.20000,281.48700,-37.50200,-0.09900,0.24200,-0.34400,83.22000,0.75000
041225_03.31.53.840,-0.43600,0.33300,-0.06800,116.90000,275.48500,-31.20200,-0.11400,0.24900,-0.32000,83.31000,0.09000
041225_03.31.53.851,-0.30400,0.31500,-0.14700,139.31800,254.03000,-20.24700,-0.13300,0.27100,-0.29300,83.75000,0.44000
041225_03.31.53.863,0.67100,0.04600,-0.68300,152.61800,249.30500,-8.34700,-0.13300,0.28600,-0.27400,83.23000,-0.52000
041225_03.31.53.874,-0.89100,-0.79100,-0.26400,147.61300,339.30700,-7.91000,-0.15800,0.28600,-0.27400,83.96000,0.73000
041225_03.31.53.886,-0.83400,-0.42100,-0.06200,174.21200,293.63300,-66.48200,-0.18000,0.31000,-0.26100,82.76000,-1.20000
041225_03.31.53.898,-0.46700,0.01100,-0.60900,155.05000,200.07700,-61.51300,-0.19400,0.33100,-0.26500,83.45000,0.69000
041225_03.31.53.909,-0.08600,-0.12200,-0.70700,89.12800,84.00000,-55.49300,-0.19700,0.35100,-0.27400,83.11000,-0.34000
041225_03.31.53.921,-0.30000,-0.36700,-0.98900,52.93800,64.75000,-61.72200,-0.19700,0.35100,-0.27400,83.69000,0.58000
041225_03.31.53.932,-0.51400,-0.22200,-1.11300,34.14300,56.31500,-64.17300,-0.19700,0.36000,-0.27900,82.89000,-0.80000
041225_03.31.53.944,-0.62200,-0.14800,-1.20600,16.85300,57.50500,-63.49000,-0.19600,0.36400,-0.27800,83.05000,0.16000
041225_03.31.53.955,-0.61100,-0.20400,-1.16100,4.67300,61.89700,-57.76800,-0.19600,0.36700,-0.28200,82.96000,-0.09000
041225_03.31.53.967,-0.54600,-0.22100,-1.02800,1.33000,66.44800,-54.25000,-0.19700,0.36700,-0.28900,82.63000,-0.33000
041225_03.31.53.978,-0.50400,-0.18100,-0.87900,1.31200,69.09000,-53.97000,-0.19700,0.36700,-0.28900,83.05000,0.42000
041225_03.31.53.990,-0.38700,-0.22100,-0.56200,2.52000,72.80000,-52.93800,-0.20000,0.36500,-0.28300,84.07000,1.02000
041225_03.31.54.002,-0.57300,-0.18300,-0.44500,7.31500,64.96000,-47.05700,-0.19800,0.35900,-0.28000,83.35000,-0.72000
041225_03.31.54.014,-0.72600,-0.11800,-0.38700,17.06200,49.08800,-38.27200,-0.19700,0.36300,-0.28100,83.40000,0.05000
041225_03.31.54.025,-0.75300,-0.18100,-0.36700,27.26500,35.84000,-21.77000,-0.20100,0.36800,-0.27700,83.48000,0.08000
041225_03.31.54.037,-0.75100,-0.24900,-0.43400,31.83300,29.10300,-3.37800,-0.20100,0.36800,-0.27700,83.89000,0.41000
041225_03.31.54.049,-0.51400,-0.25100,-0.43400,38.51800,24.46500,20.91300,-0.19600,0.37200,-0.28500,83.34000,-0.55000
041225_03.31.54.061,-0.22600,-0.25800,-0.37800,73.09800,1.48700,25.39200,-0.19300,0.38200,-0.29100,83.48000,0.14000
041225_03.31.54.073,-0.52900,-0.48500,-0.58300,67.70700,-20.14200,20.56200,-0.18200,0.38900,-0.29900,83.15000,-0.33000
041225_03.31.54.085,-0.62100,-0.56600,-0.64400,46.74300,-22.20800,12.79300,-0.16600,0.39600,-0.31400,84.09000,0.94000
041225_03.31.54.096,-0.62600,-0.56300,-0.77000,25.02500,-12.47700,-0.98000,-0.16600,0.39600,-0.31400,83.61000,-0.48000
041225_03.31.54.108,-0.51900,-0.49000,-0.82600,11.16500,2.17000,-8.78500,-0.15400,0.39300,-0.32100,82.70000,-0.91000
041225_03.31.54.120,-0.64400,-0.57400,-0.81200,4.74200,16.87000,-11.76000,-0.14900,0.39600,-0.32600,83.39000,0.69000
041225_03.31.54.131,-0.76000,-0.72800,-0.88800,2.71300,38.64000,-26.95000,-0.13900,0.39200,-0.33100,83.05000,-0.34000
041225_03.31.54.143,-0.80400,-0.80900,-0.91400,3.39500,55.77200,-41.89500,-0.13900,0.39200,-0.33100,83.16000,0.11000
041225_03.31.54.155,-0.87900,-0.76800,-1.01400,2.60800,75.67000,-55.61500,-0.13400,0.39200,-0.33100,83.41000,0.25000
041225_03.31.54.167,-0.92700,-0.60300,-1.21800,-2.25700,106.85500,-61.46000,-0.13300,0.38800,-0.33000,83.62000,0.21000
041225_03.31.54.178,-0.85100,-0.45500,-1.25000,-4.13000,143.04500,-56.19300,-0.13400,0.38600,-0.32500,82.97000,-0.65000
041225_03.31.54.190,-0.72000,-0.57700,-1.15500,-18.28800,168.40200,-41.65000,-0.13500,0.37700,-0.31700,82.78000,-0.19000
041225_03.31.54.202,-0.43600,-0.49700,-1.15100,-16.25700,201.51200,-28.17500,-0.13500,0.37700,-0.31700,83.62000,0.84000
041225_03.31.54.214,-0.23400,-0.31400,-0.83900,-3.92000,212.55500,-15.90800,-0.13700,0.36700,-0.30400,83.53000,-0.09000
041225_03.31.54.226,0.09400,-0.25400,-0.84800,9.90500,213.93700,-8.03300,-0.14000,0.35700,-0.29100,83.65000,0.12000
041225_03.31.54.237,0.22300,-0.24300,-0.87200,32.06000,200.79500,-4.42800,-0.14800,0.34900,-0.27800,83.36000,-0.29000
041225_03.31.54.249,0.22800,-0.33900,-0.98500,51.62500,182.63000,-4.56800,-0.15900,0.34400,-0.26800,83.28000,-0.08000
041225_03.31.54.261,0.22000,-0.48600,-1.13900,62.94800,172.63700,-10.48300,-0.15900,0.34400,-0.26800,83.28000,0.00000
041225_03.31.54.272,0.27900,-0.58600,-1.20200,67.84800,164.86800,-21.61200,-0.17100,0.34500,-0.24900,83.70000,0.42000
041225_03.31.54.284,0.40200,-0.61400,-1.10600,60.37500,152.79200,-34.42300,-0.18700,0.34600,-0.24000,83.23000,-0.47000
041225_03.31.54.296,0.57900,-0.51500,-0.99200,40.19700,130.56800,-52.51800,-0.20200,0.34100,-0.22500,83.28000,0.05000
041225_03.31.54.308,0.65800,-0.43700,-0.81500,12.32000,96.11000,-66.50000,-0.21000,0.33500,-0.22300,83.37000,0.09000
041225_03.31.54.319,0.65400,-0.39400,-0.70800,-14.91000,57.34700,-72.48500,-0.21000,0.33500,-0.22300,83.76000,0.39000
041225_03.31.54.331,0.57900,-0.19300,-0.87100,-33.89700,30.83500,-73.92000,-0.22800,0.32300,-0.21600,83.76000,0.00000
041225_03.31.54.343,0.49000,-0.15600,-0.97100,-29.03200,21.29800,-70.57700,-0.24000,0.31500,-0.21200,82.43000,-1.33000
041225_03.31.54.355,0.37300,-0.28100,-0.95700,-3.29000,25.97000,-62.80700,-0.25600,0.30900,-0.21000,83.18000,0.75000
041225_03.31.54.366,0.29600,-0.42900,-0.93400,-2.57200,30.13500,-62.91200,-0.25600,0.30300,-0.20700,83.03000,-0.15000
041225_03.31.54.378,0.28200,-0.48800,-0.95500,-5.04000,34.21300,-67.07700,-0.26900,0.30300,-0.20700,83.33000,0.30000
041225_03.31.54.390,0.31400,-0.50800,-1.02500,-4.30500,41.70200,-74.20000,-0.28400,0.29900,-0.20800,83.41000,0.08000
041225_03.31.54.402,0.36100,-0.51000,-1.08400,-2.52000,53.70800,-83.19500,-0.30000,0.28400,-0.21100,82.79000,-0.62000
041225_03.31.54.413,0.41000,-0.43000,-1.02500,-0.77000,65.73000,-91.71700,-0.31700,0.28400,-0.21200,83.08000,0.29000
041225_03.31.54.425,0.53800,-0.36000,-0.90300,0.43700,68.56500,-96.18000,-0.31700,0.28400,-0.21200,84.01000,0.93000
041225_03.31.54.437,0.68800,-0.33700,-0.80600,-0.99800,58.08300,-96.02200,-0.32900,0.27600,-0.20400,83.56000,-0.45000
041225_03.31.54.449,0.79400,-0.37200,-0.76200,-1.33000,38.86800,-95.02500,-0.33700,0.26500,-0.20800,83.61000,0.05000
041225_03.31.54.460,0.78000,-0.36700,-0.79100,1.69700,17.02800,-98.31500,-0.34500,0.25600,-0.20400,83.67000,0.06000
041225_03.31.54.472,0.73600,-0.38100,-0.77000,6.07300,-1.54000,-102.11300,-0.35000,0.24600,-0.22000,84.79000,1.12000
041225_03.31.54.484,0.76900,-0.62700,-0.82900,2.59000,-16.60800,-103.09200,-0.35000,0.24600,-0.22000,82.91000,-1.88000
041225_03.31.54.496,0.70500,-0.59400,-0.76400,-32.37500,-28.47200,-122.60500,-0.33800,0.22100,-0.21700,82.39000,-0.52000
041225_03.31.54.507,0.60200,-0.35500,-0.70500,-50.57500,-48.28300,-120.94200,-0.32900,0.19600,-0.21600,83.17000,0.78000
041225_03.31.54.519,0.41400,-0.36200,-0.74200,-52.79800,-49.19300,-122.72800,-0.31500,0.17800,-0.22000,83.73000,0.56000
041225_03.31.54.531,0.34500,-0.33400,-0.68300,-51.29200,-43.90800,-127.73200,-0.30200,0.15500,-0.22700,83.58000,-0.15000
041225_03.31.54.543,0.33100,-0.29500,-0.70000,-51.25700,-35.75200,-136.20200,-0.30200,0.15500,-0.22700,83.02000,-0.56000
041225_03.31.54.554,0.33000,-0.19700,-0.73200,-46.11200,-27.30000,-137.49700,-0.29100,0.14200,-0.23200,83.33000,0.31000
041225_03.31.54.566,0.36300,-0.06700,-0.73900,-34.61500,-21.29800,-133.80500,-0.27700,0.13100,-0.23100,83.81000,0.48000
041225_03.31.54.578,0.36100,-0.04200,-0.75800,-22.89000,-17.78000,-125.00300,-0.26100,0.12000,-0.23300,83.82000,0.01000
041225_03.31.54.590,0.35800,0.00600,-0.79900,-12.53000,-15.97700,-115.41200,-0.25300,0.11500,-0.22900,83.25000,-0.57000
041225_03.31.54.601,0.38400,0.03400,-0.79100,-4.65500,-17.13200,-108.65800,-0.25300,0.11500,-0.22900,83.45000,0.20000
041225_03.31.54.613,0.40500,0.06900,-0.77500,-0.29800,-19.70500,-102.84800,-0.23800,0.11000,-0.23100,83.60000,0.15000
041225_03.31.54.625,0.40200,0.15100,-0.78400,4.49700,-20.84300,-96.19800,-0.22400,0.10600,-0.23200,83.58000,-0.02000
041225_03.31.54.637,0.42200,0.18300,-0.77200,11.69000,-22.13800,-89.16200,-0.21700,0.09900,-0.22600,83.81000,0.23000
041225_03.31.54.648,0.43400,0.13100,-0.74100,21.24500,-28.68300,-74.48000,-0.21700,0.09900,-0.22700,83.95000,0.14000
041225_03.31.54.660,0.44300,0.11200,-0.80400,19.75700,-30.59000,-65.55500,-0.20800,0.09900,-0.22700,83.73000,-0.22000
041225_03.31.54.672,0.37800,0.14300,-0.81500,22.34700,-33.28500,-56.94500,-0.19200,0.09900,-0.22100,83.78000,0.05000
041225_03.31.54.683,0.34500,0.11600,-0.79400,23.69500,-38.16700,-47.09200,-0.18200,0.09300,-0.22900,82.95000,-0.83000
041225_03.31.54.695,0.32100,0.06700,-0.76500,24.11500,-42.80500,-37.03000,-0.17200,0.09000,-0.22200,83.15000,0.20000
041225_03.31.54.707,0.32000,0.08800,-0.80100,25.34000,-48.52800,-28.24500,-0.17200,0.09000,-0.22200,83.85000,0.70000
041225_03.31.54.719,0.29600,0.05400,-0.82000,28.28000,-55.91200,-18.81200,-0.16500,0.08600,-0.22600,83.41000,-0.44000
041225_03.31.54.730,0.30900,-0.00000,-0.81200,30.64200,-65.10000,-11.16500,-0.15600,0.08700,-0.22300,83.25000,-0.16000
041225_03.31.54.742,0.28700,0.02400,-0.84100,29.48700,-75.53000,-4.25300,-0.14900,0.08400,-0.22600,83.76000,0.51000
041225_03.31.54.754,0.24800,0.02100,-0.85200,28.77000,-87.04500,3.11500,-0.14200,0.08500,-0.22000,84.29000,0.53000
041225_03.31.54.766,0.17800,-0.03400,-0.86100,27.26500,-99.87200,10.27300,-0.14200,0.08500,-0.22000,83.53000,-0.76000
041225_03.31.54.777,0.15000,0.02300,-0.84300,21.92700,-112.26200,16.87000,-0.13300,0.08500,-0.22000,83.84000,0.31000
041225_03.31.54.789,0.11200,0.13400,-0.80300,15.69800,-125.58000,25.77800,-0.12100,0.07900,-0.22500,83.38000,-0.46000
041225_03.31.54.801,0.06800,0.17400,-0.81200,18.41000,-165.18200,47.19700,-0.11300,0.07100,-0.23300,82.85000,-0.53000
041225_03.31.54.813,0.09900,0.24300,-0.80900,27.16000,-187.49500,62.51000,-0.09900,0.06800,-0.24300,83.33000,0.48000
041225_03.31.54.824,0.19300,0.13100,-0.90700,38.95500,-210.03500,79.41500,-0.09900,0.06800,-0.24300,82.50000,-0.83000
041225_03.31.54.836,0.04800,0.10800,-0.72500,47.96700,-232.89000,97.24700,-0.09000,0.06100,-0.25400,83.81000,1.31000
041225_03.31.54.848,-0.04100,0.06200,-0.53700,47.33800,-267.01500,116.62000,-0.07600,0.04700,-0.26900,83.17000,-0.64000
041225_03.31.54.860,-0.16700,0.11900,-0.46000,42.66500,-304.48300,142.04800,-0.06900,0.03300,-0.29600,83.72000,0.55000
041225_03.31.54.872,-0.43200,0.17800,-0.72600,45.11500,-332.60500,169.64500,-0.06400,0.01800,-0.30800,84.33000,0.61000
041225_03.31.54.884,-0.71200,0.18200,-0.69800,64.10300,-331.69500,189.77000,-0.06400,0.01800,-0.30800,83.32000,-1.01000
041225_03.31.54.895,-1.04100,0.06400,-0.52100,81.91800,-307.86000,197.57500,-0.07400,0.00100,-0.32200,84.41000,1.09000
041225_03.31.54.907,-1.26200,0.03800,-0.33900,93.52000,-278.72300,203.84000,-0.08700,-0.01700,-0.32400,83.61000,-0.80000
041225_03.31.54.919,-1.25500,-0.17100,-0.23600,94.99000,-244.19500,205.08300,-0.10400,-0.02800,-0.32900,84.02000,0.41000
041225_03.31.54.931,-1.15500,-0.31100,-0.20600,82.88000,-206.93700,182.94500,-0.10400,-0.02800,-0.32900,83.69000,-0.33000
041225_03.31.54.943,-1.01700,-0.17900,-0.27100,62.54500,-171.09800,127.29500,-0.12100,-0.04100,-0.33200,83.47000,-0.22000
041225_03.31.54.955,-0.99600,0.03200,-0.41700,49.07000,-126.68300,115.41200,-0.13000,-0.04800,-0.32900,83.60000,0.13000
041225_03.31.54.966,-0.93100,0.05200,-0.29300,48.61500,-116.70800,108.79800,-0.13600,-0.05100,-0.33600,83.48000,-0.12000
041225_03.31.54.978,-0.95400,0.06200,-0.28300,40.33800,-107.13500,102.20000,-0.15600,-0.05300,-0.33100,83.95000,0.47000
041225_03.31.54.990,-1.00300,0.10900,-0.31300,30.20500,-100.11800,93.24000,-0.15600,-0.05300,-0.33100,83.21000,-0.74000
041225_03.31.55.002,-1.00900,0.22900,-0.30500,24.06200,-97.66800,83.45700,-0.15900,-0.05700,-0.34200,83.33000,0.12000
041225_03.31.55.013,-0.99300,0.34300,-0.29500,27.87800,-100.08200,78.22500,-0.16500,-0.06200,-0.33700,83.46000,0.13000
041225_03.31.55.025,-0.99800,0.51600,-0.25900,35.71700,-98.40300,75.11000,-0.17600,-0.06300,-0.33500,83.61000,0.15000
041225_03.31.55.037,-1.01400,0.63000,-0.26400,42.21000,-92.47000,73.90300,-0.18400,-0.06700,-0.33100,83.64000,0.03000
041225_03.31.55.049,-1.08500,0.75600,-0.23800,48.59700,-85.40000,74.07700,-0.18400,-0.06700,-0.33100,83.41000,-0.23000
041225_03.31.55.061,-1.10300,0.83400,-0.16600,59.30700,-84.73500,79.64300,-0.19900,-0.06600,-0.32700,83.66000,0.25000
041225_03.31.55.072,-1.12500,0.81900,-0.08300,77.21000,-95.18300,91.38500,-0.20400,-0.06000,-0.31500,83.61000,-0.05000
041225_03.31.55.084,-1.13900,0.76600,0.00700,98.19200,-110.60000,98.15800,-0.21200,-0.05600,-0.29700,83.42000,-0.19000
041225_03.31.55.096,-1.09800,0.69100,-0.02800,124.49500,-115.30800,75.11000,-0.21600,-0.04700,-0.28000,83.58000,0.16000
041225_03.31.55.107,-1.00300,0.72600,-0.07800,128.71200,-103.26800,60.48000,-0.21600,-0.04700,-0.28000,83.53000,-0.05000
041225_03.31.55.119,-0.85300,0.75500,-0.12600,129.58700,-84.01800,53.63800,-0.21900,-0.03800,-0.26400,83.78000,0.25000
041225_03.31.55.131,-0.80200,0.71400,-0.08700,141.92500,-61.65300,61.84500,-0.22300,-0.02500,-0.24600,83.37000,-0.41000
041225_03.31.55.143,-0.82100,0.63400,-0.02300,158.23500,-48.72000,77.36800,-0.22700,-0.00400,-0.22500,84.50000,1.13000
041225_03.31.55.155,-0.97500,0.41100,-0.07700,170.45000,-40.30300,90.12500,-0.22700,-0.00400,-0.20500,83.60000,-0.90000
041225_03.31.55.166,-1.25600,0.25300,-0.33000,177.48500,-30.31000,92.31300,-0.23900,0.01600,-0.20500,83.17000,-0.43000
041225_03.31.55.178,-1.18000,0.51300,-0.25700,177.83500,-18.69000,94.92000,-0.25400,0.04000,-0.18500,83.85000,0.68000
041225_03.31.55.190,-1.06400,0.70200,-0.14000,179.34000,-13.19500,106.73200,-0.26200,0.07700,-0.16400,82.97000,-0.88000
041225_03.31.55.202,-1.09200,0.74800,-0.21600,185.20200,-15.22500,122.65800,-0.27500,0.10700,-0.15000,83.08000,0.11000
041225_03.31.55.213,-1.13500,0.65600,-0.31700,191.78300,-14.57800,136.32500,-0.27500,0.10700,-0.15000,83.25000,0.17000
041225_03.31.55.225,-1.04500,0.53500,-0.36700,197.26000,-7.82300,139.12500,-0.28900,0.13700,-0.13600,83.47000,0.22000
041225_03.31.55.237,-0.88300,0.50100,-0.36700,194.49500,2.88800,130.14800,-0.30100,0.17300,-0.12400,83.42000,-0.05000
041225_03.31.55.249,-0.76700,0.56000,-0.44300,175.49000,13.94800,114.95800,-0.30300,0.20400,-0.11700,83.41000,-0.01000
041225_03.31.55.260,-0.73500,0.53800,-0.49700,167.70200,18.62000,117.30200,-0.31500,0.24300,-0.11500,83.64000,0.23000
041225_03.31.55.272,-0.71400,0.48200,-0.47700,152.35500,22.20800,120.17300,-0.31500,0.24300,-0.11500,83.46000,-0.18000
041225_03.31.55.284,-0.69600,0.50900,-0.50600,131.96700,22.13800,120.83800,-0.31800,0.27300,-0.11300,83.34000,-0.12000
041225_03.31.55.296,-0.66200,0.52000,-0.58100,109.09500,21.43700,121.94000,-0.32300,0.29300,-0.11400,83.74000,0.40000
041225_03.31.55.307,-0.60500,0.45500,-0.60700,85.05000,16.95800,118.98200,-0.32300,0.31200,-0.12800,82.59000,-1.15000
041225_03.31.55.319,-0.57100,0.46000,-0.61200,64.61000,9.59000,108.16800,-0.32300,0.32500,-0.12700,83.64000,1.05000
041225_03.31.55.331,-0.55500,0.54000,-0.59400,54.61800,5.39000,95.37500,-0.32300,0.32500,-0.12700,83.08000,-0.56000
041225_03.31.55.342,-0.56100,0.61500,-0.61900,52.81500,3.29000,87.90300,-0.31600,0.33400,-0.13900,83.27000,0.19000
041225_03.31.55.354,-0.53400,0.64200,-0.59900,52.69300,2.88800,86.29300,-0.30800,0.34000,-0.14300,83.67000,0.40000
041225_03.31.55.366,-0.54200,0.66400,-0.67900,51.38000,1.55800,85.41800,-0.29800,0.34900,-0.15200,83.86000,0.19000
041225_03.31.55.377,-0.54300,0.74300,-0.74000,55.30000,1.17300,83.54500,-0.29600,0.35400,-0.16700,84.35000,0.49000
041225_03.31.55.389,-0.56100,0.75600,-0.76600,61.09200,3.48300,90.93000,-0.29600,0.35400,-0.16700,83.59000,-0.76000
041225_03.31.55.401,-0.62800,0.73500,-0.77100,72.90500,20.93000,100.85300,-0.28700,0.36200,-0.16900,83.37000,-0.22000
041225_03.31.55.413,-0.63600,0.63800,-0.70000,84.36800,33.07500,108.48200,-0.27600,0.36700,-0.18000,83.63000,0.26000
041225_03.31.55.424,-0.54500,0.50200,-0.63600,89.11000,41.33500,111.00300,-0.27500,0.37600,-0.19100,83.24000,-0.39000
041225_03.31.55.436,-0.38800,0.45600,-0.65500,86.32700,40.98500,106.83800,-0.27500,0.37600,-0.19100,83.80000,0.56000
041225_03.31.55.448,-0.31200,0.52700,-0.70000,82.67000,31.58700,98.85700,-0.27100,0.37700,-0.20500,83.91000,0.11000
041225_03.31.55.459,-0.32500,0.53200,-0.64900,82.47800,23.25700,93.53700,-0.26500,0.37400,-0.20800,83.18000,-0.73000
041225_03.31.55.471,-0.33500,0.51000,-0.68800,83.82500,18.65500,90.42300,-0.26000,0.37700,-0.21900,83.76000,0.58000
041225_03.31.55.483,-0.40300,0.49800,-0.74800,81.58500,18.23500,91.26200,-0.25400,0.36900,-0.23300,83.58000,-0.18000
041225_03.31.55.494,-0.48900,0.47700,-0.79600,76.93000,21.35000,95.00700,-0.25400,0.36900,-0.23300,83.49000,-0.09000
041225_03.31.55.506,-0.49700,0.39700,-0.80300,74.77800,27.26500,97.47500,-0.25300,0.36500,-0.23500,83.82000,0.33000
041225_03.31.55.518,-0.46900,0.26900,-0.78800,73.60500,32.51500,95.77800,-0.25500,0.36000,-0.24900,83.38000,-0.44000
041225_03.31.55.530,-0.46100,0.18800,-0.79100,69.26500,35.33300,90.23000,-0.25800,0.35600,-0.25900,83.73000,0.35000
041225_03.31.55.541,-0.48200,0.23100,-0.86600,62.38800,40.47800,71.24300,-0.26300,0.35500,-0.26700,84.11000,0.38000
041225_03.31.55.553,-0.40200,0.30500,-0.94100,54.54800,42.82200,65.03000,-0.26300,0.35500,-0.26700,83.60000,-0.51000
041225_03.31.55.564,-0.26400,0.29500,-0.92400,49.29800,44.64300,60.70800,-0.27000,0.35200,-0.26800,82.83000,-0.77000
041225_03.31.55.576,-0.20600,0.37000,-0.95600,47.33800,43.48700,54.39000,-0.27900,0.35500,-0.28000,83.60000,0.77000
041225_03.31.55.588,-0.14200,0.36600,-0.97600,50.90800,41.21300,53.28700,-0.29300,0.35900,-0.27700,83.26000,-0.34000
041225_03.31.55.599,-0.10600,0.35400,-0.98700,53.98700,38.76300,53.74300,-0.30400,0.35600,-0.28700,83.51000,0.25000
041225_03.31.55.611,-0.10700,0.32500,-0.96700,54.74000,35.36800,52.65800,-0.30400,0.35600,-0.28700,83.63000,0.12000
041225_03.31.55.623,-0.10400,0.30000,-0.96700,54.81000,31.48300,49.71700,-0.30600,0.36200,-0.29800,83.99000,0.36000
041225_03.31.55.634,-0.09100,0.25900,-0.99300,55.86000,27.65000,44.52000,-0.31400,0.36500,-0.31200,83.98000,-0.01000
041225_03.31.55.646,-0.06000,0.26300,-1.03600,55.24800,25.32300,40.54800,-0.32100,0.37500,-0.32200,84.39000,0.41000
041225_03.31.55.658,0.00700,0.23200,-1.05800,53.20000,24.22000,38.67500,-0.32100,0.37500,-0.33200,83.18000,-1.21000
041225_03.31.55.670,0.02800,0.23100,-1.09200,49.59500,21.85800,39.09500,-0.32700,0.38500,-0.33200,83.23000,0.05000
041225_03.31.55.681,0.03200,0.26400,-1.09800,47.53000,17.32500,35.85800,-0.33500,0.39600,-0.33900,83.74000,0.51000
041225_03.31.55.693,0.04900,0.28500,-1.08900,53.48000,11.76000,31.74500,-0.33900,0.41500,-0.35100,83.13000,-0.61000
041225_03.31.55.705,0.08800,0.28600,-1.05100,57.48700,10.93800,31.20200,-0.34500,0.42500,-0.37100,84.38000,1.25000
041225_03.31.55.716,0.09700,0.29800,-1.01600,60.07700,11.18200,32.49800,-0.34500,0.42500,-0.37100,83.95000,-0.43000
041225_03.31.55.728,0.13100,0.26700,-0.96800,64.31300,8.80200,33.33800,-0.34600,0.44400,-0.39200,83.39000,-0.56000
041225_03.31.55.740,0.14800,0.22400,-0.93800,69.96500,2.04700,32.25200,-0.34900,0.45800,-0.40200,83.28000,-0.11000
041225_03.31.55.751,0.14700,0.20400,-0.94700,73.57000,-7.63000,30.48500,-0.35200,0.47300,-0.42400,83.15000,-0.13000
041225_03.31.55.763,0.11700,0.16500,-0.98800,75.98500,-17.43000,29.29500,-0.34800,0.49000,-0.44400,83.14000,-0.01000
041225_03.31.55.775,0.05800,0.11900,-1.04100,78.66200,-25.23500,28.57700,-0.34800,0.49000,-0.44400,83.39000,0.25000
041225_03.31.55.786,0.00500,0.08100,-1.07600,81.44500,-29.26000,28.64800,-0.35100,0.50100,-0.47000,83.12000,-0.27000
041225_03.31.55.798,-0.06000,-0.04000,-1.05800,84.85700,-30.87000,30.08300,-0.34800,0.51700,-0.48900,83.65000,0.53000
041225_03.31.55.810,-0.12400,-0.17800,-1.03400,87.76200,-32.37500,30.11800,-0.34700,0.53300,-0.50800,83.60000,-0.05000
041225_03.31.55.822,-0.20200,-0.32300,-1.02000,87.25500,-32.44500,28.24500,-0.34200,0.54800,-0.53500,83.29000,-0.31000
041225_03.31.55.834,-0.31800,-0.39100,-1.07700,80.79800,-29.26000,25.44500,-0.34200,0.54800,-0.53500,82.89000,-0.40000
041225_03.31.55.845,-0.38300,-0.39700,-1.14300,60.58500,-5.47700,21.26300,-0.34200,0.56100,-0.55200,83.05000,0.16000
041225_03.31.55.857,-0.20500,-0.43900,-1.16300,54.82700,0.50700,18.16500,-0.33500,0.57900,-0.57000,83.25000,0.20000
041225_03.31.55.869,-0.15900,-0.43800,-1.16100,51.81800,-0.75200,16.29200,-0.32700,0.59500,-0.57900,83.32000,0.07000
041225_03.31.55.881,-0.16000,-0.43800,-1.10200,52.34200,-6.66800,13.10800,-0.31800,0.61100,-0.58800,83.61000,0.29000
041225_03.31.55.892,-0.17200,-0.42500,-1.02100,54.84500,-14.24500,7.85800,-0.31800,0.61100,-0.58800,83.32000,-0.29000
041225_03.31.55.904,-0.18700,-0.41900,-0.96900,57.83800,-22.17300,2.08200,-0.31000,0.62100,-0.60900,83.26000,-0.06000
041225_03.31.55.916,-0.21800,-0.45600,-0.96100,59.67500,-29.12000,-2.53700,-0.30300,0.63200,-0.61900,83.67000,0.41000
041225_03.31.55.927,-0.23800,-0.50800,-0.95700,60.46300,-33.28500,-7.21000,-0.29700,0.64800,-0.63700,83.91000,0.24000
041225_03.31.55.939,-0.26200,-0.54300,-0.95200,60.02500,-35.75200,-12.77500,-0.29700,0.64800,-0.63700,83.99000,0.08000
041225_03.31.55.951,-0.25600,-0.55600,-0.92900,58.67800,-37.25700,-18.98700,-0.29400,0.65500,-0.65400,83.93000,-0.06000
041225_03.31.55.963,-0.20300,-0.56000,-0.90000,55.84200,-37.52000,-24.65700,-0.28600,0.66200,-0.66900,83.43000,-0.50000
041225_03.31.55.974,-0.15400,-0.54300,-0.85500,51.38000,-39.25200,-29.82000,-0.28300,0.67200,-0.68300,83.75000,0.32000
041225_03.31.55.986,-0.13000,-0.54600,-0.78000,46.77800,-52.36000,-40.70500,-0.28100,0.67300,-0.69800,83.49000,-0.26000
041225_03.31.55.998,-0.12900,-0.55300,-0.64300,42.54200,-62.61500,-47.49500,-0.28100,0.67300,-0.69800,83.41000,-0.08000
041225_03.31.56.010,-0.07700,-0.60400,-0.57400,39.11200,-74.28700,-54.54800,-0.28000,0.67700,-0.71300,83.82000,0.41000
041225_03.31.56.022,-0.10200,-0.61900,-0.55900,33.44300,-89.35500,-61.82700,-0.28100,0.67700,-0.73000,83.61000,-0.21000
041225_03.31.56.033,-0.12700,-0.61400,-0.56500,28.29800,-106.92500,-69.77200,-0.29300,0.67600,-0.75000,83.11000,-0.50000
041225_03.31.56.045,-0.17300,-0.61000,-0.53700,24.50000,-125.14300,-79.45000,-0.31000,0.67500,-0.76400,83.34000,0.23000
041225_03.31.56.057,-0.23900,-0.60200,-0.52600,20.17700,-144.00800,-90.52800,-0.31000,0.67500,-0.76400,83.66000,0.32000
041225_03.31.56.069,-0.33400,-0.58300,-0.53500,13.59700,-160.37000,-101.99000,-0.32400,0.66900,-0.77700,83.53000,-0.13000
041225_03.31.56.081,-0.46800,-0.51700,-0.54400,7.63000,-169.62800,-113.45200,-0.33900,0.67300,-0.79000,84.29000,0.76000
041225_03.31.56.092,-0.24000,0.01500,-0.15600,5.88000,-164.88500,-119.01800,-0.34300,0.67900,-0.80800,83.33000,-0.96000
041225_03.31.56.104,0.67300,1.44800,-0.07500,23.55500,-170.20500,-71.80200,-0.35400,0.67600,-0.81000,83.42000,0.09000
041225_03.31.56.116,0.48100,-0.40600,-0.19300,98.15800,-166.53000,-11.04300,-0.35400,0.67600,-0.81000,83.86000,0.44000
041225_03.31.56.128,0.03000,-0.47500,-0.60600,123.34000,-140.78800,-35.17500,-0.37900,0.66800,-0.81300,82.96000,-0.90000
041225_03.31.56.139,-0.28300,-1.49800,-0.26400,29.64500,-98.96300,-53.35800,-0.40000,0.66600,-0.81100,82.89000,-0.07000
041225_03.31.56.151,-0.38900,-0.79100,-0.08600,-47.88000,-114.90500,-65.55500,-0.40500,0.67100,-0.79000,83.28000,0.39000
041225_03.31.56.163,-0.50600,-0.76600,-0.13300,-76.03700,-134.33000,-63.57700,-0.40500,0.69200,-0.76000,83.57000,0.29000
041225_03.31.56.175,-0.27300,-0.72500,-0.32300,-77.77000,-143.51800,-74.09500,-0.41000,0.69200,-0.76000,83.78000,0.21000
041225_03.31.56.187,-0.24200,-0.64600,-0.30100,-79.99300,-161.38500,-87.97300,-0.42700,0.72200,-0.71600,83.21000,-0.57000
041225_03.31.56.198,-0.24100,-0.50100,-0.25500,-88.49700,-190.59200,-103.39000,-0.45500,0.74000,-0.65900,83.66000,0.45000
041225_03.31.56.210,-0.32100,-0.24600,-0.35100,-100.27500,-223.65000,-114.60700,-0.48900,0.75600,-0.59900,82.90000,-0.76000
041225_03.31.56.222,-0.78600,0.03700,-0.53600,-101.74500,-246.47000,-119.00000,-0.48900,0.75600,-0.59900,83.56000,0.66000
041225_03.31.56.234,-1.03100,0.21700,-0.80300,-80.11500,-232.99500,-107.94000,-0.51600,0.75300,-0.54400,83.64000,0.08000
041225_03.31.56.246,-0.92000,0.08900,-0.71500,-38.78000,-173.56500,-72.67700,-0.53800,0.75600,-0.50700,83.78000,0.14000
041225_03.31.56.257,-0.66400,-0.26400,-0.68700,-10.51700,-94.36000,-25.67300,-0.54400,0.75300,-0.48800,83.02000,-0.76000
041225_03.31.56.269,-0.61300,-0.44000,-0.60600,-7.24500,-37.46700,17.99000,-0.53700,0.76300,-0.48000,82.83000,-0.19000
041225_03.31.56.281,-0.57000,-0.50500,-0.56000,-12.53000,-7.33200,55.35300,-0.53700,0.76300,-0.48000,83.79000,0.96000
041225_03.31.56.293,-0.51600,-0.53900,-0.49000,-15.62800,-0.28000,56.01800,-0.52000,0.75700,-0.47000,83.33000,-0.46000
041225_03.31.56.304,-0.33800,-0.62700,-0.36200,-23.64200,-12.96700,48.33500,-0.50700,0.76100,-0.45000,83.86000,0.53000
041225_03.31.56.316,-0.25600,-0.58500,-0.30300,-27.80800,-30.62500,35.61200,-0.49300,0.75900,-0.42900,83.17000,-0.69000
041225_03.31.56.328,-0.22900,-0.64400,-0.23700,-29.54000,-53.84700,19.40700,-0.48000,0.75500,-0.41100,83.12000,-0.05000
041225_03.31.56.340,-0.28300,-0.62500,-0.18500,-36.52200,-83.42300,-0.31500,-0.48000,0.75500,-0.41100,83.43000,0.31000
041225_03.31.56.351,-0.38300,-0.60100,-0.13400,-41.05500,-113.54000,-21.26300,-0.46700,0.74800,-0.38200,83.31000,-0.12000
041225_03.31.56.363,-0.45400,-0.60700,-0.09500,-43.13800,-137.09500,-38.90300,-0.46100,0.73600,-0.35600,83.17000,-0.14000
041225_03.31.56.375,-0.50200,-0.65800,-0.07300,-44.88800,-146.17800,-45.11500,-0.45100,0.73000,-0.33300,82.85000,-0.32000
041225_03.31.56.387,-0.50500,-0.70100,-0.02900,-48.12500,-140.71700,-38.29000,-0.43100,0.72100,-0.30800,83.73000,0.88000
041225_03.31.56.399,-0.52700,-0.74700,0.02500,-55.72000,-126.82300,-24.23700,-0.43100,0.72100,-0.30800,83.26000,-0.47000
041225_03.31.56.410,-0.58500,-0.79800,0.02200,-66.85000,-114.73000,-11.69000,-0.40900,0.71300,-0.28400,83.77000,0.51000
041225_03.31.56.422,-0.60400,-0.76100,0.04600,-81.76000,-106.64500,-3.43000,-0.38300,0.70600,-0.26200,83.94000,0.17000
041225_03.31.56.434,-0.66600,-0.78300,0.12200,-97.30000,-109.20000,-1.33000,-0.35600,0.69200,-0.23700,82.84000,-1.10000
041225_03.31.56.446,-0.72700,-0.87100,0.34300,-137.25300,-126.12200,-13.75500,-0.35600,0.69200,-0.23700,83.34000,0.50000
041225_03.31.56.457,-0.75500,-0.61600,0.28300,-158.39300,-140.61300,-26.86200,-0.33600,0.67600,-0.21400,83.00000,-0.34000
041225_03.31.56.469,-0.73600,-0.43100,0.22700,-170.43200,-146.44000,-33.18000,-0.31300,0.66000,-0.18900,83.27000,0.27000
041225_03.31.56.481,-0.76700,-0.25300,0.26400,-175.45500,-145.39000,-36.43500,-0.28800,0.63300,-0.16400,83.06000,-0.21000
041225_03.31.56.493,-0.88100,-0.10800,0.27500,-178.76200,-146.09000,-37.94000,-0.26700,0.60400,-0.15000,83.22000,0.16000
041225_03.31.56.505,-0.94700,0.07700,0.18200,-172.55000,-147.14000,-40.51300,-0.26700,0.60400,-0.15000,83.50000,0.28000
041225_03.31.56.516,-0.95500,0.03300,0.26500,-156.32700,-143.64000,-45.97200,-0.24200,0.58400,-0.13400,83.77000,0.27000
041225_03.31.56.528,-1.01900,0.09900,0.16100,-140.63000,-143.51800,-60.13000,-0.22500,0.55800,-0.12500,83.58000,-0.19000
041225_03.31.56.540,-1.29200,0.02800,-0.04300,-121.67700,-144.76000,-66.11500,-0.20000,0.53800,-0.11900,83.17000,-0.41000
041225_03.31.56.552,-1.37100,-0.16600,-0.11200,-102.98800,-139.56200,-52.39500,-0.18200,0.52500,-0.12000,83.07000,-0.10000
041225_03.31.56.564,-1.30200,-0.32100,-0.07200,-84.08800,-133.52500,-27.93000,-0.18200,0.52500,-0.12000,82.97000,-0.10000
041225_03.31.56.575,-1.21400,-0.47800,0.01700,-71.05000,-125.80800,-4.93500,-0.15000,0.50400,-0.12900,83.01000,0.04000
041225_03.31.56.587,-1.13800,-0.58600,0.12200,-84.35000,-120.68000,30.80000,-0.13200,0.48800,-0.12500,82.95000,-0.06000
041225_03.31.56.599,-1.14700,-0.43400,0.14300,-76.16000,-128.50300,33.68800,-0.10500,0.46500,-0.12900,83.97000,1.02000
041225_03.31.56.611,-1.16500,-0.40500,0.32900,-81.90000,-129.62200,39.91700,-0.07600,0.44400,-0.14000,83.11000,-0.86000
041225_03.31.56.622,-1.11600,-0.38900,0.40500,-91.36800,-121.41500,47.05700,-0.07600,0.44400,-0.14000,83.38000,0.27000
041225_03.31.56.634,-1.12700,-0.36300,0.43400,-104.07300,-118.12500,47.26800,-0.05400,0.41500,-0.14700,82.58000,-0.80000
041225_03.31.56.646,-1.12400,-0.41000,0.48100,-115.76200,-120.19000,37.20500,-0.03200,0.38700,-0.16300,83.64000,1.06000
041225_03.31.56.658,-1.11600,-0.20300,0.63600,-126.85700,-120.27800,20.19500,-0.00800,0.36200,-0.17100,83.52000,-0.12000
041225_03.31.56.669,-1.25400,-0.31700,0.63300,-140.43700,-120.73200,14.43800,-0.00800,0.36200,-0.19600,82.77000,-0.75000
041225_03.31.56.681,-1.18400,-0.34700,0.69600,-154.70000,-129.09800,6.30000,0.01100,0.33600,-0.19600,83.26000,0.49000
041225_03.31.56.693,-1.17600,-0.36500,0.72000,-166.05700,-147.38500,-9.80000,0.03600,0.31200,-0.22100,82.73000,-0.53000
041225_03.31.56.705,-1.27900,-0.34700,0.66700,-172.58500,-167.84200,-32.48000,0.05900,0.29200,-0.25200,83.67000,0.94000
041225_03.31.56.716,-1.38000,-0.28100,0.43600,-173.33700,-174.59800,-45.18500,0.07700,0.27500,-0.28600,82.63000,-1.04000
041225_03.31.56.728,-1.39400,-0.13900,0.17600,-165.62000,-163.31000,-40.30300,0.07700,0.27500,-0.28600,83.33000,0.70000
041225_03.31.56.740,-1.40200,-0.12800,0.16000,-125.80800,-122.43000,-16.94000,0.09500,0.26200,-0.31500,83.69000,0.36000
041225_03.31.56.752,-1.37500,-0.60900,0.40200,-110.75700,-116.39300,-18.04200,0.10600,0.25500,-0.33800,83.17000,-0.52000
041225_03.31.56.764,-1.12600,-0.73000,0.47100,-112.98000,-111.63200,-22.05000,0.12000,0.24900,-0.37200,83.41000,0.24000
041225_03.31.56.775,-0.98600,-0.67000,0.43600,-122.62200,-105.40300,-21.00000,0.12600,0.24900,-0.39900,83.32000,-0.09000
041225_03.31.56.787,-0.98500,-0.53900,0.30900,-125.16000,-105.12200,-15.22500,0.12600,0.24900,-0.39900,83.12000,-0.20000
041225_03.31.56.799,-0.94900,-0.43200,0.28000,-116.35700,-104.96500,-12.77500,0.13100,0.24400,-0.42700,83.42000,0.30000
041225_03.31.56.810,-0.92100,-0.46700,0.37700,-101.22000,-98.57700,-16.01300,0.13500,0.24500,-0.45100,82.85000,-0.57000
041225_03.31.56.822,-0.96200,-0.50400,0.37900,-86.10000,-86.08200,-22.52300,0.14000,0.25300,-0.47300,83.66000,0.81000
041225_03.31.56.834,-0.90300,-0.73800,0.61000,-72.39700,-81.35700,-32.51500,0.14200,0.26000,-0.48800,83.28000,-0.38000
041225_03.31.56.846,-0.88100,-0.77900,0.46900,-74.20000,-75.67000,-36.40000,0.14200,0.26000,-0.48800,83.43000,0.15000
041225_03.31.56.857,-0.73300,-0.79000,0.50600,-74.86500,-70.29800,-33.53000,0.14300,0.26300,-0.49800,83.00000,-0.43000
041225_03.31.56.869,-0.70700,-0.68600,0.42800,-77.49000,-74.46300,-30.18700,0.13900,0.26800,-0.52200,84.21000,1.21000
041225_03.31.56.881,-0.68800,-0.46800,0.27900,-74.70700,-72.52000,-16.67700,0.14000,0.27600,-0.54000,83.19000,-1.02000
041225_03.31.56.893,-0.70000,-0.30900,0.20000,-39.35800,-70.71700,-4.72500,0.13600,0.27800,-0.56200,82.72000,-0.47000
041225_03.31.56.904,-0.63700,-0.43500,0.52800,-24.16700,-64.08500,1.64500,0.13600,0.27800,-0.56200,83.35000,0.63000
041225_03.31.56.916,-0.60300,-0.47700,0.49000,-15.96000,-59.57000,4.97000,0.12900,0.27500,-0.57900,83.19000,-0.16000
041225_03.31.56.928,-0.57700,-0.46400,0.43200,-11.28800,-57.22500,7.73500,0.12800,0.27300,-0.58600,83.81000,0.62000
041225_03.31.56.939,-0.56000,-0.49200,0.47700,-1.40000,-52.46500,7.75300,0.12400,0.27300,-0.59800,82.57000,-1.24000
041225_03.31.56.951,-0.52800,-0.67800,0.60300,10.06300,-50.17300,-3.86800,0.12400,0.27300,-0.59800,83.57000,1.00000
041225_03.31.56.963,-0.33700,-0.81300,0.60000,13.65000,-48.28300,-21.91000,0.12000,0.27900,-0.61300,82.82000,-0.75000
041225_03.31.56.974,-0.25000,-0.83000,0.54300,14.43800,-49.96300,-38.95500,0.12400,0.28100,-0.62100,82.67000,-0.15000
041225_03.31.56.986,-0.22400,-0.75100,0.45000,18.00700,-55.68500,-52.92000,0.11700,0.29200,-0.63800,83.10000,0.43000
041225_03.31.56.998,-0.18900,-0.53600,0.35200,23.83500,-62.02000,-65.27500,0.11400,0.29900,-0.65200,83.91000,0.81000
041225_03.31.57.010,-0.28200,-0.03300,0.08000,38.20200,-58.32700,-63.40300,0.11400,0.29900,-0.65200,83.68000,-0.23000
041225_03.31.57.022,-0.27400,-0.58900,0.97700,72.71300,-51.39700,-48.37000,0.11400,0.30300,-0.66300,83.00000,-0.68000
041225_03.31.57.034,-0.34400,-0.61300,0.84000,63.49000,-75.68800,-20.96500,0.10800,0.29500,-0.68000,83.59000,0.59000
041225_03.31.57.046,-0.43400,-0.40700,0.92000,57.68000,-86.08200,-2.69500,0.10600,0.28600,-0.69700,83.06000,-0.53000
041225_03.31.57.058,-0.45800,-0.37100,0.80400,54.77500,-97.42300,16.62500,0.09400,0.27500,-0.72700,83.27000,0.21000
041225_03.31.57.069,-0.51100,-0.44600,0.73600,58.90500,-100.74700,33.86200,0.09400,0.27500,-0.72700,83.09000,-0.18000
041225_03.31.57.080,-0.59200,-0.59400,0.72100,66.37800,-96.23200,40.88000,0.07800,0.25500,-0.74000,83.32000,0.23000
041225_03.31.57.092,-0.38600,-0.79400,0.95400,70.36800,-88.58500,38.09700,0.06600,0.23600,-0.76500,83.11000,-0.21000
041225_03.31.57.103,-0.33200,-0.63500,1.19300,57.31300,-97.73800,35.75200,0.05700,0.21500,-0.79200,83.72000,0.61000
041225_03.31.57.115,-0.48100,-0.69300,0.99000,34.19500,-105.75300,44.06500,0.02400,0.19200,-0.81500,83.81000,0.09000
041225_03.31.57.127,-0.34400,-0.69500,0.97200,24.06200,-110.53000,46.16500,0.02400,0.19200,-0.81500,82.66000,-1.15000
041225_03.31.57.138,-0.48700,-0.57200,0.66900,18.77800,-114.10000,58.64300,-0.00500,0.17400,-0.84000,83.49000,0.83000
041225_03.31.57.150,-0.56300,-0.62300,0.57000,28.24500,-105.49000,70.50700,-0.03700,0.14900,-0.86700,83.67000,0.18000
041225_03.31.57.162,-0.71100,-0.65200,0.59200,37.32700,-95.21700,82.53000,-0.06000,0.12300,-0.87900,83.57000,-0.10000
041225_03.31.57.174,-0.78800,-0.74100,0.84700,43.57500,-83.12500,86.76500,-0.06000,0.12300,-0.90100,83.46000,-0.11000
041225_03.31.57.185,-0.69500,-0.72700,1.17600,10.67500,-70.52500,83.00300,-0.09400,0.10800,-0.90100,83.45000,-0.01000
041225_03.31.57.197,-0.86100,-0.10300,0.64900,12.14500,-57.33000,77.14000,-0.12800,0.09000,-0.91100,83.40000,-0.05000
041225_03.31.57.209,-0.71100,-0.34300,0.79900,25.81200,-46.09500,68.40800,-0.15600,0.07500,-0.92200,82.75000,-0.65000
041225_03.31.57.221,-0.63200,-0.56300,0.87700,30.74700,-39.14700,58.34500,-0.17100,0.05800,-0.92900,83.45000,0.70000
041225_03.31.57.232,-0.54600,-0.73900,0.92400,25.51500,-33.54800,49.35000,-0.17100,0.05800,-0.92900,83.14000,-0.31000
041225_03.31.57.244,-0.48300,-0.88400,0.93800,13.54500,-33.53000,36.22500,-0.18800,0.04600,-0.95000,83.69000,0.55000
041225_03.31.57.256,-0.36300,-0.89000,0.90400,-2.48500,-40.39000,17.88500,-0.20500,0.04500,-0.94900,83.55000,-0.14000
041225_03.31.57.268,-0.27500,-0.66600,0.71500,-12.53000,-50.41700,2.55500,-0.22000,0.03900,-0.96300,82.65000,-0.90000
041225_03.31.57.279,-0.25700,-0.67700,0.95800,-16.59000,-51.99300,2.31000,-0.23300,0.03500,-0.96900,83.21000,0.56000
041225_03.31.57.291,-0.34600,-0.53600,0.87900,-19.32000,-58.53700,-2.87000,-0.23300,0.03500,-0.96900,82.87000,-0.34000
041225_03.31.57.303,-0.21800,-0.64900,0.99900,-25.14800,-41.51000,-1.64500,-0.24600,0.03900,-0.97900,83.60000,0.73000
041225_03.31.57.314,-0.14200,-0.59100,0.99600,-33.89700,-38.72800,-4.25300,-0.26300,0.04300,-0.99300,83.12000,-0.48000
041225_03.31.57.326,-0.20200,-0.27400,0.91000,-42.36800,-48.77200,16.25700,-0.27900,0.05000,-0.99200,83.18000,0.06000
041225_03.31.57.338,-0.13700,-0.17500,0.96300,-37.10000,-41.42300,15.20800,-0.29500,0.05800,-1.01100,83.04000,-0.14000
041225_03.31.57.350,-0.20900,-0.30500,1.02300,-33.86200,-34.63200,16.48500,-0.29500,0.05800,-1.01100,83.16000,0.12000
041225_03.31.57.361,-0.18100,-0.46300,1.17500,-33.23300,-35.43800,13.09000,-0.31000,0.05600,-1.00700,82.60000,-0.56000
041225_03.31.57.373,-0.07400,-0.30500,1.08200,-42.80500,-45.43000,8.20800,-0.33400,0.06100,-1.02500,83.02000,0.42000
041225_03.31.57.385,0.04200,-0.18400,1.01000,-51.48500,-58.62500,16.31000,-0.36200,0.06300,-1.03100,82.86000,-0.16000
041225_03.31.57.397,0.12300,-0.13700,0.91800,-52.25500,-78.82000,33.46000,-0.40500,0.07000,-1.04500,82.86000,0.00000
041225_03.31.57.408,0.11600,-0.24000,0.84200,-52.11500,-87.25500,55.75500,-0.40500,0.07000,-1.04500,83.59000,0.73000
041225_03.31.57.420,-0.03700,-0.46300,0.92900,-52.64000,-88.27000,71.92500,-0.45200,0.07900,-1.05500,82.98000,-0.61000
041225_03.31.57.432,-0.13800,-0.47800,1.00500,-48.72000,-98.84000,75.00500,-0.51500,0.09200,-1.06200,83.34000,0.36000
041225_03.31.57.443,-0.09000,-0.44400,0.97300,-42.77000,-114.73000,71.10300,-0.57500,0.09900,-1.06300,83.74000,0.40000
041225_03.31.57.455,-0.08000,-0.48800,0.90700,-36.92500,-119.66500,66.64000,-0.57500,0.09900,-1.06300,83.59000,-0.15000
041225_03.31.57.467,-0.11300,-0.48700,0.82200,-29.45200,-120.22500,62.94800,-0.64300,0.10400,-1.06400,83.16000,-0.43000
041225_03.31.57.479,-0.11800,-0.50300,0.82000,-12.11000,-106.29500,50.13800,-0.71200,0.11200,-1.06000,83.32000,0.16000
041225_03.31.57.490,-0.20900,-0.54600,0.94000,-0.59500,-99.69800,39.72500,-0.77500,0.11000,-1.04800,83.34000,0.02000
041225_03.31.57.502,-0.28800,-0.51600,0.94200,7.94500,-94.15000,30.52000,-0.83500,0.10500,-1.03100,83.31000,-0.03000
041225_03.31.57.514,-0.26900,-0.56300,0.88200,16.29200,-88.35700,21.15700,-0.83500,0.10500,-1.03100,83.21000,-0.10000
041225_03.31.57.525,-0.28800,-0.73600,0.80500,24.15000,-81.02500,10.30700,-0.89400,0.09300,-1.01200,82.87000,-0.34000
041225_03.31.57.537,-0.35300,-0.82500,0.92700,23.29200,-65.64300,-3.44700,-0.93900,0.07400,-0.98600,83.64000,0.77000
041225_03.31.57.549,-0.10300,-0.56700,0.87000,5.21500,-45.65800,-12.04000,-0.97100,0.05900,-0.97300,83.61000,-0.03000
041225_03.31.57.561,-0.14500,-0.74500,0.82500,-11.83000,-34.87700,-8.55700,-0.99900,0.05000,-0.95800,83.03000,-0.58000
041225_03.31.57.572,-0.08600,-1.04300,0.97400,-22.55800,-39.09500,-8.61000,-0.99900,0.05000,-0.95800,83.32000,0.29000
041225_03.31.57.584,-0.01000,-1.11800,1.00300,-35.22800,-51.18800,-10.55200,-1.02600,0.04200,-0.93100,83.55000,0.23000
041225_03.31.57.596,0.11400,-1.04900,1.11600,-52.36000,-63.54200,-11.88200,-1.04600,0.03300,-0.89600,83.83000,0.28000
041225_03.31.57.607,0.34000,-0.43100,1.21200,-70.21000,-83.37000,-1.62800,-1.07800,0.02600,-0.84600,83.35000,-0.48000
041225_03.31.57.619,0.16000,-0.31700,0.93400,-79.10000,-107.97500,34.26500,-1.11600,0.02400,-0.79300,83.07000,-0.28000
041225_03.31.57.631,0.24700,-0.69400,0.93100,-80.90300,-143.08000,31.60500,-1.11600,0.02400,-0.79300,83.23000,0.16000
041225_03.31.57.643,0.23300,-0.38600,0.86200,-72.34500,-151.98800,14.26200,-1.14200,0.01000,-0.71700,83.28000,0.05000
041225_03.31.57.654,0.21900,-0.38500,0.80300,-60.97000,-153.51000,0.40300,-1.15600,-0.02400,-0.65100,83.77000,0.49000
041225_03.31.57.666,0.30500,-0.47500,0.74600,-56.15800,-141.57500,-14.17500,-1.16100,-0.05800,-0.58600,84.00000,0.23000
041225_03.31.57.678,0.37200,-0.52400,0.67800,-51.90500,-118.73800,-25.30500,-1.16100,-0.05800,-0.54100,83.07000,-0.93000
041225_03.31.57.690,0.37300,-0.57000,0.61100,-46.25200,-100.88700,-30.95800,-1.14700,-0.10300,-0.54100,83.51000,0.44000
041225_03.31.57.702,0.30900,-0.64600,0.37100,-38.20200,-89.63500,-32.09500,-1.12600,-0.15100,-0.50700,82.80000,-0.71000
041225_03.31.57.713,0.36400,-0.85200,0.57800,-25.56700,-75.96700,-31.36000,-1.11000,-0.19900,-0.47300,83.54000,0.74000
041225_03.31.57.725,0.38200,-1.06300,0.74000,-22.52300,-77.75300,-34.35300,-1.07900,-0.24400,-0.43900,83.07000,-0.47000
041225_03.31.57.737,0.45700,-1.19200,0.73500,-32.76000,-92.64500,-38.90300,-1.07900,-0.24400,-0.43900,83.62000,0.55000
041225_03.31.57.749,0.53800,-1.12600,0.54900,-56.21000,-107.62500,-39.58500,-1.03300,-0.29300,-0.41100,83.25000,-0.37000
041225_03.31.57.761,0.51600,-0.94600,0.61000,-80.34200,-122.18500,-31.41300,-0.97400,-0.33200,-0.39700,83.92000,0.67000
041225_03.31.57.772,0.67400,-1.18900,0.76100,-89.54800,-152.88000,-1.08500,-0.92700,-0.35400,-0.38700,82.94000,-0.98000
041225_03.31.57.784,0.70100,-0.96500,0.62100,-139.00300,-193.32200,1.76800,-0.87000,-0.37100,-0.39200,83.22000,0.28000
041225_03.31.57.796,0.39400,-0.51000,0.62600,-155.47000,-185.30700,-5.04000,-0.87000,-0.37100,-0.39200,83.16000,-0.06000
041225_03.31.57.807,0.90200,-0.57200,0.83900,-160.05500,-196.66500,-9.99300,-0.81500,-0.36800,-0.42000,83.51000,0.35000
041225_03.31.57.819,1.10600,-0.64800,0.91200,-165.67300,-242.60300,-11.67200,-0.77700,-0.36600,-0.44100,83.94000,0.43000
041225_03.31.57.831,0.78000,-0.34600,0.31800,-174.00300,-302.36500,0.71800,-0.74700,-0.35100,-0.45700,84.23000,0.29000
041225_03.31.57.842,0.48200,-0.23100,-0.40600,-167.58000,-320.39000,28.70000,-0.74400,-0.33300,-0.46000,83.44000,-0.79000
041225_03.31.57.854,0.04500,-0.51400,-0.69400,-141.99500,-285.33700,49.91000,-0.74400,-0.33300,-0.46000,83.73000,0.29000
041225_03.31.57.866,-0.21500,-0.60900,-0.82300,-111.30000,-220.34200,36.52200,-0.74800,-0.32100,-0.46300,83.60000,-0.13000
041225_03.31.57.878,-0.18700,-0.38700,-0.99900,-89.95000,-143.34200,1.15500,-0.73700,-0.31400,-0.47600,83.21000,-0.39000
041225_03.31.57.890,0.02700,-0.48700,-0.89500,-76.65000,-82.19800,-37.67800,-0.71400,-0.32300,-0.50700,83.29000,0.08000
041225_03.31.57.902,0.29200,-0.75600,-0.53500,-60.11200,-58.18800,-66.65800,-0.68400,-0.33400,-0.51300,83.35000,0.06000
041225_03.31.57.913,-0.12500,-0.13100,-0.32300,-23.83500,-63.12300,-60.88200,-0.68400,-0.33400,-0.51300,83.06000,-0.29000
041225_03.31.57.925,-0.16900,-1.10400,-0.25500,70.47300,-52.46500,-25.30500,-0.67400,-0.34300,-0.49300,83.11000,0.05000
041225_03.31.57.937,-0.27200,-1.51100,0.46600,47.54800,-44.73000,-42.49000,-0.66100,-0.35000,-0.47800,82.97000,-0.14000
041225_03.31.57.949,0.36800,-0.87600,0.49100,12.11000,-44.50200,-52.97200,-0.64800,-0.34500,-0.47300,83.47000,0.50000
041225_03.31.57.960,0.23000,-0.84900,-0.34400,-20.26500,-41.98300,-46.95200,-0.64800,-0.34500,-0.47300,83.34000,-0.13000
041225_03.31.57.972,0.19000,-0.80100,-0.53100,-48.80700,-0.54300,-42.14000,-0.63600,-0.34100,-0.47900,83.89000,0.55000
041225_03.31.57.984,0.58600,-0.65100,-0.65100,-63.08800,28.00000,-43.75000,-0.62400,-0.32000,-0.48900,83.76000,-0.13000
041225_03.31.57.996,0.48700,-0.54600,-0.52200,-64.83800,17.11500,-34.70200,-0.62000,-0.30800,-0.50200,82.52000,-1.24000
041225_03.31.58.007,0.46300,-0.56000,-0.65700,-40.47800,-2.73000,-44.10000,-0.61300,-0.29800,-0.49500,83.40000,0.88000
041225_03.31.58.019,0.47700,-0.56700,-0.53900,-24.88500,-23.34500,-53.21700,-0.61300,-0.29800,-0.49500,83.28000,-0.12000
041225_03.31.58.031,0.58100,-0.59900,-0.55500,-12.19800,-53.27000,-43.68000,-0.60100,-0.29000,-0.48500,83.19000,-0.09000
041225_03.31.58.043,0.58700,-0.72400,-0.45300,-1.55800,-81.67300,-32.55000,-0.60100,-0.28300,-0.47400,83.52000,0.33000
041225_03.31.58.054,0.52300,-0.64700,-0.60100,-1.96000,-92.06700,-28.19300,-0.59800,-0.27300,-0.45000,83.06000,-0.46000
041225_03.31.58.066,0.43500,-0.62900,-0.57100,4.70700,-89.07500,-26.93300,-0.59800,-0.26500,-0.43400,83.49000,0.43000
041225_03.31.58.078,0.41700,-0.61300,-0.70300,9.36300,-86.43300,-19.05800,-0.59800,-0.26500,-0.43400,83.39000,-0.10000
041225_03.31.58.090,0.28500,-0.75200,-0.75800,1.22500,-83.63200,-15.08500,-0.60300,-0.25000,-0.41700,83.22000,-0.17000
041225_03.31.58.101,0.07500,-0.93700,-0.49500,-8.76700,-69.56300,-0.75200,-0.60000,-0.23800,-0.40700,83.17000,-0.05000
041225_03.31.58.113,0.10600,-0.82400,-0.56900,-24.53500,-48.75500,6.54500,-0.60400,-0.22200,-0.40100,84.31000,1.14000
041225_03.31.58.125,0.05200,-0.94500,-0.48400,-38.67500,-27.87800,19.96800,-0.60900,-0.19800,-0.40500,82.92000,-1.39000
041225_03.31.58.137,0.41500,-1.14300,-0.61100,-57.57500,-12.68800,30.17000,-0.60900,-0.19800,-0.40500,83.03000,0.11000
041225_03.31.58.149,0.37700,-0.76300,-0.51700,-83.59800,-12.65300,44.66000,-0.62000,-0.17600,-0.40900,83.32000,0.29000
041225_03.31.58.160,0.44400,-0.44700,-0.54700,-94.60500,-10.78000,57.94300,-0.63700,-0.14300,-0.41500,83.32000,0.00000
041225_03.31.58.172,0.55500,-0.32600,-0.39500,-76.59800,-5.91500,59.01000,-0.64800,-0.11600,-0.42000,83.17000,-0.15000
041225_03.31.58.184,0.55000,-0.36900,-0.52200,-48.51000,-10.46500,51.76500,-0.64800,-0.09300,-0.41700,83.47000,0.30000
041225_03.31.58.196,0.63100,-0.54500,-0.54100,-25.51500,-10.22000,36.71500,-0.66300,-0.09300,-0.41700,83.21000,-0.26000
041225_03.31.58.207,0.53400,-0.45200,-0.52800,-10.79700,-9.45000,28.59500,-0.66600,-0.07000,-0.40000,83.42000,0.21000
041225_03.31.58.219,0.51800,-0.52700,-0.46400,-2.81800,0.07000,42.85800,-0.67600,-0.05200,-0.39300,83.17000,-0.25000
041225_03.31.58.231,0.52900,-0.62800,-0.47800,12.18000,13.73800,44.83500,-0.68300,-0.02400,-0.38100,83.37000,0.20000
041225_03.31.58.242,0.48300,-0.66100,-0.54100,18.91700,25.11200,46.35800,-0.68300,-0.02400,-0.38100,83.31000,-0.06000
041225_03.31.58.254,0.34300,-0.68300,-0.47100,22.22500,37.15300,42.40300,-0.70100,0.00600,-0.36600,83.28000,-0.03000
041225_03.31.58.266,0.26400,-0.64400,-0.37700,23.71200,39.65500,36.47000,-0.71300,0.03200,-0.35800,84.10000,0.82000
041225_03.31.58.278,0.47500,-0.71100,-0.49000,23.67700,48.17800,38.88500,-0.72600,0.06200,-0.36000,83.57000,-0.53000
041225_03.31.58.289,0.56600,-0.75400,-0.56800,31.43000,86.50300,47.88000,-0.74500,0.09400,-0.36100,82.40000,-1.17000
041225_03.31.58.301,0.57800,-0.68800,-0.64700,40.93200,133.29800,50.40000,-0.74500,0.09400,-0.36100,83.31000,0.91000
041225_03.31.58.313,0.62000,-0.72500,-0.74600,43.90800,165.53300,47.09200,-0.75700,0.12600,-0.38400,83.57000,0.26000
041225_03.31.58.324,0.72100,-0.72900,-0.75800,38.20200,179.28800,39.93500,-0.76800,0.16200,-0.40800,83.92000,0.35000
041225_03.31.58.336,0.79800,-0.66800,-0.65700,31.20200,178.32500,36.19000,-0.78200,0.19200,-0.43500,83.74000,-0.18000
041225_03.31.58.348,0.82800,-0.64400,-0.51000,28.89200,164.74500,38.74500,-0.78400,0.21600,-0.46500,83.59000,-0.15000
041225_03.31.58.359,0.83200,-0.61500,-0.40100,31.18500,144.88300,39.84700,-0.78400,0.21600,-0.46500,83.25000,-0.34000
041225_03.31.58.371,0.88400,-0.59100,-0.32400,37.76500,144.09500,28.94500,-0.78600,0.23800,-0.47700,83.23000,-0.02000
041225_03.31.58.383,0.91300,-0.55900,-0.15700,62.91200,172.62000,21.98000,-0.78600,0.25700,-0.50300,83.63000,0.40000
041225_03.31.58.395,0.53300,-0.62000,-0.06400,68.28500,205.53800,6.24700,-0.77400,0.26200,-0.54100,83.13000,-0.50000
041225_03.31.58.406,0.63800,-0.59800,0.07100,65.67700,235.51500,-14.03500,-0.75900,0.26700,-0.58500,82.89000,-0.24000
041225_03.31.58.418,0.92900,-0.54400,0.27600,61.53000,256.65500,-27.70200,-0.75900,0.26700,-0.58500,83.52000,0.63000
041225_03.31.58.430,1.35700,-0.64400,0.35700,59.64000,258.33500,-34.84200,-0.74300,0.26400,-0.63000,83.49000,-0.03000
041225_03.31.58.441,1.38500,-0.71200,0.18800,58.24000,237.72000,-41.91200,-0.71400,0.26100,-0.66400,83.87000,0.38000
041225_03.31.58.453,1.40900,-0.71000,0.02600,48.24800,215.35500,-45.01000,-0.69500,0.25600,-0.70400,83.52000,-0.35000
041225_03.31.58.465,1.43300,-0.68300,0.12200,33.49500,206.15000,-34.33500,-0.69500,0.25600,-0.70400,83.81000,0.29000
041225_03.31.58.477,1.43600,-0.65500,0.14700,23.76500,199.11500,-17.76300,-0.66300,0.24900,-0.73700,83.75000,-0.06000
041225_03.31.58.488,1.28400,-0.65000,0.12400,15.48800,197.55700,-2.74700,-0.63400,0.24300,-0.77100,83.30000,-0.45000
041225_03.31.58.500,0.97800,-0.58900,-0.01800,4.81200,186.44500,0.56000,-0.60400,0.24700,-0.79900,83.51000,0.21000
041225_03.31.58.512,0.76500,-0.49900,-0.09900,6.23000,171.71000,-4.18200,-0.57500,0.24200,-0.81200,83.00000,-0.51000
041225_03.31.58.523,0.65800,-0.57500,0.02600,20.47500,161.68200,-28.10500,-0.57500,0.24200,-0.81200,83.24000,0.24000
041225_03.31.58.535,0.71700,-0.64900,0.27000,21.87500,162.12000,-38.81500,-0.54300,0.23000,-0.83800,83.40000,0.16000
041225_03.31.58.547,0.80000,-0.62700,0.32400,24.78000,164.44700,-40.11000,-0.50900,0.22000,-0.85700,83.24000,-0.16000
041225_03.31.58.558,0.66700,-0.57600,0.39300,29.31200,166.26800,-38.60500,-0.46800,0.21100,-0.86200,83.70000,0.46000
041225_03.31.58.570,0.49600,-0.48100,0.40900,31.86800,169.22500,-43.03300,-0.42900,0.19500,-0.87500,83.33000,-0.37000
041225_03.31.58.582,0.32100,-0.41600,0.38400,38.01000,176.50500,-50.78500,-0.42900,0.19500,-0.87500,83.94000,0.61000
041225_03.31.58.594,0.02700,-0.50400,0.40600,44.92300,190.66300,-54.98500,-0.38800,0.19100,-0.88200,83.52000,-0.42000
041225_03.31.58.605,0.02300,-0.57500,0.44700,45.62300,200.98800,-61.16200,-0.34200,0.17500,-0.88500,83.41000,-0.11000
041225_03.31.58.617,0.72900,-0.60900,-0.00800,63.49000,186.60200,-60.49800,-0.30300,0.17000,-0.87900,83.05000,-0.36000
041225_03.31.58.629,0.89100,-0.49400,0.07500,113.55800,124.32000,-16.57300,-0.28900,0.14300,-0.87000,83.62000,0.57000
041225_03.31.58.640,0.38200,-0.51300,0.06800,124.23200,91.45500,38.95500,-0.28900,0.14300,-0.87000,83.44000,-0.18000
041225_03.31.58.652,0.65800,-0.43000,0.36600,117.47800,99.61000,50.92500,-0.27600,0.12300,-0.85700,82.30000,-1.14000
041225_03.31.58.664,0.78900,-0.58800,0.59200,104.42300,112.54300,40.12700,-0.25700,0.09700,-0.84700,82.59000,0.29000
041225_03.31.58.676,0.68800,-0.92100,0.59800,34.03700,117.16200,36.54000,-0.25000,0.09200,-0.84900,83.32000,0.73000
041225_03.31.58.687,0.42600,-1.04900,0.49800,-5.21500,128.31000,36.80300,-0.25000,0.09400,-0.85100,83.29000,-0.03000
041225_03.31.58.699,0.74300,-1.12500,0.44300,-37.67800,132.70200,24.25500,-0.22800,0.09400,-0.85100,83.81000,0.52000
041225_03.31.58.711,0.15700,-0.70200,0.41400,-51.52000,143.53500,-19.51300,-0.19900,0.09900,-0.85500,83.17000,-0.64000
041225_03.31.58.722,-0.14400,-0.33200,0.68500,-58.52000,160.14300,-47.84500,-0.16200,0.11500,-0.86300,83.15000,-0.02000
041225_03.31.58.734,0.12000,-0.38600,0.91700,-58.45000,151.79500,-54.32000,-0.11800,0.12700,-0.86400,83.46000,0.31000
041225_03.31.58.746,0.22600,-0.33800,1.25000,-43.17300,138.72300,-47.33800,-0.11800,0.12700,-0.86400,83.80000,0.34000
041225_03.31.58.758,0.15700,-0.31500,1.17400,-18.25300,120.17300,-26.07500,-0.08700,0.14200,-0.86200,84.01000,0.21000
041225_03.31.58.769,0.24600,-0.46100,1.07400,0.52500,112.24500,-2.10000,-0.06900,0.14300,-0.85700,83.69000,-0.32000
041225_03.31.58.781,0.24800,-0.53600,1.03800,11.27000,104.09000,9.80000,-0.04800,0.13800,-0.84500,83.70000,0.01000
041225_03.31.58.793,0.13600,-0.60000,1.05900,13.72000,99.34800,13.14200,-0.03600,0.13600,-0.84600,83.58000,-0.12000
041225_03.31.58.804,-0.03100,-0.62800,1.00300,11.34000,95.20000,11.37500,-0.03600,0.13600,-0.84600,83.47000,-0.11000
041225_03.31.58.816,-0.12600,-0.71200,0.97200,6.51000,98.28000,3.93800,-0.02400,0.13400,-0.83700,83.11000,-0.36000
041225_03.31.58.828,-0.06600,-0.75800,1.14700,-3.92000,86.20500,4.83000,-0.00200,0.13400,-0.82500,83.21000,0.10000
041225_03.31.58.839,-0.18800,-0.45300,1.13500,-4.46300,76.10700,10.20300,0.00700,0.13400,-0.82300,83.67000,0.46000
041225_03.31.58.851,-0.09000,-0.44400,1.14100,-4.32300,63.50700,14.14000,0.01800,0.13100,-0.81800,83.21000,-0.46000
041225_03.31.58.863,-0.13500,-0.44200,1.17800,1.80300,45.86800,22.24300,0.01800,0.13100,-0.81800,83.31000,0.10000
041225_03.31.58.874,-0.23000,-0.40200,1.13300,9.27500,34.47500,29.47000,0.02500,0.12300,-0.80700,83.36000,0.05000
041225_03.31.58.886,-0.17200,-0.43000,1.09300,12.61800,32.02500,30.06500,0.02600,0.11700,-0.80300,83.39000,0.03000
041225_03.31.58.898,-0.28700,-0.53300,1.03800,13.72000,25.32300,31.57000,0.02700,0.11200,-0.80500,83.81000,0.42000
041225_03.31.58.909,-0.30800,-0.45500,1.00300,14.35000,18.62000,31.20200,0.02500,0.10300,-0.79500,83.64000,-0.17000
041225_03.31.58.921,-0.36000,-0.49600,0.91500,13.75500,13.96500,34.09000,0.02500,0.10300,-0.79500,84.09000,0.45000
041225_03.31.58.933,-0.29000,-0.36500,0.85300,8.99500,17.41300,36.47000,0.02100,0.09900,-0.79400,83.23000,-0.86000
041225_03.31.58.944,-0.31400,-0.39500,0.80900,5.74000,23.29200,39.58500,0.01900,0.08700,-0.78500,83.58000,0.35000
041225_03.31.58.956,-0.21600,-0.38900,0.81600,1.90800,32.06000,40.74000,0.02100,0.08200,-0.79000,83.18000,-0.40000
041225_03.31.58.968,-0.37200,-0.40000,0.80200,-9.01200,55.16000,43.73300,0.02100,0.08200,-0.79000,83.47000,0.29000
041225_03.31.58.979,-0.38700,-0.44900,0.81900,-15.27800,68.95000,50.99500,0.02500,0.07300,-0.77700,83.11000,-0.36000
041225_03.31.58.991,-0.31700,-0.46700,0.81600,-20.65000,74.79500,59.50000,0.02600,0.06800,-0.77800,82.95000,-0.16000
041225_03.31.59.003,-0.33700,-0.47100,0.83100,-24.32500,81.32300,63.36800,0.02600,0.06200,-0.76700,82.82000,-0.13000
041225_03.31.59.014,-0.38100,-0.42600,0.85500,-26.04000,93.69500,65.50300,0.02800,0.05300,-0.75700,83.06000,0.24000
041225_03.31.59.026,-0.56800,-0.56100,0.87400,-29.15500,111.65000,68.18000,0.02800,0.05300,-0.75700,83.43000,0.37000
041225_03.31.59.038,-0.81400,-0.48400,0.85800,-28.63000,134.38300,73.65800,0.03400,0.04800,-0.75300,83.41000,-0.02000
041225_03.31.59.050,-0.82100,-0.56300,0.84600,-28.54200,168.89300,82.95000,0.04000,0.03900,-0.73500,82.94000,-0.47000
041225_03.31.59.061,-0.47400,-0.53400,0.68200,-27.66700,179.67300,92.64500,0.04300,0.02200,-0.70500,82.67000,-0.27000
041225_03.31.59.073,-0.47800,-0.46300,0.60900,-18.49700,151.07700,95.30500,0.04200,0.00700,-0.69500,82.92000,0.25000
041225_03.31.59.085,-0.48700,-0.38100,0.55300,-21.24500,133.92800,82.98500,0.04200,0.00700,-0.69500,83.33000,0.41000
041225_03.31.59.097,-0.72100,-0.43000,0.57300,-17.39500,124.09200,75.02200,0.04300,-0.00300,-0.68600,83.71000,0.38000
041225_03.31.59.108,-0.94800,-0.50000,0.57400,-13.47500,114.78300,67.86500,0.03800,-0.02300,-0.67100,83.40000,-0.31000
041225_03.31.59.120,-1.11900,-0.42500,0.53000,-13.59700,127.96000,65.64300,0.03500,-0.03200,-0.64800,83.65000,0.25000
041225_03.31.59.132,-1.12000,-0.38400,0.50900,-5.07500,143.62200,73.79800,0.02900,-0.04100,-0.63400,83.46000,-0.19000
041225_03.31.59.143,-1.14700,-0.67000,0.49700,-7.01700,156.29200,69.45700,0.02900,-0.04100,-0.63400,82.64000,-0.82000
041225_03.31.59.155,-1.00900,-0.68500,0.42600,-25.86500,172.95200,59.55300,0.02100,-0.05200,-0.61200,83.88000,1.24000
041225_03.31.59.167,-0.66000,-0.52300,0.25900,-43.96000,170.71200,59.37700,0.01900,-0.05900,-0.59300,83.29000,-0.59000
041225_03.31.59.178,-0.56700,-0.34000,0.25300,-46.81300,150.85000,70.31500,0.01500,-0.06300,-0.58700,83.83000,0.54000
041225_03.31.59.190,-0.52400,-0.29400,0.24900,-38.83300,128.25800,74.60300,0.01500,-0.06300,-0.57500,84.34000,0.51000
041225_03.31.59.202,-0.50000,-0.17800,0.24700,-29.08500,104.63200,64.92500,-0.00100,-0.08100,-0.57500,83.48000,-0.86000
041225_03.31.59.214,-0.73300,0.01400,0.11700,-24.13200,84.01800,51.13500,-0.01000,-0.08600,-0.57100,82.87000,-0.61000
041225_03.31.59.225,-0.81500,-0.03900,0.11200,-19.81000,70.17500,53.11200,-0.01900,-0.08900,-0.56900,83.15000,0.28000
041225_03.31.59.237,-1.08300,-0.16900,0.05700,-10.37700,65.50300,54.89700,-0.03400,-0.09800,-0.56500,83.34000,0.19000
041225_03.31.59.249,-1.16600,-0.10600,0.04300,-5.37200,70.87500,49.68200,-0.03400,-0.09800,-0.56500,83.51000,0.17000
041225_03.31.59.260,-1.10600,0.19200,0.00200,0.52500,89.61800,68.11000,-0.04200,-0.10100,-0.55500,83.49000,-0.02000
041225_03.31.59.272,-1.19000,-0.05500,-0.03000,14.01700,108.13200,73.30800,-0.05300,-0.11100,-0.54500,83.08000,-0.41000
041225_03.31.59.284,-0.92400,-0.14800,-0.11400,10.02800,116.18300,77.94500,-0.07300,-0.11900,-0.53000,83.98000,0.90000
041225_03.31.59.296,-0.76800,-0.22600,-0.19600,8.59200,107.62500,84.54300,-0.08800,-0.13100,-0.53200,83.21000,-0.77000
041225_03.31.59.307,-0.86900,-0.22800,-0.27800,2.95700,93.64300,85.41800,-0.08800,-0.13100,-0.53200,83.20000,-0.01000
041225_03.31.59.319,-1.04300,-0.05900,-0.34700,-5.44300,91.59500,81.37500,-0.10300,-0.13400,-0.52300,83.15000,-0.05000
041225_03.31.59.331,-1.05000,0.27700,-0.46700,-12.61800,101.85000,77.99700,-0.12300,-0.13800,-0.51800,83.63000,0.48000
041225_03.31.59.343,-0.93300,0.17800,-0.50700,-12.04000,108.37800,83.19500,-0.14000,-0.14200,-0.50800,82.95000,-0.68000
041225_03.31.59.354,-0.74600,0.10400,-0.51400,-16.01300,107.36300,73.27200,-0.15400,-0.13900,-0.50800,83.78000,0.83000
041225_03.31.59.366,-0.80500,0.03700,-0.56300,-20.37000,102.11300,61.07500,-0.15400,-0.13900,-0.50800,83.40000,-0.38000
041225_03.31.59.378,-0.72600,-0.02200,-0.43700,-26.58300,93.22300,46.14700,-0.16600,-0.13900,-0.50600,83.70000,0.30000
041225_03.31.59.390,-0.82300,-0.01600,-0.43300,-34.23000,84.94500,35.10500,-0.17300,-0.14000,-0.50800,83.31000,-0.39000
041225_03.31.59.402,-0.79600,-0.00000,-0.45700,-37.94000,76.59800,34.79000,-0.17900,-0.14000,-0.51300,83.50000,0.19000
041225_03.31.59.413,-0.88500,0.17100,-0.48700,-31.71000,62.37000,37.80000,-0.18700,-0.13900,-0.51200,83.55000,0.05000
041225_03.31.59.425,-1.18000,0.15500,-0.63000,-21.31500,69.33500,53.93500,-0.18700,-0.13900,-0.51200,83.56000,0.01000
041225_03.31.59.437,-0.75100,0.38900,-0.54400,-19.02300,76.93000,38.13200,-0.19200,-0.13100,-0.50300,83.44000,-0.12000
041225_03.31.59.449,-0.79200,0.38000,-0.63400,-15.08500,71.01500,33.88000,-0.20600,-0.13000,-0.49100,83.43000,-0.01000
041225_03.31.59.460,-0.76900,0.29000,-0.63900,-12.47700,68.54800,38.22000,-0.21200,-0.12300,-0.48500,83.29000,-0.14000
041225_03.31.59.472,-0.81900,0.29600,-0.68200,-15.13700,72.24000,38.74500,-0.21200,-0.12300,-0.48500,83.52000,0.23000
041225_03.31.59.484,-0.81800,0.16100,-0.53800,-17.18500,86.48500,40.98500,-0.22400,-0.11900,-0.48400,83.61000,0.09000
041225_03.31.59.495,-0.92500,0.10900,-0.58200,-23.36200,98.42000,42.01800,-0.23300,-0.11700,-0.47600,83.73000,0.12000
041225_03.31.59.507,-0.80900,0.18200,-0.40300,-27.14200,109.18300,42.42000,-0.24300,-0.11100,-0.47100,83.97000,0.24000
041225_03.31.59.519,-0.87700,0.33900,-0.69700,-25.56700,108.48200,49.77000,-0.25400,-0.10900,-0.46700,83.82000,-0.15000
041225_03.31.59.531,-0.55600,-0.16600,0.36800,-15.38200,122.83300,62.54500,-0.25400,-0.10900,-0.46700,83.37000,-0.45000
041225_03.31.59.542,-0.71900,0.19100,-0.34400,-52.60500,86.27500,62.05500,-0.26900,-0.10400,-0.47200,83.86000,0.49000
041225_03.31.59.554,-0.90400,-0.07300,-0.35700,-56.42000,87.04500,57.31300,-0.28000,-0.10700,-0.47700,83.50000,-0.36000
041225_03.31.59.566,-0.84400,0.11400,-0.58000,-55.16000,110.04000,44.74800,-0.28400,-0.10500,-0.48700,82.86000,-0.64000
041225_03.31.59.578,-0.53600,0.71100,-1.56200,-40.23300,145.61800,56.10500,-0.29700,-0.09900,-0.49500,83.90000,1.04000
041225_03.31.59.589,-0.38900,0.63900,-1.01700,8.31300,206.29000,88.25300,-0.29700,-0.09900,-0.49500,84.06000,0.16000
041225_03.31.59.601,-0.07200,0.52300,-0.44700,17.51700,216.09000,110.09200,-0.31200,-0.09400,-0.49300,83.92000,-0.14000
041225_03.31.59.613,-0.18500,0.53600,-0.15100,-8.36500,194.26800,119.21000,-0.33500,-0.08900,-0.48700,84.27000,0.35000
041225_03.31.59.625,-0.28000,0.22500,-0.03300,-57.68000,192.93700,125.80800,-0.36100,-0.07800,-0.50600,84.12000,-0.15000
041225_03.31.59.636,-0.19400,0.23100,-0.33800,-131.79200,228.77700,131.42500,-0.37700,-0.06500,-0.53700,83.16000,-0.96000
041225_03.31.59.648,-0.10600,0.25600,-0.42800,-182.42000,259.42000,136.39500,-0.37700,-0.06500,-0.53700,84.12000,0.96000
041225_03.31.59.660,-0.15500,0.34900,-0.67500,-187.51200,251.07200,119.99700,-0.38900,-0.04700,-0.58100,83.76000,-0.36000
041225_03.31.59.672,-0.35500,0.27400,-0.94900,-170.57200,223.98200,79.55500,-0.38200,-0.03500,-0.60600,83.96000,0.20000
041225_03.31.59.684,0.10300,0.56500,-0.61800,-139.03800,196.40200,15.68000,-0.36700,-0.02500,-0.62400,84.15000,0.19000
041225_03.31.59.695,0.36100,0.61500,0.07800,-106.38200,149.43200,-35.94500,-0.36700,-0.02500,-0.63500,83.78000,-0.37000
041225_03.31.59.707,0.25400,0.46300,-0.35500,-88.28700,108.04500,-69.26500,-0.34400,-0.02600,-0.63500,83.67000,-0.11000
041225_03.31.59.719,0.19700,0.20800,-0.60400,-16.25700,89.12800,-61.44300,-0.32100,-0.02900,-0.63000,83.42000,-0.25000
041225_03.31.59.731,-0.02000,0.60400,-0.61800,-15.06800,96.95000,-39.02500,-0.30600,-0.03400,-0.63400,83.34000,-0.08000
041225_03.31.59.742,0.16200,1.11900,-0.58900,-23.17000,99.80200,-14.66500,-0.29100,-0.04200,-0.63600,84.15000,0.81000
041225_03.31.59.754,0.17900,1.58600,-0.70400,-26.25000,93.45000,12.32000,-0.29100,-0.04200,-0.63600,83.69000,-0.46000
041225_03.31.59.766,0.09900,1.53100,-0.88100,-19.96800,109.35700,47.12700,-0.29000,-0.04300,-0.62800,83.51000,-0.18000
041225_03.31.59.777,0.11400,1.17800,-0.70900,-3.01000,130.88300,70.47300,-0.29300,-0.04500,-0.62100,83.54000,0.03000
041225_03.31.59.789,0.28800,0.96800,-0.60100,20.77300,126.14000,67.69000,-0.29300,-0.05100,-0.61700,83.80000,0.26000
041225_03.31.59.801,0.35400,0.89600,-0.79200,39.46300,109.23500,47.72200,-0.29600,-0.05000,-0.60700,83.92000,0.12000
041225_03.31.59.813,0.32600,0.87500,-0.86700,50.59200,96.26800,21.19200,-0.29600,-0.05000,-0.60700,83.77000,-0.15000
041225_03.31.59.824,0.28100,0.78500,-0.80300,51.90500,89.09200,-0.21000,-0.29600,-0.05500,-0.59800,83.23000,-0.54000
041225_03.31.59.836,0.32100,0.61500,-0.75400,46.14700,82.02200,-8.99500,-0.28800,-0.05900,-0.58600,83.95000,0.72000
041225_03.31.59.848,0.34900,0.64200,-0.75200,33.47800,76.87800,-11.84700,-0.28400,-0.06300,-0.58200,83.87000,-0.08000
041225_03.31.59.859,0.34600,0.66900,-0.72200,12.75700,80.22000,-3.67500,-0.27900,-0.06200,-0.58000,83.43000,-0.44000
041225_03.31.59.871,0.40400,0.59500,-0.58800,5.07500,79.76500,1.17300,-0.27900,-0.06200,-0.58000,83.90000,0.47000
041225_03.31.59.883,0.35400,0.55400,-0.58200,-5.26700,78.85500,8.69800,-0.27500,-0.06600,-0.58000,82.86000,-1.04000
041225_03.31.59.894,0.25500,0.64500,-0.66700,-17.95500,83.33500,15.64500,-0.27700,-0.06100,-0.57500,82.93000,0.07000
041225_03.31.59.906,0.28400,0.70500,-0.56400,-28.98000,91.68300,20.00300,-0.27300,-0.06300,-0.58400,83.41000,0.48000
041225_03.31.59.918,0.31700,0.68300,-0.54400,-37.62500,91.40300,22.87200,-0.27300,-0.06100,-0.58400,83.75000,0.34000
041225_03.31.59.930,0.36200,0.66600,-0.54500,-41.17800,85.24300,24.76300,-0.27700,-0.06100,-0.58400,84.04000,0.29000
041225_03.31.59.941,0.38600,0.67900,-0.55700,-41.65000,75.33800,26.79200,-0.27500,-0.05900,-0.59100,83.35000,-0.69000
041225_03.31.59.953,0.41000,0.67900,-0.55200,-42.14000,65.01200,28.33300,-0.27600,-0.05600,-0.60200,82.70000,-0.65000
041225_03.31.59.965,0.44500,0.65700,-0.52700,-44.46700,55.61500,26.39000,-0.27600,-0.05800,-0.60800,83.76000,1.06000
041225_03.31.59.977,0.51600,0.64300,-0.46700,-44.36200,46.30500,23.80000,-0.27600,-0.05800,-0.60800,83.57000,-0.19000
041225_03.31.59.988,0.56100,0.60700,-0.44300,-41.59700,33.19700,22.92500,-0.27300,-0.05500,-0.61500,83.57000,0.00000
041225_03.32.00.000,0.56900,0.60600,-0.47100,-39.84700,21.12200,23.48500,-0.27600,-0.05000,-0.62100,84.38000,0.81000
041225_03.32.00.011,0.58500,0.60400,-0.48000,-46.83000,8.97700,24.11500,-0.27800,-0.05000,-0.62600,83.60000,-0.78000
041225_03.32.00.023,0.48300,0.78900,-0.38900,-50.12000,11.83000,27.12500,-0.28500,-0.04800,-0.63400,83.26000,-0.34000
041225_03.32.00.035,0.42700,0.85800,-0.47800,-59.32500,16.92300,38.36000,-0.28500,-0.04800,-0.63400,83.68000,0.42000
041225_03.32.00.046,0.37200,0.83600,-0.62700,-91.68300,28.42000,64.78500,-0.29000,-0.04200,-0.64900,84.02000,0.34000
041225_03.32.00.058,0.51800,0.74900,-0.51300,-140.89300,45.41200,96.53000,-0.29400,-0.03100,-0.66800,83.70000,-0.32000
041225_03.32.00.070,0.82500,0.90900,-0.28000,-181.96500,56.05300,126.12200,-0.31100,-0.01300,-0.71200,84.17000,0.47000
041225_03.32.00.082,0.92900,0.98200,0.01300,-220.95500,57.80300,165.02500,-0.32900,0.01800,-0.73800,83.70000,-0.47000
041225_03.32.00.093,1.13200,0.81700,0.17500,-244.12500,46.11200,190.92500,-0.32900,0.01800,-0.73800,83.58000,-0.12000
041225_03.32.00.105,1.01500,0.64900,0.14300,-241.79800,32.21700,195.56200,-0.34700,0.06500,-0.77400,82.80000,-0.78000
041225_03.32.00.117,1.07700,0.46700,0.12600,-207.65500,26.05800,189.61300,-0.36200,0.10700,-0.79700,84.22000,1.42000
041225_03.32.00.129,1.09300,0.38600,0.10400,-161.05300,27.54500,173.81000,-0.37900,0.14300,-0.81300,83.64000,-0.58000
041225_03.32.00.140,1.05200,0.38200,-0.01800,-113.90800,41.44000,150.78000,-0.38200,0.17100,-0.81800,83.83000,0.19000
041225_03.32.00.152,1.07700,0.60000,-0.11300,-68.98500,68.30200,117.96700,-0.38200,0.17100,-0.81800,83.00000,-0.83000
041225_03.32.00.164,1.00400,0.63100,0.03800,5.63500,103.75700,97.87800,-0.37800,0.18000,-0.82300,83.61000,0.61000
041225_03.32.00.175,0.93500,0.55100,0.53300,33.75700,82.75700,72.11800,-0.36700,0.17800,-0.83000,83.51000,-0.10000
041225_03.32.00.187,0.92800,0.54300,0.52800,58.90500,49.54200,48.47500,-0.36200,0.17200,-0.82400,83.09000,-0.42000
041225_03.32.00.199,0.93100,0.44300,0.44200,79.83500,20.58000,30.13500,-0.36200,0.17200,-0.82400,83.35000,0.26000
041225_03.32.00.210,0.86100,0.32300,0.42400,96.04000,-0.31500,16.10000,-0.35300,0.14700,-0.81400,83.50000,0.15000
041225_03.32.00.222,0.26900,-0.45400,0.14800,106.10300,-27.54500,15.48800,-0.35300,0.13500,-0.79200,83.40000,-0.10000
041225_03.32.00.234,0.96200,0.00800,0.52500,98.84000,-63.77000,32.69000,-0.36200,0.11200,-0.78800,83.28000,-0.12000
041225_03.32.00.246,1.08700,0.36800,0.44200,63.42000,-54.21500,52.50000,-0.37300,0.10600,-0.78700,84.19000,0.91000
