timestamp_iso,t_sec,ax,ay,az,gx,gy,gz,mx,my,mz,pressure,temperature,altitude
2025-11-03T07:01:52.945749,0.898,-0.028,-0.044,1.002,0.001,-0.002,0.0,-905.8,157.64,-913.08,995.6,25.1,178.15
2025-11-03T07:01:52.946768,0.899,-0.028,-0.043,1.002,0.002,-0.002,0.0,-901.04,156.8,-917.42,995.62,25.1,178.02
2025-11-03T07:01:52.947648,0.900,-0.029,-0.044,1.002,0.002,-0.002,0.0,-901.04,156.8,-917.42,995.61,25.1,178.14
2025-11-03T07:01:52.948549,0.901,-0.029,-0.043,1.002,0.001,-0.002,0.0,-897.96,157.92,-919.1,995.59,25.1,178.24
2025-11-03T07:01:52.949406,0.902,-0.029,-0.043,1.002,0.001,-0.002,0.0,-902.86,161.28,-915.04,995.6,25.1,178.18
2025-11-03T07:01:52.950432,0.903,-0.028,-0.044,1.002,0.002,-0.002,0.0,-905.66,159.04,-915.32,995.64,25.11,177.87
2025-11-03T07:01:52.951271,0.904,-0.028,-0.042,1.003,0.001,-0.001,0.0,-903.7,159.46,-916.16,995.61,25.1,178.07
2025-11-03T07:01:52.952090,0.904,-0.028,-0.044,1.002,0.001,-0.002,0.0,-899.22,158.9,-910.56,995.7,25.1,177.31
2025-11-03T07:01:52.952908,0.905,-0.03,-0.043,1.002,0.001,-0.002,0.0,-899.92,160.3,-910.28,995.54,25.1,178.65
2025-11-03T07:01:52.953719,0.906,-0.028,-0.042,1.002,0.001,-0.002,0.0,-899.92,160.3,-910.28,995.74,25.1,177.04
2025-11-03T07:01:52.954557,0.907,-0.028,-0.043,1.003,0.002,-0.002,0.0,-899.08,157.22,-911.12,995.65,25.1,177.8
2025-11-03T07:01:52.955430,0.908,-0.028,-0.043,1.003,0.002,-0.002,0.0,-901.88,155.68,-908.32,995.58,25.1,178.32
2025-11-03T07:01:52.956236,0.909,-0.028,-0.043,1.001,0.001,-0.002,0.0,-901.46,158.06,-908.46,995.58,25.11,178.36
2025-11-03T07:01:52.957058,0.909,-0.028,-0.043,1.002,0.001,-0.002,0.0,-900.9,160.58,-915.18,995.6,25.1,178.18
2025-11-03T07:01:52.957862,0.910,-0.028,-0.043,1.002,0.002,-0.002,0.001,-899.36,159.32,-910.98,995.61,25.1,178.14
2025-11-03T07:01:52.958650,0.911,-0.03,-0.043,1.002,0.001,-0.002,0.0,-899.5,158.62,-915.6,995.71,25.1,177.25
2025-11-03T07:01:52.959464,0.912,-0.028,-0.043,1.003,0.001,-0.002,0.0,-899.5,158.62,-915.6,995.59,25.1,178.31
2025-11-03T07:01:52.960263,0.913,-0.028,-0.042,1.002,0.001,-0.002,0.0,-903.56,155.82,-908.6,995.59,25.11,178.3
2025-11-03T07:01:52.961047,0.913,-0.028,-0.042,1.002,0.001,-0.002,0.0,-904.4,159.46,-917.56,995.66,25.11,177.7
2025-11-03T07:01:52.961860,0.914,-0.029,-0.042,1.003,0.002,-0.002,0.0,-897.26,159.6,-920.5,995.53,25.1,178.74
2025-11-03T07:01:52.962641,0.915,-0.029,-0.043,1.002,0.001,-0.002,0.0,-899.64,160.86,-909.02,995.61,25.1,178.06
2025-11-03T07:01:52.963414,0.916,-0.027,-0.042,1.002,0.001,-0.002,0.0,-897.4,159.18,-917.7,995.57,25.1,178.4
2025-11-03T07:01:52.964187,0.917,-0.029,-0.043,1.003,0.001,-0.001,0.0,-897.26,157.64,-917.28,995.59,25.1,178.31
2025-11-03T07:01:52.964975,0.917,-0.028,-0.041,1.002,0.001,-0.001,0.0,-897.26,157.64,-917.28,995.58,25.1,178.34
2025-11-03T07:01:52.965753,0.918,-0.027,-0.044,1.001,0.001,-0.002,0.0,-900.76,161.28,-918.12,995.61,25.1,178.06
2025-11-03T07:01:52.966576,0.919,-0.028,-0.043,1.002,0.001,-0.002,0.0,-902.44,161.28,-916.3,995.54,25.1,178.69
2025-11-03T07:01:52.967368,0.920,-0.028,-0.043,1.001,0.001,-0.002,0.0,-903.84,158.76,-912.1,995.64,25.1,177.83
2025-11-03T07:01:52.968182,0.921,-0.027,-0.042,1.002,0.001,-0.002,0.001,-905.94,159.32,-910.7,995.52,25.11,178.84
2025-11-03T07:01:52.968975,0.921,-0.029,-0.043,1.002,0.001,-0.002,0.001,-901.18,158.9,-917.0,995.58,25.11,178.36
2025-11-03T07:01:52.969764,0.922,-0.028,-0.043,1.003,0.001,-0.002,0.0,-903.84,159.88,-922.32,995.58,25.1,178.39
2025-11-03T07:01:52.970581,0.923,-0.028,-0.042,1.002,0.001,-0.002,0.0,-903.84,159.88,-920.92,995.58,25.1,178.39
2025-11-03T07:01:52.971417,0.924,-0.029,-0.042,1.003,0.001,-0.002,0.0,-901.74,158.76,-920.92,995.57,25.11,178.45
2025-11-03T07:01:52.972197,0.925,-0.029,-0.043,1.003,0.001,-0.002,0.0,-900.06,156.94,-917.56,995.56,25.1,178.52
2025-11-03T07:01:52.972970,0.925,-0.029,-0.043,1.001,0.002,-0.002,0.0,-902.16,162.96,-919.8,995.62,25.1,178.01
2025-11-03T07:01:52.973749,0.926,-0.028,-0.043,1.003,0.001,-0.002,0.0,-902.3,162.54,-915.18,995.55,25.11,178.57
2025-11-03T07:01:52.974544,0.927,-0.028,-0.042,1.002,0.001,-0.002,0.001,-897.54,160.3,-915.88,995.61,25.11,178.06
2025-11-03T07:01:52.975273,0.928,-0.029,-0.042,1.002,0.001,-0.002,0.0,-895.3,159.18,-917.42,995.59,25.1,178.26
2025-11-03T07:01:52.975906,0.928,-0.029,-0.042,1.002,0.001,-0.002,0.0,-895.3,159.46,-915.46,995.6,25.1,178.21
2025-11-03T07:01:52.976533,0.929,-0.029,-0.043,1.002,0.001,-0.002,0.0,-895.58,159.46,-915.46,995.57,25.1,178.4
2025-11-03T07:01:52.977196,0.930,-0.028,-0.042,1.002,0.001,-0.002,0.0,-896.28,162.26,-915.32,995.56,25.11,178.52
2025-11-03T07:01:52.977841,0.930,-0.029,-0.042,1.001,0.001,-0.001,0.0,-896.28,163.8,-919.38,995.65,25.11,177.76
2025-11-03T07:01:52.978500,0.931,-0.028,-0.042,1.002,0.002,-0.002,0.001,-898.52,162.82,-917.7,995.59,25.1,178.23
2025-11-03T07:01:52.979149,0.932,-0.028,-0.042,1.003,0.001,-0.002,0.0,-900.2,162.26,-913.64,995.6,25.1,178.18
2025-11-03T07:01:52.979780,0.932,-0.028,-0.044,1.002,0.001,-0.002,0.001,-901.74,162.54,-916.16,995.6,25.1,178.17
2025-11-03T07:01:52.980413,0.933,-0.027,-0.044,1.002,0.002,-0.002,0.0,-904.26,162.68,-919.1,995.64,25.1,177.83
2025-11-03T07:01:52.981043,0.933,-0.029,-0.042,1.003,0.001,-0.002,0.0,-904.26,162.68,-919.1,995.62,25.1,177.99
2025-11-03T07:01:52.981708,0.934,-0.029,-0.044,1.002,0.001,-0.002,0.0,-901.04,164.36,-920.5,995.65,25.1,177.76
2025-11-03T07:01:52.982354,0.935,-0.028,-0.043,1.003,0.002,-0.002,0.0,-902.3,163.52,-910.56,995.6,25.1,178.18
2025-11-03T07:01:52.982988,0.935,-0.027,-0.042,1.002,0.002,-0.002,0.0,-899.08,164.22,-911.12,995.57,25.11,178.42
2025-11-03T07:01:52.983615,0.936,-0.027,-0.042,1.002,0.001,-0.002,0.001,-903.0,161.7,-916.58,995.57,25.1,178.44
2025-11-03T07:01:52.984244,0.937,-0.028,-0.043,1.003,0.001,-0.002,0.0,-902.16,163.8,-912.94,995.55,25.1,178.63
2025-11-03T07:01:52.984866,0.937,-0.029,-0.043,1.003,0.001,-0.001,0.001,-900.06,160.86,-910.42,995.64,25.1,177.89
2025-11-03T07:01:52.985496,0.938,-0.027,-0.043,1.003,0.001,-0.002,0.0,-900.06,160.86,-910.42,995.62,25.1,178.02
2025-11-03T07:01:52.986126,0.939,-0.029,-0.042,1.003,0.001,-0.002,0.0,-896.98,158.34,-922.04,995.57,25.11,178.43
2025-11-03T07:01:52.986757,0.939,-0.028,-0.043,1.002,0.001,-0.002,0.0,-900.06,158.62,-907.2,995.63,25.11,177.97
2025-11-03T07:01:52.987389,0.940,-0.029,-0.042,1.004,0.001,-0.002,0.0,-898.52,161.28,-909.72,995.56,25.1,178.55
2025-11-03T07:01:52.988021,0.940,-0.028,-0.043,1.002,0.001,-0.002,0.0,-898.1,159.88,-915.74,995.61,25.11,178.12
2025-11-03T07:01:52.988680,0.941,-0.029,-0.043,1.003,0.001,-0.002,0.0,-897.96,158.76,-916.02,995.58,25.1,178.39
2025-11-03T07:01:52.989310,0.942,-0.028,-0.043,1.003,0.002,-0.002,0.0,-901.88,158.34,-915.88,995.58,25.1,178.36
2025-11-03T07:01:52.989981,0.942,-0.027,-0.042,1.002,0.001,-0.002,0.0,-901.88,158.34,-915.88,995.57,25.1,178.46
2025-11-03T07:01:52.990612,0.943,-0.029,-0.043,1.002,0.001,-0.002,0.0,-901.04,156.24,-921.62,995.57,25.1,178.42
2025-11-03T07:01:52.991232,0.944,-0.029,-0.042,1.003,0.001,-0.002,0.0,-899.5,159.6,-919.8,995.56,25.1,178.52
2025-11-03T07:01:52.991849,0.944,-0.028,-0.042,1.002,0.001,-0.002,0.0,-897.82,156.38,-919.1,995.6,25.11,178.16
2025-11-03T07:01:52.992504,0.945,-0.028,-0.043,1.002,0.001,-0.002,0.0,-902.44,160.3,-918.96,995.57,25.1,178.42
2025-11-03T07:01:52.993122,0.946,-0.029,-0.043,1.004,0.001,-0.002,0.0,-899.08,158.48,-914.48,995.58,25.1,178.36
2025-11-03T07:01:52.993748,0.946,-0.028,-0.044,1.002,0.001,-0.002,0.0,-900.76,157.64,-913.36,995.57,25.11,178.43
2025-11-03T07:01:52.994387,0.947,-0.028,-0.044,1.001,0.001,-0.002,0.001,-900.76,157.64,-913.36,995.65,25.1,177.79
2025-11-03T07:01:52.995024,0.947,-0.028,-0.044,1.002,0.001,-0.002,0.0,-897.12,158.48,-916.02,995.59,25.1,178.31
2025-11-03T07:01:52.995650,0.948,-0.027,-0.043,1.001,0.001,-0.002,0.0,-901.46,161.0,-918.4,995.57,25.11,178.45
2025-11-03T07:01:52.996274,0.949,-0.028,-0.042,1.002,0.002,-0.002,0.0,-899.22,163.94,-914.76,995.55,25.1,178.58
2025-11-03T07:01:52.996900,0.949,-0.028,-0.042,1.003,0.002,-0.002,0.001,-898.24,159.46,-912.66,995.56,25.1,178.49
2025-11-03T07:01:52.997527,0.950,-0.028,-0.044,1.003,0.001,-0.002,0.001,-898.94,160.86,-913.92,995.64,25.1,177.82
2025-11-03T07:01:52.998166,0.951,-0.029,-0.042,1.002,0.002,-0.002,0.001,-901.46,160.44,-911.96,995.64,25.11,177.87
2025-11-03T07:01:52.998816,0.951,-0.028,-0.042,1.003,0.001,-0.002,0.0,-901.46,160.44,-911.96,995.61,25.1,178.12
2025-11-03T07:01:52.999480,0.952,-0.03,-0.043,1.002,0.001,-0.002,0.0,-901.46,157.92,-907.76,995.56,25.11,178.53
2025-11-03T07:01:53.000097,0.952,-0.029,-0.043,1.003,0.001,-0.002,0.0,-901.18,161.28,-909.02,995.62,25.11,178.01
2025-11-03T07:01:53.000755,0.953,-0.028,-0.042,1.002,0.001,-0.002,0.0,-901.18,160.16,-907.2,995.55,25.1,178.65
2025-11-03T07:01:53.001378,0.954,-0.029,-0.041,1.003,0.001,-0.002,0.001,-902.58,161.14,-907.34,995.62,25.1,178.03
2025-11-03T07:01:53.002015,0.954,-0.028,-0.043,1.003,0.001,-0.002,0.001,-904.12,162.96,-909.86,995.6,25.11,178.17
2025-11-03T07:01:53.002638,0.955,-0.029,-0.043,1.004,0.001,-0.002,0.0,-898.8,157.5,-911.54,995.55,25.11,178.62
2025-11-03T07:01:53.003252,0.956,-0.029,-0.043,1.001,0.002,-0.002,0.0,-898.8,157.5,-911.54,995.54,25.1,178.7
2025-11-03T07:01:53.003909,0.956,-0.028,-0.043,1.002,0.002,-0.002,0.0,-901.32,159.32,-908.6,995.6,25.1,178.17
2025-11-03T07:01:53.004532,0.957,-0.03,-0.043,1.003,0.001,-0.001,0.001,-900.34,161.98,-908.6,995.52,25.11,178.82
2025-11-03T07:01:53.005162,0.958,-0.029,-0.042,1.002,0.001,-0.002,0.0,-905.52,158.76,-915.32,995.68,25.11,177.5
2025-11-03T07:01:53.005782,0.958,-0.028,-0.042,1.001,0.001,-0.002,0.001,-903.14,161.28,-912.1,995.59,25.11,178.27
2025-11-03T07:01:53.006427,0.959,-0.028,-0.042,1.002,0.001,-0.002,0.0,-905.38,160.72,-907.48,995.56,25.1,178.56
2025-11-03T07:01:53.007086,0.959,-0.03,-0.043,1.003,0.002,-0.002,0.001,-907.9,161.7,-911.68,995.62,25.1,178.05
2025-11-03T07:01:53.014873,0.967,-0.029,-0.041,1.001,0.002,-0.002,0.0,-907.9,161.7,-911.68,995.65,25.11,177.81
2025-11-03T07:01:53.025615,0.978,-0.028,-0.042,1.001,0.001,-0.002,0.0,-901.18,163.52,-901.6,995.63,25.1,177.94
2025-11-03T07:01:53.036659,0.989,-0.029,-0.043,1.002,0.001,-0.002,0.0,-905.38,164.78,-905.24,995.59,25.1,178.26
2025-11-03T07:01:53.047653,1.000,-0.028,-0.042,1.003,0.001,-0.002,0.0,-904.68,166.74,-905.38,995.59,25.11,178.3
2025-11-03T07:01:53.058563,1.011,-0.029,-0.043,1.001,0.001,-0.002,0.0,-905.38,165.76,-900.34,995.69,25.1,177.47
2025-11-03T07:01:53.069670,1.022,-0.029,-0.042,1.002,0.001,-0.002,0.0,-907.34,155.54,-911.68,995.57,25.11,178.4
2025-11-03T07:01:53.080626,1.033,-0.027,-0.043,1.001,0.001,-0.002,0.001,-902.02,162.4,-915.46,995.65,25.1,177.78
2025-11-03T07:01:53.091724,1.044,-0.029,-0.041,1.002,0.001,-0.002,0.0,-902.02,162.4,-915.46,995.62,25.1,178.02
2025-11-03T07:01:53.102795,1.055,-0.028,-0.044,1.002,0.001,-0.002,0.0,-900.34,162.68,-916.86,995.57,25.1,178.44
2025-11-03T07:01:53.113718,1.066,-0.029,-0.043,1.003,0.001,-0.001,0.0,-903.42,161.98,-914.9,995.54,25.1,178.71
2025-11-03T07:01:53.124745,1.077,-0.027,-0.041,1.001,0.001,-0.002,0.0,-898.94,162.82,-911.26,995.58,25.11,178.39
2025-11-03T07:01:53.135660,1.088,-0.028,-0.042,1.003,0.001,-0.002,0.0,-903.0,162.4,-917.7,995.61,25.1,178.12
2025-11-03T07:01:53.146718,1.099,-0.028,-0.043,1.002,0.001,-0.002,0.0,-897.68,160.58,-912.94,995.64,25.1,177.82
2025-11-03T07:01:53.157765,1.110,-0.028,-0.042,1.002,0.001,-0.002,0.0,-901.46,162.54,-915.04,995.59,25.1,178.27
2025-11-03T07:01:53.168661,1.121,-0.028,-0.043,1.001,0.001,-0.002,0.0,-901.46,162.54,-914.2,995.56,25.1,178.5
2025-11-03T07:01:53.179833,1.132,-0.03,-0.044,1.003,0.001,-0.002,0.001,-900.48,163.24,-914.2,995.58,25.1,178.36
2025-11-03T07:01:53.190764,1.143,-0.028,-0.042,1.003,0.001,-0.002,0.0,-903.84,159.18,-914.34,995.62,25.1,177.98
2025-11-03T07:01:53.201736,1.154,-0.029,-0.041,1.002,0.001,-0.002,0.0,-902.58,157.5,-913.64,995.61,25.1,178.08
2025-11-03T07:01:53.212775,1.165,-0.028,-0.042,1.002,0.001,-0.002,0.0,-903.14,160.86,-913.22,995.57,25.1,178.44
2025-11-03T07:01:53.223753,1.176,-0.028,-0.044,1.002,0.001,-0.002,0.0,-902.72,158.2,-906.92,995.57,25.1,178.43
2025-11-03T07:01:53.234722,1.187,-0.027,-0.043,1.002,0.001,-0.002,0.0,-901.88,161.28,-913.22,995.65,25.11,177.78
2025-11-03T07:01:53.245804,1.198,-0.028,-0.043,1.002,0.001,-0.002,0.0,-901.88,162.82,-905.24,995.62,25.1,178.01
2025-11-03T07:01:53.258441,1.211,-0.029,-0.043,1.002,0.002,-0.002,0.0,-898.38,162.82,-905.24,995.65,25.1,177.73
2025-11-03T07:01:53.267771,1.220,-0.029,-0.042,1.002,0.001,-0.002,0.0,-900.2,164.78,-913.08,995.54,25.11,178.68
2025-11-03T07:01:53.278808,1.231,-0.028,-0.042,1.003,0.001,-0.002,0.0,-899.5,165.2,-913.78,995.63,25.1,177.92
2025-11-03T07:01:53.289737,1.242,-0.029,-0.043,1.003,0.001,-0.002,0.0,-901.88,163.38,-914.2,995.56,25.1,178.54
2025-11-03T07:01:53.301273,1.254,-0.029,-0.043,1.002,0.001,-0.001,0.0,-904.82,161.7,-915.32,995.6,25.1,178.15
2025-11-03T07:01:53.311704,1.264,-0.028,-0.042,1.003,0.001,-0.002,0.001,-901.04,163.52,-917.56,995.63,25.11,177.9
2025-11-03T07:01:53.322714,1.275,-0.028,-0.043,1.002,0.001,-0.002,0.0,-902.58,162.12,-915.74,995.57,25.11,178.4
2025-11-03T07:01:53.333767,1.286,-0.029,-0.043,1.002,0.001,-0.002,0.0,-902.58,162.12,-915.74,995.58,25.1,178.32
2025-11-03T07:01:53.344662,1.297,-0.029,-0.044,1.001,0.002,-0.002,0.0,-900.2,161.98,-919.52,995.63,25.11,177.9
2025-11-03T07:01:53.355719,1.308,-0.028,-0.043,1.003,0.001,-0.002,0.0,-902.72,159.74,-915.32,995.62,25.1,178.01
2025-11-03T07:01:53.366820,1.319,-0.027,-0.043,1.003,0.002,-0.002,0.001,-903.7,161.0,-913.22,995.53,25.1,178.75
2025-11-03T07:01:53.377720,1.330,-0.029,-0.043,1.002,0.001,-0.002,0.0,-903.14,161.0,-916.86,995.66,25.11,177.7
2025-11-03T07:01:53.388784,1.341,-0.028,-0.043,1.002,0.001,-0.002,0.0,-900.2,163.1,-913.36,995.57,25.1,178.48
2025-11-03T07:01:53.399773,1.352,-0.028,-0.044,1.002,0.001,-0.002,0.0,-902.3,158.62,-912.66,995.61,25.1,178.13
2025-11-03T07:01:53.410828,1.363,-0.028,-0.043,1.003,0.002,-0.002,0.0,-902.3,158.62,-912.66,995.58,25.11,178.33
2025-11-03T07:01:53.422354,1.375,-0.029,-0.043,1.002,0.001,-0.002,0.0,-904.12,161.56,-915.6,995.57,25.11,178.46
2025-11-03T07:01:53.432724,1.385,-0.028,-0.043,1.003,0.001,-0.002,0.0,-904.12,162.82,-909.72,995.58,25.1,178.32
2025-11-03T07:01:53.444011,1.396,-0.028,-0.043,1.003,0.001,-0.002,0.0,-904.82,161.14,-917.0,995.61,25.1,178.14
2025-11-03T07:01:53.454887,1.407,-0.028,-0.041,1.003,0.002,-0.002,0.001,-903.28,161.28,-914.62,995.6,25.1,178.15
2025-11-03T07:01:53.466278,1.419,-0.028,-0.042,1.002,0.002,-0.002,0.0,-901.74,160.3,-908.46,995.59,25.1,178.31
2025-11-03T07:01:53.477334,1.430,-0.028,-0.043,1.003,0.001,-0.002,0.0,-900.48,160.16,-909.72,995.62,25.1,178.03
2025-11-03T07:01:53.487701,1.440,-0.028,-0.044,1.002,0.001,-0.002,0.001,-900.48,160.16,-909.72,995.66,25.1,177.69
2025-11-03T07:01:53.498929,1.451,-0.028,-0.042,1.003,0.002,-0.002,0.0,-905.52,161.7,-913.08,995.6,25.11,178.16
2025-11-03T07:01:53.509980,1.462,-0.028,-0.042,1.004,0.002,-0.002,0.0,-907.34,159.04,-913.08,995.54,25.1,178.72
2025-11-03T07:01:53.520514,1.473,-0.029,-0.043,1.002,0.001,-0.002,0.0,-900.76,158.48,-914.62,995.62,25.1,178.05
2025-11-03T07:01:53.531956,1.484,-0.028,-0.043,1.001,0.001,-0.002,0.0,-901.04,161.0,-910.84,995.59,25.1,178.26
2025-11-03T07:01:53.542670,1.495,-0.029,-0.043,1.003,0.001,-0.002,0.0,-904.68,160.44,-909.58,995.63,25.1,177.97
2025-11-03T07:01:53.553793,1.506,-0.027,-0.043,1.003,0.001,-0.002,0.0,-904.82,160.3,-908.04,995.5,25.1,179.05
2025-11-03T07:01:53.565108,1.517,-0.028,-0.042,1.001,0.002,-0.002,0.0,-904.82,160.3,-908.04,995.65,25.1,177.73
2025-11-03T07:01:53.576029,1.528,-0.029,-0.043,1.003,0.001,-0.002,0.0,-901.74,163.8,-906.92,995.59,25.1,178.26
2025-11-03T07:01:53.586580,1.539,-0.028,-0.043,1.003,0.001,-0.002,0.0,-901.74,159.46,-909.58,995.56,25.1,178.52
2025-11-03T07:01:53.597712,1.550,-0.028,-0.043,1.003,0.002,-0.002,0.0,-900.9,161.28,-914.34,995.63,25.1,177.89
2025-11-03T07:01:53.608590,1.561,-0.028,-0.042,1.0,0.001,-0.002,0.001,-902.44,158.62,-917.28,995.56,25.1,178.55
2025-11-03T07:01:53.619567,1.572,-0.029,-0.042,1.004,0.001,-0.002,0.0,-905.24,157.92,-914.62,995.52,25.1,178.83
2025-11-03T07:01:53.630704,1.583,-0.029,-0.043,1.002,0.002,-0.002,0.0,-903.56,162.96,-910.98,995.56,25.1,178.5
2025-11-03T07:01:53.641737,1.594,-0.027,-0.042,1.003,0.002,-0.002,0.0,-903.56,162.96,-910.98,995.6,25.1,178.2
2025-11-03T07:01:53.652784,1.605,-0.027,-0.044,1.002,0.001,-0.002,0.0,-903.56,160.86,-913.36,995.67,25.1,177.56
2025-11-03T07:01:53.663714,1.616,-0.028,-0.045,1.002,0.001,-0.002,0.0,-904.4,162.82,-911.54,995.6,25.1,178.17
2025-11-03T07:01:53.674771,1.627,-0.028,-0.043,1.002,0.001,-0.002,0.0,-901.88,161.84,-913.92,995.56,25.11,178.5
2025-11-03T07:01:53.685612,1.638,-0.029,-0.043,1.003,0.001,-0.002,0.001,-899.64,163.1,-914.48,995.64,25.1,177.84
2025-11-03T07:01:53.696609,1.649,-0.029,-0.042,1.003,0.001,-0.002,0.001,-901.74,158.48,-917.98,995.59,25.1,178.28
2025-11-03T07:01:53.707707,1.660,-0.028,-0.043,1.001,0.001,-0.002,0.0,-902.58,162.4,-914.34,995.6,25.1,178.21
2025-11-03T07:01:53.718898,1.671,-0.027,-0.042,1.002,0.002,-0.002,0.0,-902.58,162.4,-914.34,995.6,25.1,178.16
2025-11-03T07:01:53.729739,1.682,-0.028,-0.043,1.003,0.001,-0.002,0.0,-903.14,158.62,-913.92,995.58,25.1,178.34
2025-11-03T07:01:53.740753,1.693,-0.028,-0.042,1.003,0.001,-0.002,0.0,-904.12,161.98,-921.9,995.56,25.11,178.5
2025-11-03T07:01:53.751833,1.704,-0.028,-0.042,1.002,0.001,-0.002,0.001,-902.72,165.76,-914.34,995.61,25.1,178.1
2025-11-03T07:01:53.762815,1.715,-0.028,-0.043,1.003,0.001,-0.002,0.001,-906.08,160.58,-910.14,995.55,25.1,178.64
2025-11-03T07:01:53.773895,1.726,-0.028,-0.043,1.002,0.001,-0.002,0.001,-906.08,158.48,-911.54,995.58,25.1,178.39
2025-11-03T07:01:53.784668,1.737,-0.028,-0.043,1.002,0.001,-0.002,0.0,-904.54,160.72,-914.2,995.61,25.1,178.1
2025-11-03T07:01:53.795662,1.748,-0.027,-0.043,1.002,0.001,-0.002,0.0,-904.54,160.72,-914.2,995.61,25.1,178.13
2025-11-03T07:01:53.806739,1.759,-0.028,-0.044,1.003,0.001,-0.002,0.001,-905.1,158.48,-916.02,995.56,25.11,178.51
2025-11-03T07:01:53.817560,1.770,-0.028,-0.041,1.002,0.001,-0.002,0.001,-905.8,164.22,-913.92,995.61,25.11,178.11
2025-11-03T07:01:53.828595,1.781,-0.028,-0.043,1.002,0.001,-0.002,0.0,-904.4,160.86,-913.92,995.63,25.1,177.93
2025-11-03T07:01:53.839932,1.792,-0.027,-0.042,1.002,0.002,-0.002,0.0,-901.46,158.9,-909.02,995.64,25.11,177.86
2025-11-03T07:01:53.850603,1.803,-0.027,-0.043,1.002,0.002,-0.002,0.0,-900.06,156.24,-910.28,995.66,25.11,177.72
2025-11-03T07:01:53.861588,1.814,-0.028,-0.041,1.002,0.001,-0.002,0.0,-902.86,161.7,-911.54,995.5,25.1,179.0
2025-11-03T07:01:53.872728,1.825,-0.028,-0.042,1.002,0.001,-0.002,0.0,-902.86,161.7,-913.36,995.59,25.11,178.29
2025-11-03T07:01:53.883629,1.836,-0.028,-0.044,1.002,0.001,-0.002,0.0,-900.06,160.86,-913.36,995.56,25.1,178.51
2025-11-03T07:01:53.894780,1.847,-0.028,-0.043,1.002,0.001,-0.002,0.0,-903.7,162.26,-915.18,995.63,25.1,177.94
2025-11-03T07:01:53.905442,1.858,-0.029,-0.042,1.003,0.001,-0.002,0.0,-906.22,162.12,-909.3,995.65,25.1,177.75
2025-11-03T07:01:53.916658,1.869,-0.029,-0.043,1.003,0.001,-0.002,0.0,-903.56,162.12,-909.58,995.59,25.1,178.25
2025-11-03T07:01:53.927894,1.880,-0.028,-0.043,1.003,0.001,-0.002,0.0,-904.96,160.58,-910.0,995.59,25.1,178.3
2025-11-03T07:01:53.938498,1.891,-0.027,-0.042,1.002,0.001,-0.002,0.0,-902.86,159.6,-905.38,995.62,25.11,178.05
2025-11-03T07:01:53.949766,1.902,-0.029,-0.043,1.003,0.001,-0.001,0.0,-902.86,161.14,-908.46,995.5,25.1,179.01
2025-11-03T07:01:53.960507,1.913,-0.028,-0.043,1.002,0.002,-0.002,0.0,-902.02,161.14,-908.46,995.5,25.1,178.99
2025-11-03T07:01:53.971678,1.924,-0.027,-0.043,1.002,0.002,-0.002,0.0,-904.12,160.72,-912.66,995.46,25.11,179.33
2025-11-03T07:01:53.982823,1.935,-0.029,-0.043,1.003,0.001,-0.002,0.0,-902.16,160.16,-907.2,995.53,25.1,178.74
2025-11-03T07:01:53.993983,1.946,-0.029,-0.043,1.002,0.001,-0.002,0.0,-902.02,158.06,-903.56,995.65,25.1,177.8
2025-11-03T07:01:54.004538,1.957,-0.029,-0.043,1.001,0.001,-0.002,0.001,-902.72,158.06,-900.48,995.63,25.11,177.9
2025-11-03T07:01:54.015944,1.968,-0.028,-0.042,1.002,0.001,-0.002,0.0,-902.44,158.2,-907.06,995.58,25.1,178.35
2025-11-03T07:01:54.026863,1.979,-0.028,-0.043,1.003,0.002,-0.002,0.0,-906.08,159.04,-912.8,995.61,25.1,178.12
2025-11-03T07:01:54.037947,1.990,-0.028,-0.043,1.001,0.001,-0.002,0.0,-906.08,159.04,-912.8,995.53,25.1,178.81
2025-11-03T07:01:54.048816,2.001,-0.028,-0.043,1.003,0.001,-0.002,0.0,-907.9,161.42,-908.18,995.55,25.1,178.63
2025-11-03T07:01:54.059556,2.012,-0.028,-0.042,1.002,0.002,-0.002,0.0,-908.88,164.92,-909.3,995.59,25.11,178.28
2025-11-03T07:01:54.070802,2.023,-0.028,-0.043,1.001,0.002,-0.002,0.001,-908.18,162.4,-910.28,995.59,25.1,178.24
2025-11-03T07:01:54.081522,2.034,-0.029,-0.043,1.003,0.002,-0.002,0.001,-904.82,162.68,-913.22,995.71,25.11,177.29
2025-11-03T07:01:54.092906,2.045,-0.026,-0.042,1.002,0.001,-0.002,0.0,-904.4,164.22,-912.24,995.59,25.1,178.25
2025-11-03T07:01:54.103482,2.056,-0.028,-0.042,1.003,0.001,-0.002,0.001,-906.36,161.0,-909.58,995.6,25.1,178.19
2025-11-03T07:01:54.114970,2.067,-0.027,-0.043,1.002,0.002,-0.002,0.001,-906.36,161.0,-909.58,995.61,25.11,178.13
2025-11-03T07:01:54.125916,2.078,-0.028,-0.042,1.002,0.001,-0.002,0.0,-904.54,163.52,-907.48,995.66,25.1,177.66
2025-11-03T07:01:54.136505,2.089,-0.028,-0.043,1.002,0.001,-0.001,0.0,-904.68,158.62,-903.98,995.58,25.11,178.34
2025-11-03T07:01:54.147905,2.100,-0.029,-0.043,1.002,0.001,-0.002,0.0,-903.98,160.86,-907.9,995.54,25.1,178.72
2025-11-03T07:01:54.158513,2.111,-0.027,-0.043,1.003,0.001,-0.002,0.001,-903.56,161.98,-909.02,995.55,25.1,178.65
2025-11-03T07:01:54.169829,2.122,-0.027,-0.044,1.003,0.001,-0.002,0.0,-904.4,162.4,-905.38,995.62,25.1,178.01
2025-11-03T07:01:54.180692,2.133,-0.029,-0.043,1.002,0.001,-0.002,0.0,-900.48,158.2,-914.76,995.66,25.1,177.64
2025-11-03T07:01:54.191794,2.144,-0.028,-0.042,1.003,0.001,-0.002,0.0,-900.48,158.2,-914.76,995.59,25.1,178.24
2025-11-03T07:01:54.202538,2.155,-0.027,-0.043,1.003,0.001,-0.002,0.001,-906.64,159.04,-916.72,995.55,25.1,178.58
2025-11-03T07:01:54.214065,2.166,-0.029,-0.042,1.002,0.001,-0.002,0.001,-903.56,163.38,-910.98,995.54,25.11,178.67
2025-11-03T07:01:54.224499,2.177,-0.028,-0.043,1.003,0.001,-0.002,0.0,-900.06,161.28,-912.24,995.6,25.11,178.17
2025-11-03T07:01:54.235851,2.188,-0.028,-0.043,1.001,0.001,-0.002,0.0,-906.5,161.56,-916.58,995.61,25.1,178.1
2025-11-03T07:01:54.246696,2.199,-0.028,-0.042,1.003,0.001,-0.002,0.0,-904.4,162.82,-907.62,995.48,25.1,179.17
2025-11-03T07:01:54.339450,2.292,-0.029,-0.042,1.002,0.002,-0.002,0.001,-907.76,159.6,-913.08,995.61,25.1,178.11
2025-11-03T07:01:54.341378,2.294,-0.03,-0.043,1.002,0.002,-0.002,0.0,-907.76,159.6,-913.08,995.59,25.1,178.29
2025-11-03T07:01:54.342461,2.295,-0.028,-0.042,1.001,0.001,-0.002,0.0,-902.72,160.02,-912.94,995.56,25.11,178.49
2025-11-03T07:01:54.343124,2.296,-0.028,-0.043,1.003,0.001,-0.002,0.0,-906.22,160.72,-912.8,995.58,25.1,178.38
2025-11-03T07:01:54.343988,2.296,-0.027,-0.043,1.002,0.001,-0.002,0.0,-899.78,160.16,-913.78,995.51,25.11,178.94
2025-11-03T07:01:54.344708,2.297,-0.029,-0.043,1.003,0.001,-0.002,0.0,-900.9,159.46,-908.18,995.49,25.11,179.13
2025-11-03T07:01:54.345408,2.298,-0.028,-0.043,1.002,0.001,-0.001,0.0,-900.48,162.12,-908.74,995.6,25.11,178.2
2025-11-03T07:01:54.346055,2.298,-0.028,-0.043,1.002,0.001,-0.002,0.0,-902.58,163.66,-903.28,995.59,25.1,178.26
2025-11-03T07:01:54.346675,2.299,-0.028,-0.043,1.002,0.001,-0.002,0.0,-902.58,163.66,-903.28,995.59,25.1,178.26
2025-11-03T07:01:54.356632,2.309,-0.027,-0.042,1.003,0.001,-0.002,0.001,-903.14,162.82,-908.32,995.58,25.1,178.35
2025-11-03T07:01:54.367566,2.320,-0.027,-0.042,1.001,0.002,-0.002,0.0,-903.84,165.34,-911.12,995.56,25.1,178.54
2025-11-03T07:01:54.378799,2.331,-0.029,-0.042,1.002,0.001,-0.002,0.0,-898.38,168.0,-911.82,995.55,25.1,178.64
2025-11-03T07:01:54.389895,2.342,-0.028,-0.043,1.003,0.001,-0.002,0.0,-902.86,161.98,-913.5,995.52,25.1,178.89
2025-11-03T07:01:54.400800,2.353,-0.028,-0.043,1.003,0.001,-0.002,0.0,-904.4,163.52,-908.18,995.59,25.1,178.3
2025-11-03T07:01:54.411805,2.364,-0.028,-0.044,1.0,0.001,-0.002,0.0,-903.42,162.4,-911.12,995.62,25.11,178.04
2025-11-03T07:01:54.422567,2.375,-0.029,-0.044,1.001,0.001,-0.002,0.0,-903.42,162.4,-911.12,995.62,25.1,178.02
2025-11-03T07:01:54.433652,2.386,-0.028,-0.043,1.002,0.001,-0.002,0.001,-902.86,161.28,-910.56,995.62,25.11,178.0
2025-11-03T07:01:54.444543,2.397,-0.029,-0.045,1.003,0.001,-0.001,0.0,-902.16,161.42,-902.72,995.61,25.11,178.07
2025-11-03T07:01:54.455554,2.408,-0.029,-0.042,1.002,0.001,-0.002,0.0,-903.28,160.16,-909.72,995.56,25.11,178.54
2025-11-03T07:01:54.466641,2.419,-0.029,-0.042,1.003,0.001,-0.002,0.0,-902.86,163.24,-911.26,995.63,25.1,177.9
2025-11-03T07:01:54.477579,2.430,-0.028,-0.042,1.002,0.001,-0.002,0.0,-905.52,163.8,-905.38,995.64,25.1,177.89
2025-11-03T07:01:54.488613,2.441,-0.028,-0.042,1.003,0.001,-0.002,0.0,-898.24,161.14,-908.18,995.54,25.11,178.66
2025-11-03T07:01:54.499628,2.452,-0.027,-0.043,1.002,0.002,-0.002,0.0,-898.24,161.14,-908.18,995.58,25.1,178.34
2025-11-03T07:01:54.510603,2.463,-0.028,-0.044,1.003,0.001,-0.002,0.0,-902.16,161.56,-904.4,995.58,25.1,178.34
2025-11-03T07:01:54.521595,2.474,-0.028,-0.044,1.002,0.002,-0.002,0.0,-904.68,166.88,-909.72,995.61,25.11,178.11
2025-11-03T07:01:54.532487,2.485,-0.028,-0.043,1.004,0.001,-0.002,0.0,-907.9,163.38,-909.3,995.58,25.1,178.33
2025-11-03T07:01:54.543872,2.496,-0.028,-0.042,1.003,0.001,-0.002,0.0,-902.58,160.86,-910.42,995.59,25.1,178.31
2025-11-03T07:01:54.554549,2.507,-0.028,-0.043,1.003,0.001,-0.002,0.0,-903.0,161.14,-910.28,995.6,25.1,178.17
2025-11-03T07:01:54.565641,2.518,-0.029,-0.042,1.002,0.001,-0.002,0.001,-902.86,162.82,-912.52,995.55,25.1,178.59
2025-11-03T07:01:54.576647,2.529,-0.028,-0.041,1.002,0.001,-0.002,0.001,-902.86,162.82,-912.52,995.58,25.11,178.36
2025-11-03T07:01:54.587679,2.540,-0.028,-0.043,1.002,0.001,-0.002,0.0,-901.74,161.42,-908.04,995.59,25.1,178.27
2025-11-03T07:01:54.598552,2.551,-0.028,-0.044,1.002,0.002,-0.002,0.0,-901.74,164.36,-912.24,995.56,25.1,178.52
2025-11-03T07:01:54.609591,2.562,-0.029,-0.044,1.002,0.002,-0.002,0.0,-899.08,160.44,-911.26,995.66,25.11,177.67
2025-11-03T07:01:54.620551,2.573,-0.028,-0.043,1.002,0.001,-0.002,0.001,-901.04,163.66,-912.52,995.62,25.11,178.05
2025-11-03T07:01:54.631587,2.584,-0.028,-0.043,1.002,0.001,-0.001,0.001,-897.12,159.74,-912.94,995.55,25.1,178.61
2025-11-03T07:01:54.642662,2.595,-0.028,-0.043,1.002,0.002,-0.002,0.0,-899.36,160.72,-913.64,995.62,25.1,177.98
2025-11-03T07:01:54.653460,2.606,-0.029,-0.043,1.002,0.001,-0.002,0.0,-899.36,160.72,-912.38,995.58,25.1,178.36
2025-11-03T07:01:54.664640,2.617,-0.028,-0.044,1.003,0.001,-0.002,0.001,-897.4,161.0,-912.38,995.53,25.1,178.74
2025-11-03T07:01:54.675609,2.628,-0.028,-0.043,1.002,0.001,-0.002,0.0,-897.82,161.42,-912.66,995.57,25.1,178.44
2025-11-03T07:01:54.686638,2.639,-0.029,-0.043,1.003,0.001,-0.002,0.0,-900.34,165.62,-910.42,995.64,25.11,177.85
2025-11-03T07:01:54.697755,2.650,-0.028,-0.041,1.002,0.001,-0.002,0.0,-906.08,158.2,-912.94,995.59,25.1,178.31
2025-11-03T07:01:54.708650,2.661,-0.029,-0.043,1.002,0.002,-0.002,0.001,-901.74,162.96,-909.86,995.61,25.1,178.1
2025-11-03T07:01:54.719705,2.672,-0.029,-0.042,1.003,0.002,-0.002,0.0,-901.04,158.48,-911.96,995.57,25.1,178.47
2025-11-03T07:01:54.730789,2.683,-0.028,-0.043,1.002,0.001,-0.002,0.0,-901.04,158.62,-909.58,995.57,25.1,178.43
2025-11-03T07:01:54.741667,2.694,-0.029,-0.042,1.001,0.001,-0.002,0.0,-900.76,158.62,-909.58,995.65,25.1,177.78
2025-11-03T07:01:54.752727,2.705,-0.028,-0.042,1.003,0.001,-0.002,0.0,-904.26,160.3,-914.06,995.57,25.1,178.45
2025-11-03T07:01:54.763721,2.716,-0.029,-0.043,1.003,0.001,-0.002,0.0,-903.42,161.98,-904.68,995.6,25.11,178.23
2025-11-03T07:01:54.774721,2.727,-0.029,-0.043,1.003,0.001,-0.002,0.001,-902.86,161.42,-910.14,995.55,25.1,178.58
2025-11-03T07:01:54.785760,2.738,-0.028,-0.043,1.002,0.001,-0.002,0.001,-901.46,159.32,-905.1,995.62,25.11,178.04
2025-11-03T07:01:54.796649,2.749,-0.027,-0.044,1.001,0.001,-0.002,0.001,-902.72,160.72,-906.08,995.62,25.1,178.03
2025-11-03T07:01:54.807701,2.760,-0.029,-0.042,1.002,0.002,-0.002,0.001,-903.98,161.28,-908.74,995.54,25.1,178.66
2025-11-03T07:01:54.818776,2.771,-0.028,-0.043,1.002,0.001,-0.002,0.0,-903.98,161.28,-908.74,995.55,25.1,178.61
2025-11-03T07:01:54.829745,2.782,-0.029,-0.042,1.002,0.001,-0.002,0.0,-901.74,161.28,-911.54,995.58,25.1,178.33
2025-11-03T07:01:54.840861,2.793,-0.029,-0.043,1.003,0.001,-0.002,0.0,-900.62,160.16,-916.16,995.56,25.11,178.53
2025-11-03T07:01:54.851679,2.804,-0.029,-0.043,1.002,0.001,-0.002,0.001,-902.16,161.7,-909.3,995.62,25.1,177.99
2025-11-03T07:01:54.862628,2.815,-0.03,-0.044,1.002,0.001,-0.002,0.0,-902.3,163.38,-910.98,995.57,25.1,178.43
2025-11-03T07:01:54.873797,2.826,-0.028,-0.042,1.002,0.001,-0.002,0.0,-902.72,159.18,-904.68,995.6,25.1,178.22
2025-11-03T07:01:54.884705,2.837,-0.028,-0.043,1.002,0.001,-0.002,0.0,-901.88,155.96,-903.42,995.56,25.11,178.49
2025-11-03T07:01:54.895831,2.848,-0.028,-0.042,1.002,0.001,-0.002,0.0,-901.88,155.96,-903.42,995.57,25.11,178.45
2025-11-03T07:01:54.906648,2.859,-0.027,-0.043,1.002,0.001,-0.002,0.0,-903.42,162.12,-906.5,995.55,25.1,178.6
2025-11-03T07:01:54.917697,2.870,-0.027,-0.043,1.004,0.001,-0.002,0.001,-898.8,162.82,-901.18,995.68,25.11,177.55
2025-11-03T07:01:54.928842,2.881,-0.028,-0.044,1.002,0.001,-0.002,0.0,-902.44,162.68,-912.66,995.59,25.1,178.28
2025-11-03T07:01:54.939667,2.892,-0.028,-0.043,1.004,0.001,-0.002,0.0,-902.58,162.12,-912.66,995.51,25.1,178.96
2025-11-03T07:01:54.950713,2.903,-0.029,-0.042,1.002,0.001,-0.002,0.0,-902.58,162.4,-911.54,995.55,25.1,178.63
2025-11-03T07:01:54.961900,2.914,-0.027,-0.042,1.002,0.001,-0.002,0.0,-901.46,162.4,-909.02,995.5,25.1,179.05
2025-11-03T07:01:54.972671,2.925,-0.028,-0.043,1.003,0.001,-0.002,0.0,-901.46,162.4,-909.02,995.55,25.1,178.6
2025-11-03T07:01:54.983733,2.936,-0.029,-0.042,1.003,0.001,-0.002,0.0,-904.96,162.26,-907.62,995.59,25.11,178.26
2025-11-03T07:01:54.994713,2.947,-0.029,-0.043,1.002,0.001,-0.002,0.001,-907.2,163.94,-915.04,995.61,25.1,178.1
2025-11-03T07:01:55.005675,2.958,-0.028,-0.044,1.003,0.002,-0.002,0.0,-904.54,165.34,-906.36,995.58,25.1,178.38
2025-11-03T07:01:55.016742,2.969,-0.028,-0.042,1.004,0.001,-0.002,0.001,-905.1,165.06,-910.7,995.65,25.11,177.73
2025-11-03T07:01:55.027734,2.980,-0.029,-0.042,1.003,0.001,-0.002,0.0,-905.94,165.62,-908.04,995.68,25.1,177.55
2025-11-03T07:01:55.038697,2.991,-0.028,-0.044,1.002,0.001,-0.002,0.0,-903.7,161.56,-904.96,995.61,25.1,178.11
2025-11-03T07:01:55.049755,3.002,-0.029,-0.042,1.002,0.001,-0.002,0.0,-903.7,161.56,-904.96,995.59,25.1,178.27
2025-11-03T07:01:55.060553,3.013,-0.028,-0.043,1.002,0.001,-0.002,0.0,-904.82,159.74,-900.76,995.61,25.1,178.12
2025-11-03T07:01:55.071736,3.024,-0.028,-0.042,1.003,0.001,-0.002,0.0,-904.26,161.0,-902.72,995.63,25.1,177.96
2025-11-03T07:01:55.082691,3.035,-0.027,-0.043,1.003,0.001,-0.002,0.0,-902.86,163.38,-901.46,995.47,25.1,179.26
2025-11-03T07:01:55.093734,3.046,-0.028,-0.043,1.003,0.001,-0.001,0.0,-905.1,161.98,-899.92,995.63,25.1,177.97
2025-11-03T07:01:55.104737,3.057,-0.028,-0.044,1.001,0.001,-0.001,0.0,-905.1,162.4,-903.42,995.51,25.1,178.92
2025-11-03T07:01:55.115655,3.068,-0.028,-0.043,1.002,0.001,-0.002,0.001,-906.08,165.9,-903.42,995.62,25.11,178.04
2025-11-03T07:01:55.126699,3.079,-0.028,-0.043,1.002,0.001,-0.002,0.001,-906.08,165.9,-903.42,995.64,25.1,177.87
2025-11-03T07:01:55.137745,3.090,-0.028,-0.042,1.003,0.002,-0.002,0.001,-899.92,165.9,-903.56,995.6,25.1,178.16
2025-11-03T07:01:55.148647,3.101,-0.028,-0.042,1.002,0.001,-0.002,0.0,-903.28,165.48,-907.06,995.56,25.1,178.52
2025-11-03T07:01:55.159707,3.112,-0.028,-0.043,1.002,0.001,-0.002,0.0,-901.04,159.88,-907.34,995.63,25.1,177.95
2025-11-03T07:01:55.170773,3.123,-0.029,-0.044,1.003,0.001,-0.002,0.001,-902.72,164.64,-908.18,995.63,25.1,177.94
2025-11-03T07:01:55.181698,3.134,-0.028,-0.041,1.003,0.001,-0.002,0.001,-902.44,162.82,-910.56,995.66,25.1,177.68
2025-11-03T07:01:55.192713,3.145,-0.03,-0.043,1.002,0.001,-0.002,0.0,-902.02,163.52,-900.48,995.68,25.1,177.54
2025-11-03T07:01:55.203778,3.156,-0.027,-0.043,1.003,0.002,-0.002,0.001,-902.02,163.52,-900.48,995.6,25.1,178.18
2025-11-03T07:01:55.214675,3.167,-0.029,-0.042,1.002,0.001,-0.002,0.0,-902.02,160.72,-901.74,995.52,25.1,178.85
2025-11-03T07:01:55.225732,3.178,-0.028,-0.043,1.002,0.001,-0.002,0.0,-905.66,157.64,-901.32,995.56,25.1,178.53
2025-11-03T07:01:55.236638,3.189,-0.027,-0.042,1.003,0.001,-0.002,0.0,-902.72,164.78,-900.62,995.53,25.1,178.8
2025-11-03T07:01:55.247685,3.200,-0.029,-0.042,1.003,0.001,-0.002,0.0,-899.5,162.26,-903.42,995.61,25.11,178.13
2025-11-03T07:01:55.258887,3.211,-0.029,-0.043,1.003,0.001,-0.002,0.0,-901.88,164.5,-894.6,995.56,25.1,178.55
2025-11-03T07:01:55.269443,3.222,-0.028,-0.043,1.002,0.001,-0.002,0.0,-903.56,165.48,-896.42,995.56,25.1,178.56
2025-11-03T07:01:55.280792,3.233,-0.029,-0.042,1.001,0.001,-0.001,0.0,-903.56,165.48,-896.42,995.58,25.1,178.39
2025-11-03T07:01:55.291777,3.244,-0.028,-0.042,1.002,0.001,-0.002,0.0,-905.94,161.56,-896.84,995.59,25.11,178.26
2025-11-03T07:01:55.302667,3.255,-0.028,-0.042,1.001,0.001,-0.002,0.0,-902.44,164.78,-902.16,995.65,25.1,177.78
2025-11-03T07:01:55.313847,3.266,-0.028,-0.043,1.003,0.001,-0.002,0.0,-905.8,161.14,-900.34,995.58,25.1,178.34
2025-11-03T07:01:55.324612,3.277,-0.029,-0.043,1.002,0.001,-0.002,0.0,-904.4,162.12,-900.9,995.51,25.1,178.91
2025-11-03T07:01:55.335698,3.288,-0.028,-0.043,1.001,0.001,-0.002,0.0,-902.72,161.42,-899.92,995.57,25.1,178.46
2025-11-03T07:01:55.346761,3.299,-0.029,-0.043,1.002,0.002,-0.002,0.0,-905.1,157.92,-898.1,995.53,25.1,178.77
2025-11-03T07:01:55.357626,3.310,-0.028,-0.041,1.002,0.002,-0.002,0.0,-905.1,157.92,-898.1,995.58,25.1,178.33
2025-11-03T07:01:55.368710,3.321,-0.028,-0.043,1.002,0.001,-0.002,0.0,-898.66,158.62,-902.16,995.6,25.11,178.17
2025-11-03T07:01:55.379839,3.332,-0.028,-0.043,1.002,0.002,-0.002,0.0,-906.22,161.14,-896.56,995.57,25.1,178.43
2025-11-03T07:01:55.390647,3.343,-0.028,-0.043,1.003,0.002,-0.002,0.0,-907.34,160.16,-898.94,995.61,25.1,178.09
2025-11-03T07:01:55.401793,3.354,-0.028,-0.043,1.002,0.001,-0.002,0.0,-903.7,161.14,-909.44,995.58,25.1,178.38
2025-11-03T07:01:55.412769,3.365,-0.028,-0.043,1.003,0.001,-0.002,0.001,-906.78,160.72,-905.8,995.59,25.1,178.27
2025-11-03T07:01:55.423764,3.376,-0.027,-0.042,1.002,0.002,-0.002,0.0,-904.12,161.56,-906.64,995.58,25.1,178.37
2025-11-03T07:01:55.434698,3.387,-0.028,-0.044,1.003,0.001,-0.002,0.0,-904.12,161.56,-910.28,995.57,25.11,178.43
2025-11-03T07:01:55.445781,3.398,-0.027,-0.043,1.002,0.001,-0.002,0.001,-900.9,159.46,-910.28,995.67,25.11,177.61
2025-11-03T07:01:55.456679,3.409,-0.028,-0.043,1.002,0.002,-0.002,0.001,-898.38,160.58,-905.8,995.6,25.1,178.16
2025-11-03T07:01:55.467751,3.420,-0.028,-0.043,1.002,0.001,-0.002,0.0,-902.44,160.16,-904.82,995.58,25.1,178.32
2025-11-03T07:01:55.478623,3.431,-0.029,-0.042,1.002,0.001,-0.002,0.0,-901.46,157.22,-911.68,995.69,25.1,177.4
2025-11-03T07:01:55.489691,3.442,-0.027,-0.045,1.003,0.001,-0.002,0.0,-903.14,153.58,-905.66,995.59,25.11,178.3
2025-11-03T07:01:55.500749,3.453,-0.028,-0.043,1.002,0.001,-0.002,0.0,-900.9,160.72,-909.16,995.61,25.11,178.12
2025-11-03T07:01:55.511650,3.464,-0.028,-0.043,1.003,0.001,-0.002,0.0,-900.9,161.7,-910.7,995.61,25.1,178.07
2025-11-03T07:01:55.522708,3.475,-0.028,-0.043,1.003,0.002,-0.002,0.0,-898.1,161.7,-910.7,995.62,25.1,178.02
2025-11-03T07:01:55.533600,3.486,-0.028,-0.043,1.003,0.001,-0.002,0.0,-901.18,158.9,-908.18,995.57,25.1,178.46
2025-11-03T07:01:55.544664,3.497,-0.028,-0.042,1.003,0.001,-0.002,0.0,-898.8,157.36,-903.7,995.56,25.1,178.51
2025-11-03T07:01:55.555745,3.508,-0.029,-0.042,1.003,0.001,-0.002,0.0,-905.52,159.32,-905.94,995.6,25.1,178.21
2025-11-03T07:01:55.566640,3.519,-0.029,-0.043,1.002,0.001,-0.002,0.0,-903.28,161.7,-902.3,995.62,25.1,178.03
2025-11-03T07:01:55.577775,3.530,-0.028,-0.043,1.002,0.001,-0.002,0.0,-899.36,159.04,-904.68,995.64,25.11,177.86
2025-11-03T07:01:55.588769,3.541,-0.028,-0.042,1.003,0.001,-0.002,0.0,-898.38,157.5,-909.58,995.54,25.1,178.71
2025-11-03T07:01:55.599641,3.552,-0.027,-0.043,1.002,0.001,-0.002,0.0,-898.38,157.5,-909.58,995.55,25.1,178.58
2025-11-03T07:01:55.610722,3.563,-0.028,-0.042,1.002,0.001,-0.002,0.0,-902.02,159.6,-905.8,995.59,25.1,178.24
2025-11-03T07:01:55.621761,3.574,-0.028,-0.043,1.002,0.002,-0.002,0.0,-898.66,157.92,-906.08,995.53,25.1,178.74
2025-11-03T07:01:55.632672,3.585,-0.029,-0.042,1.002,0.002,-0.002,0.0,-902.02,159.6,-909.72,995.53,25.1,178.74
2025-11-03T07:01:55.643755,3.596,-0.028,-0.043,1.003,0.001,-0.002,0.0,-902.44,158.2,-906.78,995.56,25.1,178.55
2025-11-03T07:01:55.654626,3.607,-0.029,-0.042,1.003,0.001,-0.002,0.0,-896.98,160.58,-905.24,995.62,25.11,178.05
2025-11-03T07:01:55.665675,3.618,-0.028,-0.043,1.002,0.002,-0.002,0.001,-900.76,161.56,-902.72,995.59,25.1,178.28
2025-11-03T07:01:55.676733,3.629,-0.028,-0.042,1.002,0.001,-0.002,0.001,-900.76,161.56,-902.72,995.64,25.11,177.88
2025-11-03T07:01:55.687646,3.640,-0.029,-0.043,1.002,0.001,-0.002,0.001,-904.96,158.62,-911.82,995.57,25.11,178.45
2025-11-03T07:01:55.698703,3.651,-0.028,-0.043,1.002,0.001,-0.002,0.0,-901.32,160.86,-906.08,995.54,25.1,178.73
2025-11-03T07:01:55.709752,3.662,-0.029,-0.043,1.003,0.001,-0.002,0.0,-901.74,157.92,-901.74,995.57,25.1,178.45
2025-11-03T07:01:55.720655,3.673,-0.029,-0.043,1.002,0.001,-0.002,0.0,-905.66,154.98,-903.84,995.58,25.1,178.36
2025-11-03T07:01:55.731716,3.684,-0.028,-0.043,1.002,0.001,-0.002,0.001,-902.72,160.58,-898.66,995.62,25.1,178.02
2025-11-03T07:01:55.742604,3.695,-0.028,-0.043,1.005,0.001,-0.002,0.0,-899.64,158.34,-902.16,995.63,25.1,177.93
2025-11-03T07:01:55.753665,3.706,-0.028,-0.043,1.003,0.001,-0.002,0.0,-899.64,158.34,-902.16,995.59,25.1,178.26
2025-11-03T07:01:55.764745,3.717,-0.028,-0.044,1.001,0.002,-0.002,0.0,-902.16,163.66,-903.84,995.62,25.1,177.98
2025-11-03T07:01:55.775620,3.728,-0.028,-0.044,1.003,0.001,-0.002,0.0,-905.1,162.68,-904.4,995.57,25.1,178.47
2025-11-03T07:01:55.786683,3.739,-0.027,-0.043,1.004,0.001,-0.002,0.0,-903.84,162.96,-900.06,995.62,25.1,178.04
2025-11-03T07:01:55.798877,3.751,-0.027,-0.042,1.003,0.001,-0.002,0.001,-904.4,162.82,-905.66,995.6,25.1,178.16
2025-11-03T07:01:55.808870,3.761,-0.028,-0.043,1.003,0.001,-0.002,0.001,-900.9,163.66,-905.38,995.58,25.1,178.38
2025-11-03T07:01:55.819966,3.772,-0.029,-0.043,1.002,0.001,-0.002,0.001,-903.42,162.4,-904.82,995.57,25.1,178.42
2025-11-03T07:01:55.830963,3.783,-0.028,-0.044,1.003,0.001,-0.001,0.0,-903.42,162.4,-904.82,995.54,25.1,178.71
2025-11-03T07:01:55.841769,3.794,-0.028,-0.042,1.002,0.001,-0.002,0.0,-902.3,159.74,-904.4,995.59,25.1,178.25
2025-11-03T07:01:55.852820,3.805,-0.029,-0.042,1.002,0.002,-0.003,0.0,-904.82,163.1,-908.6,995.62,25.1,178.03
2025-11-03T07:01:55.863817,3.816,-0.028,-0.043,1.002,0.001,-0.002,0.0,-900.06,167.16,-908.04,995.57,25.1,178.44
2025-11-03T07:01:55.874531,3.827,-0.028,-0.042,1.002,0.001,-0.002,0.001,-902.72,168.84,-907.34,995.62,25.1,178.05
2025-11-03T07:01:55.885800,3.838,-0.028,-0.043,1.002,0.001,-0.002,0.0,-902.86,161.7,-907.34,995.66,25.1,177.69
2025-11-03T07:01:55.896719,3.849,-0.029,-0.043,1.003,0.001,-0.002,0.0,-903.98,161.84,-905.38,995.58,25.11,178.38
2025-11-03T07:01:55.907553,3.860,-0.029,-0.043,1.002,0.002,-0.002,0.001,-903.98,161.84,-905.38,995.54,25.11,178.66
2025-11-03T07:01:55.918533,3.871,-0.028,-0.043,1.002,0.001,-0.002,0.0,-902.86,164.08,-909.3,995.56,25.1,178.56
2025-11-03T07:01:55.929876,3.882,-0.028,-0.042,1.002,0.001,-0.002,0.001,-902.3,158.06,-907.48,995.57,25.1,178.45
2025-11-03T07:01:55.940589,3.893,-0.027,-0.043,1.002,0.002,-0.002,0.0,-906.36,161.7,-911.4,995.54,25.1,178.68
2025-11-03T07:01:55.951725,3.904,-0.029,-0.042,1.002,0.001,-0.002,0.0,-903.98,162.4,-907.76,995.56,25.1,178.56
2025-11-03T07:01:55.962665,3.915,-0.028,-0.043,1.003,0.001,-0.002,0.0,-899.78,162.54,-912.1,995.63,25.1,177.92
2025-11-03T07:01:55.973724,3.926,-0.028,-0.041,1.002,0.002,-0.002,0.0,-903.42,161.14,-910.56,995.59,25.1,178.31
2025-11-03T07:01:55.984885,3.937,-0.028,-0.043,1.003,0.001,-0.002,0.0,-903.42,161.14,-910.56,995.64,25.1,177.83
2025-11-03T07:01:55.995877,3.948,-0.028,-0.042,1.003,0.001,-0.002,0.0,-903.84,162.68,-910.98,995.6,25.1,178.2
2025-11-03T07:01:56.006676,3.959,-0.028,-0.043,1.003,0.002,-0.002,0.0,-902.16,161.14,-909.72,995.61,25.1,178.1
2025-11-03T07:01:56.017859,3.970,-0.029,-0.043,1.001,0.001,-0.002,0.0,-904.68,162.54,-914.06,995.59,25.1,178.28
2025-11-03T07:01:56.028638,3.981,-0.027,-0.042,1.003,0.001,-0.002,0.0,-900.9,161.0,-914.9,995.49,25.1,179.08
2025-11-03T07:01:56.039675,3.992,-0.028,-0.043,1.003,0.001,-0.002,0.0,-902.02,160.02,-905.8,995.57,25.11,178.45
2025-11-03T07:01:56.050733,4.003,-0.028,-0.043,1.003,0.002,-0.002,0.0,-899.22,161.28,-908.46,995.57,25.11,178.4
2025-11-03T07:01:56.061714,4.014,-0.028,-0.044,1.001,0.001,-0.002,0.0,-899.22,161.28,-908.46,995.6,25.11,178.15
2025-11-03T07:01:56.072678,4.025,-0.027,-0.042,1.001,0.001,-0.002,0.0,-903.7,165.06,-908.74,995.58,25.1,178.35
2025-11-03T07:01:56.083751,4.036,-0.03,-0.042,1.002,0.001,-0.002,0.0,-901.18,162.96,-908.6,995.64,25.11,177.84
2025-11-03T07:01:56.094620,4.047,-0.028,-0.042,1.003,0.001,-0.002,0.0,-905.24,162.12,-908.32,995.54,25.11,178.7
2025-11-03T07:01:56.105703,4.058,-0.029,-0.043,1.003,0.001,-0.002,0.0,-901.88,162.82,-908.6,995.56,25.11,178.53
2025-11-03T07:01:56.116744,4.069,-0.028,-0.043,1.002,0.001,-0.002,0.0,-901.32,161.84,-910.0,995.64,25.11,177.86
2025-11-03T07:01:56.127638,4.080,-0.029,-0.043,1.002,0.002,-0.002,0.0,-899.78,164.5,-906.5,995.56,25.11,178.53
2025-11-03T07:01:56.138687,4.091,-0.027,-0.042,1.003,0.001,-0.002,0.0,-899.78,164.5,-906.5,995.64,25.1,177.88
2025-11-03T07:01:56.149754,4.102,-0.029,-0.043,1.003,0.002,-0.002,0.0,-903.7,160.02,-905.8,995.52,25.1,178.9
2025-11-03T07:01:56.160751,4.113,-0.029,-0.042,1.002,0.002,-0.002,0.0,-900.62,159.46,-903.14,995.53,25.1,178.79
2025-11-03T07:01:56.171729,4.124,-0.028,-0.044,1.001,0.001,-0.002,0.001,-902.3,160.02,-906.22,995.59,25.1,178.24
2025-11-03T07:01:56.182760,4.135,-0.028,-0.042,1.003,0.001,-0.002,0.001,-904.12,159.32,-900.06,995.65,25.1,177.78
2025-11-03T07:01:56.193664,4.146,-0.028,-0.043,1.003,0.002,-0.002,0.0,-899.64,160.3,-913.64,995.62,25.1,178.04
2025-11-03T07:01:56.204745,4.157,-0.028,-0.043,1.002,0.001,-0.002,0.0,-906.36,163.66,-912.66,995.62,25.1,178.05
2025-11-03T07:01:56.215895,4.168,-0.028,-0.044,1.002,0.001,-0.002,0.001,-906.36,163.66,-905.8,995.61,25.1,178.08
2025-11-03T07:01:56.226660,4.179,-0.028,-0.044,1.002,0.002,-0.002,0.001,-902.02,163.8,-905.8,995.45,25.1,179.46
2025-11-03T07:01:56.237705,4.190,-0.029,-0.043,1.002,0.001,-0.002,0.0,-905.8,161.0,-903.14,995.56,25.1,178.51
2025-11-03T07:01:56.248775,4.201,-0.029,-0.043,1.003,0.001,-0.002,0.0,-904.96,160.3,-903.28,995.6,25.11,178.18
2025-11-03T07:01:56.259666,4.212,-0.028,-0.043,1.003,0.001,-0.002,0.0,-900.34,162.4,-902.58,995.58,25.1,178.38
2025-11-03T07:01:56.270725,4.223,-0.029,-0.042,1.003,0.001,-0.002,0.001,-900.48,161.7,-901.6,995.6,25.1,178.2
2025-11-03T07:01:56.281610,4.234,-0.029,-0.043,1.003,0.001,-0.002,0.0,-898.52,161.98,-909.16,995.54,25.1,178.69
2025-11-03T07:01:56.292664,4.245,-0.028,-0.043,1.003,0.002,-0.002,0.0,-898.52,157.36,-900.9,995.53,25.1,178.76
2025-11-03T07:01:56.303717,4.256,-0.029,-0.041,1.003,0.001,-0.002,0.001,-903.7,157.36,-900.9,995.59,25.11,178.29
2025-11-03T07:01:56.314625,4.267,-0.028,-0.042,1.001,0.002,-0.002,0.0,-903.56,158.34,-908.46,995.59,25.11,178.25
2025-11-03T07:01:56.325680,4.278,-0.028,-0.042,1.002,0.002,-0.002,0.0,-902.44,159.74,-911.4,995.58,25.11,178.32
2025-11-03T07:01:56.336741,4.289,-0.028,-0.043,1.003,0.001,-0.002,0.0,-906.78,162.82,-909.44,995.54,25.1,178.73
2025-11-03T07:01:56.347639,4.300,-0.028,-0.043,1.002,0.002,-0.002,0.0,-900.9,159.6,-906.36,995.54,25.1,178.67
2025-11-03T07:01:56.358680,4.311,-0.029,-0.044,1.003,0.001,-0.002,0.0,-904.4,163.66,-907.62,995.58,25.11,178.35
2025-11-03T07:01:56.369754,4.322,-0.029,-0.043,1.002,0.001,-0.002,0.0,-901.32,158.76,-908.04,995.57,25.1,178.44
2025-11-03T07:01:56.380633,4.333,-0.028,-0.043,1.002,0.002,-0.002,0.0,-901.32,158.76,-908.04,995.6,25.1,178.18
2025-11-03T07:01:56.391687,4.344,-0.028,-0.042,1.002,0.002,-0.002,0.0,-902.16,161.42,-910.0,995.54,25.1,178.69
2025-11-03T07:01:56.402867,4.355,-0.028,-0.043,1.003,0.001,-0.002,0.0,-898.1,165.2,-910.0,995.61,25.1,178.07
2025-11-03T07:01:56.413652,4.366,-0.028,-0.043,1.001,0.001,-0.002,0.0,-900.9,161.7,-907.2,995.57,25.1,178.46
2025-11-03T07:01:56.424688,4.377,-0.029,-0.044,1.002,0.001,-0.002,0.0,-901.88,159.18,-910.42,995.55,25.11,178.6
2025-11-03T07:01:56.435602,4.388,-0.027,-0.043,1.003,0.001,-0.002,0.0,-904.12,157.92,-908.18,995.59,25.1,178.29
2025-11-03T07:01:56.446646,4.399,-0.028,-0.044,1.003,0.001,-0.002,0.001,-901.74,159.46,-916.44,995.57,25.1,178.4
2025-11-03T07:01:56.507075,4.459,-0.028,-0.042,1.003,0.001,-0.002,0.0,-901.74,159.46,-916.44,995.59,25.1,178.26
2025-11-03T07:01:56.507847,4.460,-0.029,-0.043,1.001,0.002,-0.002,0.0,-901.18,162.68,-916.44,995.54,25.1,178.7
2025-11-03T07:01:56.508503,4.461,-0.029,-0.043,1.003,0.002,-0.002,0.0,-901.74,160.16,-910.98,995.57,25.11,178.42
2025-11-03T07:01:56.509129,4.462,-0.028,-0.043,1.002,0.001,-0.002,0.0,-900.34,158.76,-910.98,995.56,25.1,178.53
2025-11-03T07:01:56.509757,4.462,-0.028,-0.043,1.003,0.001,-0.002,0.0,-903.7,165.48,-919.1,995.63,25.11,177.94
2025-11-03T07:01:56.512462,4.465,-0.029,-0.043,1.003,0.002,-0.002,0.0,-901.88,163.94,-910.28,995.53,25.1,178.78
2025-11-03T07:01:56.523558,4.476,-0.029,-0.043,1.003,0.001,-0.002,0.001,-902.16,161.7,-908.74,995.65,25.11,177.75
2025-11-03T07:01:56.534591,4.487,-0.029,-0.044,1.002,0.001,-0.002,0.0,-902.16,161.7,-908.74,995.58,25.11,178.39
2025-11-03T07:01:56.545497,4.498,-0.029,-0.042,1.003,0.001,-0.001,0.001,-902.58,158.34,-906.64,995.55,25.11,178.59
2025-11-03T07:01:56.556420,4.509,-0.028,-0.043,1.003,0.001,-0.002,0.0,-902.16,158.34,-910.56,995.61,25.1,178.12
2025-11-03T07:01:56.567450,4.520,-0.028,-0.043,1.002,0.001,-0.002,0.0,-904.54,159.32,-912.94,995.63,25.11,177.9
2025-11-03T07:01:56.578953,4.531,-0.028,-0.042,1.002,0.001,-0.002,0.0,-903.14,159.6,-906.36,995.57,25.1,178.4
2025-11-03T07:01:56.589891,4.542,-0.028,-0.042,1.002,0.001,-0.001,0.001,-905.94,165.76,-909.72,995.57,25.1,178.42
2025-11-03T07:01:56.600512,4.553,-0.028,-0.044,1.001,0.001,-0.002,0.0,-901.46,163.24,-900.06,995.59,25.1,178.27
2025-11-03T07:01:56.611573,4.564,-0.027,-0.042,1.003,0.001,-0.002,0.001,-901.46,163.24,-900.06,995.52,25.1,178.9
2025-11-03T07:01:56.622433,4.575,-0.028,-0.043,1.002,0.001,-0.002,0.0,-904.54,162.96,-911.68,995.52,25.1,178.87
2025-11-03T07:01:56.633698,4.586,-0.029,-0.043,1.001,0.001,-0.002,0.0,-899.92,159.74,-906.08,995.58,25.1,178.35
2025-11-03T07:01:56.644555,4.597,-0.028,-0.042,1.002,0.001,-0.002,0.0,-899.78,156.66,-905.52,995.63,25.1,177.9
2025-11-03T07:01:56.655491,4.608,-0.029,-0.043,1.002,0.001,-0.002,0.0,-897.68,160.86,-910.42,995.53,25.1,178.78
2025-11-03T07:01:56.666492,4.619,-0.029,-0.042,1.002,0.001,-0.002,0.001,-902.58,162.54,-905.24,995.65,25.11,177.76
2025-11-03T07:01:56.677388,4.630,-0.029,-0.043,1.004,0.001,-0.002,0.0,-898.1,161.0,-910.42,995.61,25.11,178.11
2025-11-03T07:01:56.688537,4.641,-0.028,-0.043,1.002,0.002,-0.002,0.0,-898.1,161.0,-910.42,995.54,25.1,178.65
2025-11-03T07:01:56.699624,4.652,-0.027,-0.042,1.002,0.001,-0.002,0.0,-897.82,161.28,-911.96,995.61,25.11,178.14
2025-11-03T07:01:56.710620,4.663,-0.027,-0.043,1.002,0.001,-0.002,0.001,-901.88,160.02,-907.2,995.64,25.1,177.83
2025-11-03T07:01:56.721526,4.674,-0.03,-0.043,1.003,0.001,-0.002,0.0,-899.5,154.56,-909.02,995.49,25.11,179.14
2025-11-03T07:01:56.732844,4.685,-0.029,-0.042,1.002,0.001,-0.002,0.001,-904.12,157.22,-917.7,995.52,25.1,178.87
2025-11-03T07:01:56.743645,4.696,-0.029,-0.044,1.003,0.002,-0.002,0.0,-903.56,155.96,-914.9,995.55,25.1,178.57
2025-11-03T07:01:56.754769,4.707,-0.028,-0.044,1.002,0.002,-0.002,0.0,-902.86,162.26,-915.46,995.57,25.1,178.42
2025-11-03T07:01:56.765742,4.718,-0.029,-0.043,1.002,0.001,-0.002,0.0,-902.86,162.26,-915.46,995.63,25.1,177.92
2025-11-03T07:01:56.776651,4.729,-0.027,-0.042,1.001,0.001,-0.002,0.0,-904.54,161.42,-913.22,995.53,25.1,178.75
2025-11-03T07:01:56.787766,4.740,-0.028,-0.042,1.003,0.001,-0.002,0.0,-900.9,158.76,-906.36,995.57,25.11,178.4
2025-11-03T07:01:56.798760,4.751,-0.029,-0.043,1.002,0.001,-0.002,0.0,-900.9,159.46,-908.18,995.57,25.1,178.47
2025-11-03T07:01:56.809653,4.762,-0.027,-0.043,1.002,0.001,-0.002,0.0,-903.0,157.64,-911.12,995.65,25.1,177.76
2025-11-03T07:01:56.820701,4.773,-0.028,-0.042,1.003,0.001,-0.002,0.0,-901.74,158.06,-909.86,995.58,25.1,178.35
2025-11-03T07:01:56.831778,4.784,-0.028,-0.042,1.002,0.001,-0.002,0.0,-900.48,155.68,-912.52,995.54,25.1,178.71
2025-11-03T07:01:56.842660,4.795,-0.028,-0.043,1.002,0.001,-0.002,0.0,-900.48,155.68,-912.52,995.56,25.11,178.52
2025-11-03T07:01:56.853714,4.806,-0.029,-0.043,1.002,0.002,-0.002,0.0,-906.5,156.24,-917.14,995.53,25.1,178.78
2025-11-03T07:01:56.864651,4.817,-0.03,-0.043,1.002,0.001,-0.002,0.0,-900.34,160.58,-910.14,995.54,25.1,178.73
2025-11-03T07:01:56.875457,4.828,-0.028,-0.043,1.002,0.001,-0.002,0.0,-901.32,155.26,-917.0,995.57,25.1,178.4
2025-11-03T07:01:56.886863,4.839,-0.029,-0.042,1.002,0.001,-0.002,0.001,-901.46,156.24,-912.8,995.55,25.1,178.63
2025-11-03T07:01:56.897627,4.850,-0.027,-0.043,1.003,0.002,-0.002,0.0,-901.18,157.78,-912.52,995.59,25.1,178.27
2025-11-03T07:01:56.908700,4.861,-0.029,-0.043,1.003,0.001,-0.002,0.0,-905.66,151.9,-909.58,995.57,25.11,178.43
2025-11-03T07:01:56.919752,4.872,-0.028,-0.043,1.002,0.001,-0.002,0.0,-905.66,151.9,-909.02,995.59,25.11,178.27
2025-11-03T07:01:56.930638,4.883,-0.028,-0.043,1.003,0.001,-0.002,0.0,-902.86,158.48,-909.02,995.55,25.1,178.58
2025-11-03T07:01:56.941712,4.894,-0.029,-0.043,1.003,0.002,-0.002,0.0,-903.98,156.38,-914.9,995.58,25.11,178.32
2025-11-03T07:01:56.952735,4.905,-0.028,-0.043,1.003,0.002,-0.002,0.0,-903.28,160.16,-909.86,995.56,25.1,178.57
2025-11-03T07:01:56.963652,4.916,-0.027,-0.042,1.003,0.001,-0.002,0.0,-902.86,160.72,-913.36,995.58,25.11,178.33
2025-11-03T07:01:56.974702,4.927,-0.029,-0.042,1.003,0.001,-0.002,0.0,-904.54,160.3,-908.32,995.6,25.11,178.18
2025-11-03T07:01:56.985759,4.938,-0.029,-0.042,1.003,0.002,-0.002,0.001,-904.26,160.3,-905.1,995.54,25.1,178.68
2025-11-03T07:01:56.996643,4.949,-0.028,-0.042,1.004,0.001,-0.002,0.0,-904.26,159.74,-908.6,995.61,25.11,178.09
2025-11-03T07:01:57.007754,4.960,-0.029,-0.042,1.003,0.001,-0.002,0.0,-902.44,159.74,-908.6,995.53,25.11,178.76
2025-11-03T07:01:57.018607,4.971,-0.028,-0.042,1.002,0.002,-0.002,0.0,-905.38,159.32,-908.18,995.59,25.11,178.25
2025-11-03T07:01:57.029651,4.982,-0.028,-0.044,1.001,0.002,-0.002,0.0,-903.84,158.34,-904.68,995.55,25.1,178.63
2025-11-03T07:01:57.040717,4.993,-0.028,-0.043,1.002,0.001,-0.002,0.0,-903.42,154.84,-909.16,995.57,25.1,178.4
2025-11-03T07:01:57.051607,5.004,-0.027,-0.044,1.003,0.001,-0.002,0.0,-900.48,157.92,-910.56,995.52,25.11,178.82
2025-11-03T07:01:57.062668,5.015,-0.029,-0.043,1.002,0.001,-0.002,0.0,-905.38,158.2,-910.42,995.54,25.11,178.69
2025-11-03T07:01:57.073769,5.026,-0.029,-0.043,1.002,0.001,-0.002,0.0,-903.98,158.2,-913.78,995.61,25.11,178.07
2025-11-03T07:01:57.084642,5.037,-0.029,-0.043,1.004,0.001,-0.002,0.0,-903.98,158.2,-913.78,995.55,25.11,178.6
2025-11-03T07:01:57.095736,5.048,-0.028,-0.043,1.003,0.001,-0.002,0.0,-902.86,160.02,-909.44,995.56,25.11,178.54
2025-11-03T07:01:57.106651,5.059,-0.03,-0.043,1.003,0.001,-0.001,0.0,-902.86,157.5,-918.82,995.65,25.11,177.8
2025-11-03T07:01:57.117715,5.070,-0.028,-0.042,1.002,0.001,-0.002,0.0,-900.9,162.82,-910.56,995.52,25.11,178.83
2025-11-03T07:01:57.128602,5.081,-0.027,-0.043,1.002,0.001,-0.002,0.001,-895.86,160.3,-915.32,995.53,25.11,178.82
2025-11-03T07:01:57.139689,5.092,-0.027,-0.043,1.003,0.001,-0.002,0.001,-904.4,159.6,-913.92,995.59,25.11,178.3
2025-11-03T07:01:57.150666,5.103,-0.028,-0.043,1.003,0.001,-0.002,0.0,-901.74,161.56,-907.76,995.62,25.11,178.0
2025-11-03T07:01:57.161856,5.114,-0.028,-0.044,1.002,0.001,-0.002,0.001,-901.74,161.56,-907.76,995.54,25.11,178.69
2025-11-03T07:01:57.172618,5.125,-0.028,-0.043,1.003,0.001,-0.002,0.0,-899.5,162.26,-911.54,995.68,25.11,177.54
2025-11-03T07:01:57.183686,5.136,-0.028,-0.043,1.002,0.001,-0.002,0.0,-900.06,162.96,-907.76,995.59,25.11,178.26
2025-11-03T07:01:57.194736,5.147,-0.029,-0.043,1.003,0.002,-0.002,0.0,-902.58,161.14,-908.88,995.61,25.11,178.07
2025-11-03T07:01:57.205777,5.158,-0.029,-0.043,1.002,0.001,-0.001,0.0,-903.56,163.66,-908.04,995.59,25.11,178.28
2025-11-03T07:01:57.216594,5.169,-0.029,-0.042,1.003,0.002,-0.002,0.0,-897.68,160.72,-911.12,995.55,25.1,178.62
2025-11-03T07:01:57.227668,5.180,-0.029,-0.042,1.002,0.001,-0.002,0.0,-899.22,163.38,-908.6,995.61,25.11,178.06
2025-11-03T07:01:57.238623,5.191,-0.028,-0.043,1.003,0.002,-0.002,0.0,-899.22,163.38,-908.6,995.64,25.11,177.85
2025-11-03T07:01:57.249710,5.202,-0.028,-0.044,1.003,0.001,-0.002,0.0,-904.4,159.18,-913.64,995.65,25.11,177.78
2025-11-03T07:01:57.260631,5.213,-0.028,-0.043,1.003,0.001,-0.002,0.0,-906.36,164.78,-908.04,995.57,25.11,178.42
2025-11-03T07:01:57.271671,5.224,-0.028,-0.042,1.002,0.001,-0.002,0.0,-903.0,163.8,-911.26,995.57,25.11,178.41
2025-11-03T07:01:57.282731,5.235,-0.027,-0.043,1.003,0.001,-0.002,0.0,-903.0,165.48,-910.56,995.53,25.1,178.78
2025-11-03T07:01:57.293603,5.246,-0.029,-0.042,1.001,0.001,-0.001,0.0,-908.74,160.44,-914.9,995.55,25.11,178.57
2025-11-03T07:01:57.304669,5.257,-0.03,-0.042,1.002,0.002,-0.002,0.0,-905.52,162.96,-910.14,995.56,25.11,178.52
2025-11-03T07:01:57.315731,5.268,-0.029,-0.043,1.003,0.001,-0.002,0.0,-905.52,162.96,-910.14,995.54,25.11,178.72
2025-11-03T07:01:57.326617,5.279,-0.028,-0.041,1.003,0.001,-0.002,0.001,-908.18,160.86,-912.38,995.64,25.11,177.85
2025-11-03T07:01:57.337684,5.290,-0.028,-0.044,1.002,0.001,-0.002,0.0,-902.02,163.94,-911.26,995.62,25.11,178.05
2025-11-03T07:01:57.348759,5.301,-0.028,-0.041,1.002,0.001,-0.002,0.0,-904.4,157.78,-907.2,995.48,25.11,179.17
2025-11-03T07:01:57.359642,5.312,-0.03,-0.042,1.002,0.001,-0.002,0.0,-905.1,161.14,-913.64,995.61,25.1,178.1
2025-11-03T07:01:57.370696,5.323,-0.028,-0.042,1.003,0.002,-0.002,0.0,-905.1,162.82,-906.78,995.56,25.11,178.49
2025-11-03T07:01:57.381771,5.334,-0.028,-0.042,1.002,0.001,-0.002,0.0,-900.9,157.92,-911.54,995.51,25.11,178.95
2025-11-03T07:01:57.392652,5.345,-0.028,-0.043,1.002,0.001,-0.002,0.0,-900.9,157.92,-911.54,995.6,25.11,178.16
2025-11-03T07:01:57.403709,5.356,-0.029,-0.042,1.002,0.001,-0.002,0.001,-902.72,159.74,-911.12,995.57,25.11,178.43
2025-11-03T07:01:57.414608,5.367,-0.028,-0.043,1.003,0.001,-0.002,0.0,-903.84,158.06,-913.5,995.56,25.11,178.54
2025-11-03T07:01:57.425649,5.378,-0.027,-0.042,1.001,0.001,-0.002,0.0,-905.38,157.22,-910.28,995.62,25.11,178.05
2025-11-03T07:01:57.436708,5.389,-0.028,-0.043,1.002,0.001,-0.002,0.0,-904.4,158.2,-905.66,995.62,25.11,178.01
2025-11-03T07:01:57.447608,5.400,-0.029,-0.042,1.002,0.001,-0.002,0.0,-904.68,162.26,-908.18,995.57,25.11,178.48
2025-11-03T07:01:57.458659,5.411,-0.028,-0.042,1.002,0.002,-0.002,0.0,-906.64,166.6,-904.4,995.6,25.11,178.19
2025-11-03T07:01:57.469722,5.422,-0.029,-0.043,1.002,0.001,-0.002,0.0,-906.64,166.6,-904.4,995.66,25.11,177.67
2025-11-03T07:01:57.480616,5.433,-0.029,-0.043,1.003,0.002,-0.002,0.001,-900.2,158.76,-909.58,995.6,25.11,178.14
2025-11-03T07:01:57.491672,5.444,-0.028,-0.042,1.002,0.002,-0.002,0.0,-901.46,161.7,-910.56,995.59,25.11,178.31
2025-11-03T07:01:57.503345,5.456,-0.028,-0.043,1.003,0.002,-0.002,0.001,-902.16,161.28,-904.68,995.54,25.1,178.7
2025-11-03T07:01:57.513648,5.466,-0.028,-0.043,1.001,0.001,-0.002,0.0,-904.4,163.52,-907.48,995.57,25.11,178.42
2025-11-03T07:01:57.524698,5.477,-0.028,-0.043,1.003,0.002,-0.002,0.0,-903.7,158.48,-911.12,995.58,25.11,178.35
2025-11-03T07:01:57.535770,5.488,-0.028,-0.044,1.002,0.002,-0.002,0.0,-902.72,157.36,-909.44,995.6,25.11,178.17
2025-11-03T07:01:57.546641,5.499,-0.027,-0.042,1.003,0.001,-0.002,0.001,-902.72,157.36,-909.44,995.57,25.11,178.43
2025-11-03T07:01:57.557694,5.510,-0.028,-0.043,1.003,0.001,-0.002,0.0,-904.4,162.96,-908.46,995.62,25.11,178.02
2025-11-03T07:01:57.568597,5.521,-0.028,-0.043,1.003,0.001,-0.002,0.0,-899.36,159.32,-904.96,995.59,25.11,178.24
2025-11-03T07:01:57.579652,5.532,-0.028,-0.043,1.001,0.001,-0.002,0.001,-903.84,161.0,-919.38,995.61,25.11,178.07
2025-11-03T07:01:57.591639,5.544,-0.028,-0.043,1.002,0.002,-0.002,0.0,-905.94,157.36,-911.26,995.62,25.11,177.99
2025-11-03T07:01:57.601900,5.554,-0.028,-0.041,1.001,0.001,-0.002,0.001,-906.92,155.96,-914.06,995.52,25.11,178.9
2025-11-03T07:01:57.612887,5.565,-0.028,-0.042,1.002,0.001,-0.002,0.0,-904.68,162.12,-920.08,995.62,25.11,178.01
2025-11-03T07:01:57.623976,5.576,-0.028,-0.042,1.002,0.002,-0.002,0.0,-904.68,162.12,-920.08,995.53,25.11,178.78
2025-11-03T07:01:57.634825,5.587,-0.029,-0.043,1.002,0.001,-0.002,0.0,-903.28,161.7,-916.16,995.59,25.11,178.24
2025-11-03T07:01:57.645940,5.598,-0.027,-0.044,1.002,0.001,-0.002,0.0,-904.68,162.96,-911.68,995.58,25.11,178.39
2025-11-03T07:01:57.657230,5.610,-0.029,-0.044,1.002,0.001,-0.002,0.001,-906.36,161.98,-916.58,995.58,25.11,178.34
2025-11-03T07:01:57.667766,5.620,-0.028,-0.042,1.002,0.001,-0.002,0.0,-901.74,159.6,-908.6,995.57,25.11,178.46
2025-11-03T07:01:57.678744,5.631,-0.028,-0.043,1.002,0.002,-0.002,0.0,-905.24,159.6,-910.42,995.6,25.11,178.19
2025-11-03T07:01:57.690064,5.642,-0.028,-0.044,1.002,0.001,-0.002,0.0,-905.1,155.68,-909.16,995.53,25.11,178.81
2025-11-03T07:01:57.700728,5.653,-0.028,-0.043,1.002,0.001,-0.002,0.0,-905.1,155.68,-911.96,995.56,25.11,178.55
2025-11-03T07:01:57.712054,5.664,-0.028,-0.042,1.002,0.001,-0.002,0.0,-903.42,158.2,-911.96,995.57,25.11,178.42
2025-11-03T07:01:57.722631,5.675,-0.028,-0.042,1.002,0.001,-0.002,0.0,-902.72,159.46,-912.66,995.64,25.11,177.86
2025-11-03T07:01:57.733617,5.686,-0.027,-0.043,1.002,0.001,-0.002,0.0,-902.86,161.42,-911.96,995.58,25.11,178.32
2025-11-03T07:01:57.744953,5.697,-0.027,-0.043,1.001,0.001,-0.002,0.0,-901.6,162.26,-911.82,995.58,25.11,178.36
2025-11-03T07:01:57.755705,5.708,-0.027,-0.043,1.003,0.001,-0.002,0.0,-900.62,161.7,-914.2,995.55,25.11,178.58
2025-11-03T07:01:57.766846,5.719,-0.029,-0.042,1.003,0.001,-0.002,0.0,-903.0,164.64,-906.92,995.58,25.11,178.36
2025-11-03T07:01:57.777481,5.730,-0.029,-0.043,1.002,0.001,-0.002,0.0,-903.0,163.1,-901.74,995.62,25.11,177.99
2025-11-03T07:01:57.788608,5.741,-0.029,-0.043,1.002,0.001,-0.002,0.0,-902.44,163.1,-901.74,995.64,25.11,177.81
2025-11-03T07:01:57.799668,5.752,-0.029,-0.043,1.002,0.002,-0.002,0.001,-902.72,165.9,-908.18,995.59,25.11,178.31
2025-11-03T07:01:57.810602,5.763,-0.03,-0.044,1.003,0.002,-0.002,0.001,-902.44,159.32,-909.72,995.62,25.11,177.99
2025-11-03T07:01:57.821724,5.774,-0.027,-0.042,1.002,0.001,-0.001,0.0,-902.44,161.28,-913.78,995.57,25.11,178.42
2025-11-03T07:01:57.832748,5.785,-0.028,-0.042,1.002,0.001,-0.002,0.0,-899.78,159.18,-909.72,995.63,25.11,177.92
2025-11-03T07:01:57.843644,5.796,-0.028,-0.042,1.001,0.001,-0.002,0.0,-900.34,164.5,-910.84,995.51,25.11,178.94
2025-11-03T07:01:57.854697,5.807,-0.028,-0.044,1.003,0.001,-0.002,0.0,-903.7,162.4,-916.16,995.54,25.11,178.7
2025-11-03T07:01:57.865621,5.818,-0.028,-0.043,1.003,0.001,-0.002,0.001,-903.7,162.4,-916.16,995.58,25.11,178.37
2025-11-03T07:01:57.876659,5.829,-0.028,-0.044,1.002,0.001,-0.002,0.0,-899.5,163.66,-914.48,995.52,25.11,178.88
2025-11-03T07:01:57.887707,5.840,-0.028,-0.043,1.002,0.001,-0.002,0.0,-904.12,160.3,-911.12,995.61,25.1,178.14
2025-11-03T07:01:57.898627,5.851,-0.028,-0.042,1.003,0.001,-0.002,0.001,-902.86,162.68,-910.28,995.56,25.11,178.5
2025-11-03T07:01:57.909660,5.862,-0.028,-0.042,1.003,0.001,-0.002,0.001,-905.66,161.14,-911.4,995.6,25.11,178.16
2025-11-03T07:01:57.920731,5.873,-0.029,-0.042,1.003,0.001,-0.002,0.0,-904.82,163.24,-910.0,995.59,25.11,178.27
2025-11-03T07:01:57.931617,5.884,-0.028,-0.042,1.003,0.001,-0.002,0.0,-901.74,161.56,-910.42,995.59,25.11,178.31
2025-11-03T07:01:57.942670,5.895,-0.028,-0.043,1.002,0.001,-0.002,0.0,-901.74,161.56,-910.42,995.64,25.11,177.88
2025-11-03T07:01:57.953727,5.906,-0.029,-0.043,1.003,0.001,-0.002,0.0,-905.24,162.68,-906.64,995.61,25.11,178.08
2025-11-03T07:01:57.964631,5.917,-0.029,-0.042,1.003,0.001,-0.002,0.0,-901.88,164.22,-904.82,995.62,25.12,178.03
2025-11-03T07:01:57.975704,5.928,-0.028,-0.043,1.003,0.002,-0.002,0.0,-905.1,159.18,-906.64,995.67,25.12,177.56
2025-11-03T07:01:57.986755,5.939,-0.028,-0.042,1.002,0.001,-0.002,0.0,-906.36,161.56,-908.74,995.63,25.11,177.92
2025-11-03T07:01:57.997638,5.950,-0.029,-0.042,1.001,0.001,-0.002,0.0,-901.88,160.02,-903.98,995.54,25.11,178.68
2025-11-03T07:01:58.008692,5.961,-0.028,-0.043,1.002,0.001,-0.002,0.0,-906.22,163.94,-909.86,995.64,25.11,177.84
2025-11-03T07:01:58.019582,5.972,-0.028,-0.042,1.002,0.001,-0.002,0.001,-906.22,163.94,-909.86,995.62,25.11,178.05
2025-11-03T07:01:58.030661,5.983,-0.028,-0.043,1.002,0.001,-0.002,0.0,-906.08,160.58,-907.2,995.55,25.11,178.59
2025-11-03T07:01:58.041719,5.994,-0.029,-0.042,1.002,0.001,-0.002,0.001,-903.0,157.08,-910.42,995.56,25.11,178.53
2025-11-03T07:01:58.052593,6.005,-0.028,-0.042,1.003,0.001,-0.002,0.0,-903.42,161.0,-913.22,995.54,25.11,178.73
2025-11-03T07:01:58.063642,6.016,-0.029,-0.042,1.002,0.001,-0.002,0.0,-906.22,161.28,-912.66,995.53,25.11,178.77
2025-11-03T07:01:58.074725,6.027,-0.028,-0.044,1.003,0.001,-0.002,0.0,-908.74,165.48,-914.76,995.56,25.12,178.56
2025-11-03T07:01:58.085623,6.038,-0.027,-0.043,1.001,0.002,-0.002,0.0,-900.2,160.16,-915.74,995.61,25.11,178.11
2025-11-03T07:01:58.096730,6.049,-0.029,-0.044,1.003,0.002,-0.002,0.001,-900.2,160.16,-915.74,995.53,25.11,178.79
2025-11-03T07:01:58.107761,6.060,-0.029,-0.043,1.002,0.001,-0.002,0.001,-901.32,163.8,-910.84,995.5,25.11,179.0
2025-11-03T07:01:58.118635,6.071,-0.029,-0.043,1.003,0.001,-0.002,0.0,-904.68,162.96,-912.24,995.58,25.11,178.4
2025-11-03T07:01:58.129694,6.082,-0.029,-0.043,1.002,0.001,-0.002,0.0,-904.54,157.64,-913.08,995.55,25.11,178.63
2025-11-03T07:01:58.140607,6.093,-0.027,-0.043,1.002,0.001,-0.002,0.001,-900.76,160.44,-908.18,995.56,25.11,178.53
2025-11-03T07:01:58.151648,6.104,-0.029,-0.043,1.002,0.001,-0.002,0.001,-903.98,162.68,-910.28,995.59,25.11,178.28
2025-11-03T07:01:58.162720,6.115,-0.028,-0.043,1.001,0.001,-0.002,0.0,-903.56,161.84,-920.78,995.62,25.11,178.05
2025-11-03T07:01:58.173609,6.126,-0.027,-0.042,1.003,0.001,-0.002,0.0,-903.56,161.84,-920.78,995.57,25.11,178.42
2025-11-03T07:01:58.184674,6.137,-0.029,-0.043,1.002,0.001,-0.002,0.001,-902.16,162.12,-911.68,995.54,25.11,178.72
2025-11-03T07:01:58.195730,6.148,-0.028,-0.043,1.003,0.001,-0.002,0.001,-905.1,160.02,-917.56,995.56,25.11,178.5
2025-11-03T07:01:58.206625,6.159,-0.029,-0.043,1.003,0.001,-0.002,0.0,-907.2,158.76,-911.96,995.62,25.11,178.03
2025-11-03T07:01:58.217667,6.170,-0.029,-0.042,1.003,0.001,-0.002,0.0,-899.92,160.58,-910.7,995.62,25.11,178.04
2025-11-03T07:01:58.228733,6.181,-0.027,-0.042,1.003,0.001,-0.002,0.0,-899.64,163.8,-914.06,995.59,25.11,178.29
2025-11-03T07:01:58.239624,6.192,-0.03,-0.043,1.002,0.002,-0.002,0.001,-897.96,160.58,-914.62,995.57,25.11,178.43
2025-11-03T07:01:58.250713,6.203,-0.029,-0.043,1.001,0.001,-0.002,0.0,-897.96,160.58,-914.62,995.65,25.12,177.79
2025-11-03T07:01:58.261569,6.214,-0.028,-0.043,1.003,0.001,-0.002,0.0,-899.22,162.4,-913.78,995.57,25.12,178.41
2025-11-03T07:01:58.272630,6.225,-0.028,-0.044,1.003,0.001,-0.002,0.001,-903.84,162.54,-915.88,995.61,25.11,178.11
2025-11-03T07:01:58.283706,6.236,-0.028,-0.042,1.003,0.001,-0.002,0.0,-904.54,161.14,-909.72,995.62,25.11,178.02
2025-11-03T07:01:58.294587,6.247,-0.028,-0.043,1.002,0.001,-0.002,0.0,-904.4,166.88,-910.28,995.57,25.11,178.4
2025-11-03T07:01:58.305673,6.258,-0.029,-0.042,1.003,0.001,-0.002,0.0,-903.28,159.88,-919.66,995.61,25.11,178.13
2025-11-03T07:01:58.316731,6.269,-0.029,-0.043,1.0,0.002,-0.002,0.0,-901.74,162.96,-920.5,995.64,25.11,177.87
2025-11-03T07:01:58.327630,6.280,-0.028,-0.042,1.002,0.002,-0.002,0.0,-901.74,162.96,-920.5,995.58,25.11,178.33
2025-11-03T07:01:58.338672,6.291,-0.027,-0.042,1.003,0.001,-0.002,0.0,-898.94,159.18,-918.4,995.63,25.11,177.9
2025-11-03T07:01:58.349743,6.302,-0.028,-0.043,1.003,0.001,-0.002,0.001,-901.74,164.36,-918.4,995.63,25.11,177.9
2025-11-03T07:01:58.360655,6.313,-0.029,-0.042,1.002,0.002,-0.002,0.0,-901.46,163.24,-911.4,995.65,25.11,177.76
2025-11-03T07:01:58.371706,6.324,-0.028,-0.044,1.002,0.001,-0.002,0.001,-901.46,159.18,-911.12,995.51,25.11,178.96
2025-11-03T07:01:58.382601,6.335,-0.028,-0.042,1.002,0.001,-0.002,0.0,-903.98,166.04,-912.38,995.63,25.11,177.91
2025-11-03T07:01:58.393650,6.346,-0.029,-0.043,1.001,0.001,-0.002,0.0,-904.68,157.08,-914.06,995.5,25.11,179.01
2025-11-03T07:01:58.404711,6.357,-0.028,-0.042,1.002,0.001,-0.002,0.0,-904.68,157.08,-916.86,995.58,25.11,178.35
2025-11-03T07:01:58.415622,6.368,-0.028,-0.042,1.002,0.001,-0.002,0.0,-904.4,162.4,-916.86,995.61,25.12,178.07
2025-11-03T07:01:58.426684,6.379,-0.028,-0.042,1.001,0.001,-0.002,0.0,-903.7,160.44,-910.98,995.59,25.11,178.25
2025-11-03T07:01:58.437738,6.390,-0.028,-0.044,1.003,0.001,-0.002,0.0,-896.56,162.4,-911.12,995.57,25.11,178.44
2025-11-03T07:01:58.448637,6.401,-0.027,-0.044,1.002,0.001,-0.002,0.0,-902.44,162.82,-910.56,995.63,25.11,177.91
2025-11-03T07:01:58.459739,6.412,-0.027,-0.043,1.002,0.001,-0.002,0.0,-900.48,161.56,-913.92,995.62,25.12,178.0
2025-11-03T07:01:58.470600,6.423,-0.029,-0.043,1.002,0.001,-0.002,0.0,-901.04,161.0,-907.34,995.54,25.11,178.72
2025-11-03T07:01:58.481747,6.434,-0.028,-0.043,1.003,0.001,-0.002,0.0,-901.04,164.5,-903.28,995.57,25.11,178.46
2025-11-03T07:01:58.492707,6.445,-0.029,-0.042,1.002,0.002,-0.002,0.0,-903.14,164.5,-903.28,995.52,25.11,178.82
2025-11-03T07:01:58.503595,6.456,-0.028,-0.042,1.003,0.001,-0.002,0.001,-899.92,161.7,-908.88,995.6,25.11,178.17
2025-11-03T07:01:58.514664,6.467,-0.03,-0.043,1.003,0.001,-0.002,0.0,-901.18,162.26,-907.2,995.56,25.11,178.55
2025-11-03T07:01:58.525742,6.478,-0.028,-0.043,1.003,0.002,-0.002,0.0,-903.7,161.56,-905.24,995.6,25.11,178.23
2025-11-03T07:01:58.536633,6.489,-0.03,-0.043,1.002,0.001,-0.002,0.0,-901.6,159.88,-903.0,995.54,25.11,178.73
2025-11-03T07:01:58.547694,6.500,-0.028,-0.042,1.002,0.001,-0.002,0.001,-903.14,160.72,-908.88,995.66,25.11,177.72
2025-11-03T07:01:58.558613,6.511,-0.028,-0.042,1.003,0.001,-0.002,0.0,-899.5,163.52,-904.4,995.59,25.11,178.31
2025-11-03T07:01:58.569659,6.522,-0.029,-0.043,1.002,0.002,-0.002,0.0,-899.5,163.52,-904.4,995.54,25.11,178.66
2025-11-03T07:01:58.580723,6.533,-0.029,-0.043,1.001,0.002,-0.002,0.001,-901.46,164.22,-909.02,995.61,25.11,178.11
2025-11-03T07:01:58.591650,6.544,-0.027,-0.043,1.002,0.002,-0.002,0.0,-907.06,163.24,-913.22,995.57,25.11,178.48
2025-11-03T07:01:58.602784,6.555,-0.028,-0.043,1.002,0.001,-0.002,0.0,-902.3,164.5,-911.96,995.62,25.11,177.99
2025-11-03T07:01:58.613767,6.566,-0.028,-0.043,1.003,0.001,-0.002,0.0,-902.86,161.98,-911.68,995.59,25.11,178.23
2025-11-03T07:01:58.624664,6.577,-0.029,-0.041,1.002,0.001,-0.002,0.0,-904.54,164.78,-911.26,995.54,25.11,178.72
2025-11-03T07:01:58.635717,6.588,-0.029,-0.042,1.001,0.002,-0.002,0.0,-904.96,166.32,-913.92,995.56,25.11,178.49
2025-11-03T07:01:58.646704,6.599,-0.029,-0.043,1.002,0.001,-0.002,0.0,-904.96,166.32,-913.92,995.57,25.11,178.46
2025-11-03T07:01:58.723111,6.675,-0.028,-0.043,1.003,0.0,-0.002,0.001,-905.1,163.24,-916.86,995.65,25.12,177.75
2025-11-03T07:01:58.724021,6.676,-0.028,-0.043,1.003,0.001,-0.002,0.001,-904.68,163.24,-913.5,995.62,25.11,178.01
2025-11-03T07:01:58.724668,6.677,-0.029,-0.043,1.004,0.002,-0.002,0.001,-900.2,160.72,-919.8,995.55,25.11,178.62
2025-11-03T07:01:58.725299,6.678,-0.027,-0.042,1.001,0.001,-0.002,0.0,-902.72,161.98,-914.06,995.52,25.11,178.86
2025-11-03T07:01:58.725958,6.678,-0.028,-0.043,1.002,0.002,-0.002,0.0,-898.66,165.76,-913.36,995.62,25.11,178.03
2025-11-03T07:01:58.726580,6.679,-0.028,-0.043,1.003,0.001,-0.002,0.0,-901.6,165.48,-913.92,995.53,25.12,178.75
2025-11-03T07:01:58.727201,6.680,-0.026,-0.043,1.001,0.001,-0.001,0.001,-901.6,165.48,-913.92,995.61,25.11,178.1
2025-11-03T07:01:58.734550,6.687,-0.028,-0.042,1.001,0.001,-0.002,0.0,-900.9,161.84,-913.92,995.57,25.12,178.43
2025-11-03T07:01:58.745880,6.698,-0.028,-0.043,1.002,0.001,-0.002,0.0,-899.92,158.62,-911.12,995.62,25.12,178.05
2025-11-03T07:01:58.756712,6.709,-0.028,-0.043,1.002,0.002,-0.002,0.0,-899.36,158.48,-904.68,995.6,25.12,178.2
2025-11-03T07:01:58.767671,6.720,-0.028,-0.043,1.002,0.001,-0.002,0.0,-899.5,161.28,-914.34,995.63,25.11,177.97
2025-11-03T07:01:58.778784,6.731,-0.028,-0.042,1.003,0.001,-0.002,0.0,-902.86,162.4,-913.22,995.68,25.11,177.54
2025-11-03T07:01:58.789648,6.742,-0.029,-0.043,1.002,0.001,-0.002,0.0,-899.92,161.84,-914.06,995.54,25.11,178.69
2025-11-03T07:01:58.800680,6.753,-0.027,-0.041,1.002,0.002,-0.002,0.001,-899.92,161.84,-914.06,995.53,25.11,178.75
2025-11-03T07:01:58.811732,6.764,-0.028,-0.042,1.002,0.001,-0.002,0.0,-903.42,164.22,-914.34,995.57,25.11,178.44
2025-11-03T07:01:58.822620,6.775,-0.029,-0.043,1.004,0.001,-0.002,0.001,-901.88,159.04,-914.48,995.61,25.12,178.07
2025-11-03T07:01:58.833679,6.786,-0.029,-0.043,1.003,0.002,-0.002,0.0,-900.48,160.3,-912.52,995.53,25.12,178.8
2025-11-03T07:01:58.844609,6.797,-0.028,-0.044,1.002,0.002,-0.002,0.001,-900.34,159.04,-913.22,995.6,25.12,178.17
2025-11-03T07:01:58.855670,6.808,-0.028,-0.042,1.002,0.002,-0.002,0.0,-899.08,163.1,-917.56,995.58,25.11,178.38
2025-11-03T07:01:58.866730,6.819,-0.029,-0.043,1.003,0.002,-0.002,0.0,-901.6,164.36,-913.08,995.53,25.11,178.8
2025-11-03T07:01:58.877623,6.830,-0.028,-0.042,1.003,0.001,-0.002,0.0,-901.6,164.36,-913.08,995.54,25.12,178.73
2025-11-03T07:01:58.888682,6.841,-0.029,-0.042,1.003,0.002,-0.002,0.0,-900.76,158.76,-909.72,995.6,25.11,178.21
2025-11-03T07:01:58.899597,6.852,-0.029,-0.043,1.001,0.001,-0.002,0.001,-903.42,159.74,-911.12,995.6,25.12,178.16
2025-11-03T07:01:58.910657,6.863,-0.026,-0.042,1.002,0.001,-0.002,0.0,-901.74,157.5,-914.48,995.59,25.11,178.31
2025-11-03T07:01:58.921725,6.874,-0.027,-0.042,1.002,0.001,-0.002,0.0,-904.26,160.72,-908.6,995.58,25.11,178.32
2025-11-03T07:01:58.932698,6.885,-0.028,-0.042,1.004,0.001,-0.002,0.0,-907.62,158.62,-913.92,995.58,25.12,178.39
2025-11-03T07:01:58.943698,6.896,-0.028,-0.043,1.001,0.002,-0.002,0.0,-903.98,155.68,-912.52,995.5,25.11,179.03
2025-11-03T07:01:58.954578,6.907,-0.028,-0.042,1.001,0.001,-0.002,0.0,-903.98,155.68,-912.52,995.6,25.11,178.21
2025-11-03T07:01:58.965700,6.918,-0.027,-0.043,1.003,0.001,-0.002,0.0,-900.76,159.04,-911.82,995.54,25.11,178.7
2025-11-03T07:01:58.976707,6.929,-0.028,-0.042,1.003,0.001,-0.002,0.001,-902.44,161.14,-915.6,995.52,25.11,178.82
2025-11-03T07:01:58.987609,6.940,-0.028,-0.043,1.001,0.001,-0.002,0.0,-901.04,163.52,-917.84,995.62,25.11,178.04
2025-11-03T07:01:58.998678,6.951,-0.028,-0.041,1.002,0.001,-0.002,0.0,-903.98,158.48,-913.22,995.57,25.11,178.42
2025-11-03T07:01:59.009567,6.962,-0.028,-0.042,1.003,0.001,-0.002,0.0,-903.42,161.98,-911.68,995.63,25.12,177.91
2025-11-03T07:01:59.020636,6.973,-0.029,-0.042,1.003,0.001,-0.002,0.0,-901.18,161.98,-921.62,995.61,25.11,178.1
2025-11-03T07:01:59.031786,6.984,-0.029,-0.042,1.002,0.002,-0.002,0.0,-901.18,161.98,-921.62,995.6,25.11,178.14
2025-11-03T07:01:59.042652,6.995,-0.028,-0.043,1.003,0.002,-0.002,0.0,-904.26,157.64,-918.96,995.54,25.12,178.73
2025-11-03T07:01:59.053674,7.006,-0.028,-0.044,1.001,0.002,-0.002,0.0,-901.6,161.42,-915.6,995.54,25.11,178.72
2025-11-03T07:01:59.064742,7.017,-0.028,-0.043,1.003,0.001,-0.002,0.0,-901.88,167.58,-916.16,995.56,25.12,178.54
2025-11-03T07:01:59.075633,7.028,-0.029,-0.043,1.002,0.001,-0.002,0.001,-901.46,163.38,-916.86,995.61,25.12,178.07
2025-11-03T07:01:59.086686,7.039,-0.029,-0.043,1.003,0.001,-0.002,0.0,-901.18,161.98,-919.52,995.6,25.11,178.19
2025-11-03T07:01:59.097590,7.050,-0.027,-0.043,1.001,0.001,-0.002,0.0,-901.18,164.5,-911.4,995.65,25.12,177.81
2025-11-03T07:01:59.108763,7.061,-0.028,-0.042,1.002,0.001,-0.002,0.0,-901.18,164.5,-911.4,995.57,25.12,178.43
2025-11-03T07:01:59.119738,7.072,-0.027,-0.043,1.002,0.001,-0.002,0.0,-897.4,161.42,-911.26,995.57,25.12,178.46
2025-11-03T07:01:59.130619,7.083,-0.029,-0.041,1.003,0.002,-0.002,0.0,-896.42,160.16,-912.52,995.56,25.12,178.51
2025-11-03T07:01:59.141683,7.094,-0.029,-0.042,1.003,0.001,-0.002,0.0,-901.04,161.7,-909.58,995.54,25.12,178.72
2025-11-03T07:01:59.152465,7.105,-0.028,-0.043,1.002,0.001,-0.002,0.0,-902.02,161.84,-912.94,995.5,25.11,179.0
2025-11-03T07:01:59.163723,7.116,-0.028,-0.043,1.002,0.002,-0.002,0.001,-901.18,163.1,-913.78,995.53,25.12,178.81
2025-11-03T07:01:59.174622,7.127,-0.029,-0.042,1.002,0.001,-0.002,0.001,-905.1,162.4,-916.44,995.58,25.11,178.36
2025-11-03T07:01:59.185762,7.138,-0.029,-0.042,1.002,0.001,-0.002,0.001,-905.1,162.4,-913.5,995.57,25.12,178.41
2025-11-03T07:01:59.196705,7.149,-0.029,-0.042,1.002,0.002,-0.002,0.0,-900.62,161.7,-913.5,995.58,25.12,178.4
2025-11-03T07:01:59.207600,7.160,-0.028,-0.043,1.002,0.001,-0.002,0.0,-907.48,162.12,-910.7,995.65,25.12,177.74
2025-11-03T07:01:59.218670,7.171,-0.028,-0.042,1.002,0.002,-0.002,0.0,-900.2,162.4,-910.56,995.55,25.12,178.58
2025-11-03T07:01:59.229713,7.182,-0.028,-0.043,1.003,0.002,-0.002,0.0,-897.96,165.76,-909.72,995.62,25.12,177.98
2025-11-03T07:01:59.240608,7.193,-0.028,-0.042,1.003,0.001,-0.002,0.0,-899.64,167.16,-910.42,995.59,25.12,178.24
2025-11-03T07:01:59.251701,7.204,-0.028,-0.042,1.002,0.001,-0.002,0.0,-898.38,164.92,-910.7,995.56,25.12,178.5
2025-11-03T07:01:59.262772,7.215,-0.028,-0.042,1.002,0.001,-0.002,0.0,-902.86,163.66,-909.86,995.53,25.12,178.74
2025-11-03T07:01:59.273418,7.226,-0.029,-0.042,1.002,0.001,-0.002,0.001,-902.86,163.66,-909.86,995.55,25.11,178.62
2025-11-03T07:01:59.284765,7.237,-0.029,-0.042,1.003,0.001,-0.002,0.001,-905.24,162.96,-916.16,995.61,25.12,178.1
2025-11-03T07:01:59.295620,7.248,-0.029,-0.043,1.003,0.001,-0.002,0.001,-902.3,164.22,-911.12,995.63,25.11,177.95
2025-11-03T07:01:59.306668,7.259,-0.029,-0.042,1.003,0.002,-0.002,0.0,-898.1,165.9,-920.36,995.52,25.12,178.89
2025-11-03T07:01:59.317713,7.270,-0.028,-0.044,1.003,0.001,-0.002,0.001,-901.04,161.98,-904.68,995.58,25.11,178.36
2025-11-03T07:01:59.328637,7.281,-0.028,-0.043,1.002,0.001,-0.002,0.0,-903.42,164.78,-915.32,995.54,25.11,178.68
2025-11-03T07:01:59.339686,7.292,-0.028,-0.042,1.002,0.001,-0.002,0.0,-902.72,158.2,-915.88,995.6,25.12,178.22
2025-11-03T07:01:59.350589,7.303,-0.028,-0.043,1.002,0.001,-0.002,0.0,-902.72,158.2,-915.88,995.64,25.11,177.84
2025-11-03T07:01:59.361642,7.314,-0.029,-0.044,1.003,0.002,-0.002,0.0,-901.88,159.6,-907.76,995.59,25.12,178.24
2025-11-03T07:01:59.372708,7.325,-0.03,-0.042,1.002,0.002,-0.002,0.001,-902.16,163.8,-908.6,995.58,25.12,178.38
2025-11-03T07:01:59.383596,7.336,-0.029,-0.042,1.002,0.001,-0.002,0.0,-902.72,160.3,-913.08,995.55,25.11,178.58
2025-11-03T07:01:59.394681,7.347,-0.028,-0.043,1.002,0.001,-0.002,0.0,-904.12,159.74,-912.38,995.58,25.11,178.39
2025-11-03T07:01:59.405728,7.358,-0.027,-0.043,1.002,0.002,-0.002,0.001,-899.22,159.74,-910.14,995.64,25.12,177.86
2025-11-03T07:01:59.416620,7.369,-0.028,-0.044,1.002,0.001,-0.002,0.0,-901.6,160.44,-911.96,995.54,25.11,178.73
2025-11-03T07:01:59.427678,7.380,-0.028,-0.043,1.002,0.002,-0.002,0.0,-901.6,160.44,-911.96,995.63,25.12,177.96
2025-11-03T07:01:59.438575,7.391,-0.028,-0.043,1.002,0.001,-0.002,0.0,-901.46,160.02,-914.76,995.58,25.11,178.34
2025-11-03T07:01:59.449675,7.402,-0.028,-0.044,1.002,0.001,-0.002,0.0,-902.3,163.38,-909.72,995.5,25.12,179.05
2025-11-03T07:01:59.460710,7.413,-0.027,-0.043,1.003,0.001,-0.002,0.0,-900.06,161.0,-911.54,995.54,25.11,178.71
2025-11-03T07:01:59.471596,7.424,-0.027,-0.043,1.003,0.001,-0.002,0.001,-898.24,163.24,-915.46,995.62,25.12,177.98
2025-11-03T07:01:59.482680,7.435,-0.029,-0.042,1.002,0.002,-0.002,0.0,-900.2,159.74,-914.2,995.52,25.12,178.89
2025-11-03T07:01:59.493719,7.446,-0.028,-0.043,1.001,0.001,-0.002,0.0,-898.52,157.5,-907.62,995.59,25.11,178.24
2025-11-03T07:01:59.504622,7.457,-0.027,-0.044,1.002,0.002,-0.002,0.0,-898.52,157.5,-907.62,995.59,25.12,178.23
2025-11-03T07:01:59.515684,7.468,-0.028,-0.044,1.002,0.001,-0.002,0.001,-900.76,163.52,-913.92,995.62,25.12,177.99
2025-11-03T07:01:59.526584,7.479,-0.027,-0.043,1.002,0.001,-0.002,0.0,-897.82,157.78,-912.24,995.55,25.12,178.59
2025-11-03T07:01:59.537723,7.490,-0.029,-0.043,1.002,0.002,-0.002,0.0,-901.46,164.64,-909.44,995.51,25.12,178.97
2025-11-03T07:01:59.548729,7.501,-0.029,-0.043,1.002,0.001,-0.002,0.0,-901.88,158.76,-909.58,995.62,25.11,178.03
2025-11-03T07:01:59.559595,7.512,-0.029,-0.043,1.002,0.001,-0.002,0.0,-896.84,160.16,-913.5,995.64,25.12,177.86
2025-11-03T07:01:59.570680,7.523,-0.029,-0.043,1.002,0.002,-0.002,0.0,-902.3,161.98,-912.94,995.58,25.11,178.34
2025-11-03T07:01:59.581718,7.534,-0.028,-0.043,1.002,0.001,-0.001,0.0,-902.3,161.98,-912.94,995.56,25.12,178.54
2025-11-03T07:01:59.592621,7.545,-0.027,-0.043,1.003,0.001,-0.002,0.0,-897.54,159.32,-913.78,995.51,25.11,178.91
2025-11-03T07:01:59.603684,7.556,-0.027,-0.044,1.003,0.002,-0.002,0.0,-902.72,162.12,-913.64,995.58,25.11,178.36
2025-11-03T07:01:59.614580,7.567,-0.027,-0.043,1.002,0.002,-0.002,0.001,-899.08,160.72,-914.48,995.58,25.12,178.35
2025-11-03T07:01:59.625634,7.578,-0.029,-0.042,1.002,0.001,-0.002,0.0,-898.1,159.6,-917.28,995.61,25.12,178.11
2025-11-03T07:01:59.636705,7.589,-0.028,-0.043,1.002,0.002,-0.002,0.001,-902.72,160.16,-910.84,995.56,25.12,178.49
2025-11-03T07:01:59.647608,7.600,-0.027,-0.043,1.002,0.001,-0.002,0.0,-898.8,160.44,-915.04,995.57,25.11,178.47
2025-11-03T07:01:59.658666,7.611,-0.028,-0.044,1.002,0.001,-0.002,0.0,-898.8,160.44,-915.04,995.59,25.12,178.23
2025-11-03T07:01:59.669713,7.622,-0.028,-0.042,1.002,0.001,-0.002,0.0,-904.26,163.38,-913.36,995.5,25.11,179.06
2025-11-03T07:01:59.680652,7.633,-0.029,-0.043,1.002,0.001,-0.002,0.0,-902.86,159.74,-916.02,995.64,25.12,177.89
2025-11-03T07:01:59.691676,7.644,-0.028,-0.042,1.003,0.001,-0.002,0.0,-904.26,157.64,-918.12,995.6,25.11,178.14
2025-11-03T07:01:59.702558,7.655,-0.029,-0.043,1.002,0.001,-0.002,0.001,-904.54,160.02,-913.36,995.62,25.12,178.05
2025-11-03T07:01:59.713614,7.666,-0.028,-0.043,1.003,0.001,-0.002,0.0,-900.2,162.68,-915.46,995.63,25.12,177.91
2025-11-03T07:01:59.724697,7.677,-0.028,-0.043,1.002,0.001,-0.002,0.0,-900.34,163.38,-914.2,995.57,25.11,178.41
2025-11-03T07:01:59.735581,7.688,-0.029,-0.043,1.002,0.001,-0.002,0.001,-900.34,163.38,-914.2,995.56,25.12,178.57
2025-11-03T07:01:59.746664,7.699,-0.028,-0.043,1.002,0.001,-0.002,0.0,-898.1,161.84,-911.26,995.61,25.12,178.11
2025-11-03T07:01:59.757690,7.710,-0.029,-0.043,1.002,0.001,-0.002,0.0,-898.94,159.88,-909.16,995.63,25.12,177.96
2025-11-03T07:01:59.768592,7.721,-0.027,-0.043,1.002,0.001,-0.001,0.0,-900.34,159.6,-916.16,995.56,25.12,178.53
2025-11-03T07:01:59.779670,7.732,-0.028,-0.041,1.003,0.001,-0.002,0.0,-902.44,159.18,-913.5,995.65,25.12,177.76
2025-11-03T07:01:59.790734,7.743,-0.029,-0.043,1.003,0.002,-0.002,0.0,-902.86,159.04,-917.28,995.57,25.12,178.46
2025-11-03T07:01:59.801638,7.754,-0.028,-0.043,1.003,0.001,-0.002,0.0,-902.02,160.16,-912.1,995.54,25.12,178.67
2025-11-03T07:01:59.812677,7.765,-0.028,-0.044,1.003,0.001,-0.002,0.0,-902.02,160.16,-912.1,995.54,25.12,178.71
2025-11-03T07:01:59.823584,7.776,-0.028,-0.044,1.002,0.001,-0.002,0.001,-901.32,158.06,-911.4,995.59,25.12,178.27
2025-11-03T07:01:59.834644,7.787,-0.028,-0.042,1.002,0.001,-0.002,0.001,-896.56,161.56,-913.78,995.52,25.12,178.83
2025-11-03T07:01:59.845727,7.798,-0.028,-0.044,1.002,0.002,-0.002,0.001,-897.54,158.06,-910.7,995.61,25.12,178.06
2025-11-03T07:01:59.856599,7.809,-0.028,-0.043,1.001,0.001,-0.002,0.001,-900.48,158.62,-911.12,995.52,25.11,178.88
2025-11-03T07:01:59.867669,7.820,-0.027,-0.043,1.004,0.001,-0.002,0.0,-903.56,160.58,-909.72,995.5,25.12,179.02
2025-11-03T07:01:59.878722,7.831,-0.028,-0.044,1.002,0.002,-0.002,0.0,-903.98,156.38,-911.4,995.64,25.12,177.88
2025-11-03T07:01:59.889612,7.842,-0.029,-0.042,1.003,0.001,-0.002,0.0,-903.98,156.38,-914.9,995.53,25.12,178.74
2025-11-03T07:01:59.900669,7.853,-0.029,-0.042,1.003,0.002,-0.002,0.0,-904.26,156.66,-914.9,995.54,25.12,178.71
2025-11-03T07:01:59.911580,7.864,-0.028,-0.043,1.003,0.002,-0.002,0.0,-900.9,156.94,-914.76,995.52,25.12,178.88
2025-11-03T07:01:59.922636,7.875,-0.027,-0.043,1.002,0.001,-0.001,0.0,-900.9,158.06,-910.42,995.56,25.12,178.53
2025-11-03T07:01:59.933694,7.886,-0.027,-0.043,1.004,0.001,-0.002,0.0,-901.74,156.38,-907.06,995.47,25.12,179.32
2025-11-03T07:01:59.944594,7.897,-0.029,-0.041,1.001,0.001,-0.002,0.001,-900.34,153.02,-912.24,995.57,25.12,178.46
2025-11-03T07:01:59.955820,7.908,-0.027,-0.043,1.002,0.001,-0.002,0.0,-905.1,159.88,-912.52,995.53,25.12,178.79
2025-11-03T07:01:59.966741,7.919,-0.029,-0.043,1.003,0.002,-0.002,0.001,-905.1,156.24,-915.18,995.64,25.12,177.84
2025-11-03T07:01:59.977627,7.930,-0.028,-0.042,1.002,0.001,-0.002,0.0,-905.38,156.24,-915.18,995.62,25.12,178.03
2025-11-03T07:01:59.988685,7.941,-0.029,-0.042,1.002,0.001,-0.002,0.0,-902.16,162.68,-911.96,995.55,25.12,178.63
2025-11-03T07:01:59.999573,7.952,-0.028,-0.043,1.003,0.001,-0.002,0.0,-902.86,162.54,-913.22,995.58,25.12,178.35
2025-11-03T07:02:00.010626,7.963,-0.028,-0.043,1.002,0.001,-0.002,0.0,-897.26,161.84,-905.8,995.6,25.12,178.17
2025-11-03T07:02:00.021700,7.974,-0.029,-0.042,1.003,0.001,-0.002,0.0,-901.88,159.18,-907.62,995.56,25.11,178.53
2025-11-03T07:02:00.032602,7.985,-0.029,-0.044,1.002,0.002,-0.002,0.0,-900.76,162.26,-912.94,995.57,25.12,178.43
2025-11-03T07:02:00.043675,7.996,-0.028,-0.042,1.003,0.001,-0.002,0.001,-900.2,162.26,-912.24,995.57,25.12,178.48
2025-11-03T07:02:00.054758,8.007,-0.028,-0.043,1.002,0.001,-0.001,0.0,-900.2,162.26,-912.24,995.6,25.12,178.17
2025-11-03T07:02:00.065629,8.018,-0.028,-0.043,1.002,0.001,-0.002,0.001,-897.12,159.6,-913.5,995.61,25.12,178.09
2025-11-03T07:02:00.076511,8.029,-0.03,-0.044,1.003,0.001,-0.002,0.0,-897.4,160.3,-906.5,995.54,25.12,178.71
2025-11-03T07:02:00.087596,8.040,-0.028,-0.043,1.002,0.002,-0.002,0.0,-902.16,159.04,-909.02,995.52,25.12,178.82
2025-11-03T07:02:00.098686,8.051,-0.029,-0.042,1.002,0.001,-0.002,0.0,-902.3,161.42,-916.16,995.54,25.12,178.73
2025-11-03T07:02:00.109704,8.062,-0.028,-0.042,1.003,0.001,-0.002,0.0,-901.18,159.6,-914.48,995.53,25.12,178.81
2025-11-03T07:02:00.120598,8.073,-0.029,-0.043,1.002,0.001,-0.002,0.001,-901.46,159.6,-913.64,995.6,25.12,178.16
2025-11-03T07:02:00.131751,8.084,-0.028,-0.043,1.003,0.002,-0.002,0.0,-901.46,159.6,-913.64,995.61,25.12,178.13
2025-11-03T07:02:00.142716,8.095,-0.028,-0.043,1.001,0.001,-0.002,0.0,-903.42,158.9,-913.78,995.57,25.12,178.47
2025-11-03T07:02:00.153611,8.106,-0.027,-0.042,1.003,0.001,-0.002,0.0,-900.2,159.04,-905.38,995.65,25.12,177.8
2025-11-03T07:02:00.164788,8.117,-0.028,-0.042,1.001,0.001,-0.002,0.0,-898.52,159.74,-910.56,995.6,25.12,178.19
2025-11-03T07:02:00.175586,8.128,-0.027,-0.042,1.002,0.001,-0.002,0.0,-903.7,164.64,-917.14,995.54,25.12,178.67
2025-11-03T07:02:00.186639,8.139,-0.028,-0.042,1.002,0.001,-0.002,0.0,-902.86,159.74,-909.3,995.54,25.12,178.68
2025-11-03T07:02:00.197696,8.150,-0.028,-0.042,1.002,0.002,-0.002,0.001,-905.52,157.78,-911.96,995.65,25.12,177.81
2025-11-03T07:02:00.208589,8.161,-0.028,-0.043,1.002,0.001,-0.002,0.0,-905.52,157.78,-911.96,995.5,25.12,179.02
2025-11-03T07:02:00.219653,8.172,-0.028,-0.042,1.003,0.002,-0.002,0.0,-908.74,157.36,-915.18,995.57,25.12,178.45
2025-11-03T07:02:00.230698,8.183,-0.028,-0.041,1.002,0.001,-0.002,0.0,-905.1,160.02,-907.62,995.54,25.12,178.68
2025-11-03T07:02:00.241597,8.194,-0.027,-0.042,1.003,0.001,-0.002,0.001,-902.16,159.32,-910.28,995.59,25.12,178.29
2025-11-03T07:02:00.252691,8.205,-0.028,-0.042,1.003,0.001,-0.002,0.001,-904.82,157.22,-914.34,995.61,25.12,178.08
2025-11-03T07:02:00.263732,8.216,-0.028,-0.042,1.003,0.001,-0.001,0.001,-901.74,157.22,-911.4,995.59,25.12,178.25
2025-11-03T07:02:00.274617,8.227,-0.028,-0.042,1.003,0.002,-0.002,0.001,-902.16,155.4,-913.36,995.52,25.12,178.85
2025-11-03T07:02:00.285741,8.238,-0.03,-0.043,1.002,0.001,-0.002,0.0,-902.16,155.4,-913.36,995.53,25.12,178.79
2025-11-03T07:02:00.296788,8.249,-0.028,-0.041,1.001,0.001,-0.001,0.0,-908.04,157.5,-908.6,995.59,25.12,178.28
2025-11-03T07:02:00.307678,8.260,-0.028,-0.043,1.002,0.002,-0.002,0.0,-905.1,156.52,-905.66,995.55,25.12,178.64
2025-11-03T07:02:00.318714,8.271,-0.028,-0.042,1.002,0.002,-0.002,0.0,-901.74,156.52,-910.28,995.63,25.12,177.97
2025-11-03T07:02:00.329585,8.282,-0.028,-0.043,1.003,0.001,-0.002,0.0,-906.36,160.3,-906.22,995.59,25.11,178.27
2025-11-03T07:02:00.340669,8.293,-0.029,-0.043,1.003,0.001,-0.002,0.001,-906.22,161.56,-913.22,995.57,25.12,178.48
2025-11-03T07:02:00.351736,8.304,-0.029,-0.044,1.003,0.001,-0.002,0.0,-905.1,159.6,-909.3,995.64,25.11,177.83
2025-11-03T07:02:00.362609,8.315,-0.029,-0.043,1.002,0.001,-0.002,0.0,-905.1,159.6,-909.3,995.56,25.12,178.5
2025-11-03T07:02:00.373669,8.326,-0.029,-0.042,1.003,0.002,-0.002,0.0,-903.7,160.58,-910.84,995.49,25.12,179.09
2025-11-03T07:02:00.384727,8.337,-0.029,-0.042,1.002,0.001,-0.002,0.0,-902.72,157.64,-906.36,995.57,25.12,178.46
2025-11-03T07:02:00.395615,8.348,-0.028,-0.044,1.002,0.001,-0.002,0.0,-904.26,152.88,-912.66,995.61,25.12,178.14
2025-11-03T07:02:00.406682,8.359,-0.027,-0.043,1.002,0.002,-0.002,0.0,-904.4,159.88,-911.68,995.59,25.12,178.3
2025-11-03T07:02:00.417566,8.370,-0.028,-0.043,1.001,0.001,-0.001,0.0,-898.66,159.46,-911.54,995.58,25.12,178.36
2025-11-03T07:02:00.428633,8.381,-0.028,-0.043,1.002,0.001,-0.002,0.0,-902.3,161.7,-911.68,995.54,25.12,178.66
2025-11-03T07:02:00.439708,8.392,-0.029,-0.043,1.003,0.001,-0.002,0.0,-902.3,161.7,-911.68,995.48,25.12,179.18
2025-11-03T07:02:00.450590,8.403,-0.028,-0.042,1.002,0.001,-0.002,0.0,-902.3,159.18,-913.5,995.61,25.12,178.14
2025-11-03T07:02:00.461657,8.414,-0.028,-0.043,1.002,0.002,-0.002,0.0,-904.82,159.18,-911.12,995.53,25.12,178.75
2025-11-03T07:02:00.472712,8.425,-0.029,-0.043,1.002,0.001,-0.002,0.0,-902.58,159.88,-916.72,995.58,25.12,178.34
2025-11-03T07:02:00.483604,8.436,-0.027,-0.044,1.002,0.001,-0.002,0.0,-905.52,156.8,-910.42,995.58,25.12,178.34
2025-11-03T07:02:00.494668,8.447,-0.028,-0.043,1.003,0.002,-0.002,0.0,-902.86,162.4,-910.56,995.6,25.12,178.19
2025-11-03T07:02:00.505908,8.458,-0.029,-0.043,1.002,0.001,-0.002,0.0,-900.34,158.34,-908.32,995.61,25.12,178.14
2025-11-03T07:02:00.516624,8.469,-0.028,-0.042,1.002,0.001,-0.002,0.0,-900.34,158.34,-908.32,995.55,25.12,178.59
2025-11-03T07:02:00.527694,8.480,-0.028,-0.043,1.002,0.001,-0.002,0.0,-906.36,160.02,-912.52,995.54,25.12,178.73
2025-11-03T07:02:00.538582,8.491,-0.028,-0.043,1.003,0.001,-0.002,0.0,-904.26,160.02,-910.84,995.52,25.12,178.87
2025-11-03T07:02:00.549640,8.502,-0.028,-0.043,1.002,0.002,-0.002,0.0,-903.42,163.24,-909.3,995.64,25.12,177.87
2025-11-03T07:02:00.560729,8.513,-0.028,-0.043,1.003,0.001,-0.002,0.0,-903.42,159.46,-918.82,995.56,25.11,178.55
2025-11-03T07:02:00.571604,8.524,-0.029,-0.043,1.002,0.001,-0.001,0.0,-906.08,157.36,-912.66,995.63,25.12,177.97
2025-11-03T07:02:00.582658,8.535,-0.028,-0.042,1.003,0.002,-0.002,0.0,-904.96,160.02,-909.3,995.55,25.11,178.62
2025-11-03T07:02:00.593549,8.546,-0.028,-0.042,1.002,0.001,-0.002,0.0,-904.96,160.02,-912.8,995.6,25.12,178.22
2025-11-03T07:02:00.604629,8.557,-0.027,-0.042,1.003,0.001,-0.002,0.001,-903.0,154.28,-912.8,995.63,25.12,177.92
2025-11-03T07:02:00.615705,8.568,-0.028,-0.043,1.002,0.001,-0.002,0.0,-902.3,156.38,-916.58,995.6,25.12,178.21
2025-11-03T07:02:00.626594,8.579,-0.028,-0.043,1.002,0.002,-0.002,0.0,-900.76,160.02,-909.72,995.61,25.12,178.12
2025-11-03T07:02:00.637643,8.590,-0.028,-0.042,1.002,0.002,-0.002,0.001,-901.04,158.76,-907.06,995.58,25.12,178.38
2025-11-03T07:02:00.648695,8.601,-0.029,-0.043,1.002,0.001,-0.002,0.0,-904.82,161.0,-913.36,995.61,25.12,178.13
2025-11-03T07:02:00.659590,8.612,-0.028,-0.043,1.002,0.001,-0.002,0.0,-902.44,159.74,-917.56,995.55,25.12,178.6
2025-11-03T07:02:00.670644,8.623,-0.029,-0.043,1.003,0.001,-0.002,0.0,-902.44,160.16,-917.56,995.62,25.11,178.04
2025-11-03T07:02:00.681707,8.634,-0.027,-0.043,1.001,0.001,-0.002,0.001,-899.08,160.16,-917.56,995.56,25.12,178.5
2025-11-03T07:02:00.692601,8.645,-0.029,-0.042,1.002,0.002,-0.002,0.0,-900.76,158.62,-911.12,995.59,25.12,178.31
2025-11-03T07:02:00.703675,8.656,-0.03,-0.043,1.002,0.002,-0.002,0.0,-902.44,160.86,-916.58,995.57,25.12,178.4
2025-11-03T07:02:00.714730,8.667,-0.028,-0.043,1.002,0.001,-0.002,0.0,-899.78,158.62,-911.12,995.53,25.12,178.79
2025-11-03T07:02:00.725608,8.678,-0.028,-0.043,1.002,0.001,-0.002,0.001,-897.96,161.0,-917.42,995.53,25.12,178.75
2025-11-03T07:02:00.736679,8.689,-0.029,-0.043,1.002,0.001,-0.002,0.0,-901.32,154.56,-914.34,995.61,25.12,178.11
2025-11-03T07:02:00.747573,8.700,-0.029,-0.044,1.002,0.001,-0.002,0.0,-903.56,158.06,-917.56,995.51,25.12,178.97
2025-11-03T07:02:00.758636,8.711,-0.029,-0.043,1.002,0.001,-0.002,0.0,-903.56,158.06,-917.56,995.56,25.12,178.54
2025-11-03T07:02:00.769700,8.722,-0.028,-0.043,1.001,0.001,-0.002,0.0,-901.04,159.04,-918.54,995.52,25.12,178.89
2025-11-03T07:02:00.780593,8.733,-0.027,-0.042,1.003,0.002,-0.002,0.0,-900.06,159.6,-911.96,995.52,25.12,178.88
2025-11-03T07:02:00.791690,8.744,-0.028,-0.043,1.002,0.001,-0.002,0.0,-900.06,160.3,-912.24,995.54,25.12,178.69
2025-11-03T07:02:00.802716,8.755,-0.029,-0.042,1.002,0.001,-0.002,0.0,-900.48,158.62,-908.32,995.54,25.12,178.71
2025-11-03T07:02:00.813625,8.766,-0.029,-0.043,1.003,0.001,-0.002,0.0,-899.22,160.72,-910.0,995.55,25.12,178.58
2025-11-03T07:02:00.824679,8.777,-0.028,-0.043,1.002,0.001,-0.002,0.001,-903.28,154.14,-916.72,995.48,25.12,179.23
2025-11-03T07:02:00.835720,8.788,-0.028,-0.042,1.003,0.001,-0.002,0.0,-903.28,154.14,-916.72,995.5,25.12,179.01
2025-11-03T07:02:00.846613,8.799,-0.028,-0.042,1.002,0.001,-0.002,0.0,-902.3,156.1,-908.18,995.52,25.12,178.87
2025-11-03T07:02:00.922430,8.875,-0.028,-0.043,1.001,0.001,-0.002,0.001,-904.54,162.4,-910.0,995.61,25.12,178.08
2025-11-03T07:02:00.923739,8.876,-0.028,-0.043,1.003,0.001,-0.002,0.0,-905.66,160.86,-913.5,995.57,25.12,178.47
2025-11-03T07:02:00.924803,8.877,-0.027,-0.043,1.001,0.001,-0.002,0.0,-901.74,164.64,-914.9,995.52,25.12,178.88
2025-11-03T07:02:00.925885,8.878,-0.029,-0.043,1.002,0.001,-0.002,0.001,-900.2,170.1,-913.36,995.56,25.12,178.52
2025-11-03T07:02:00.926928,8.879,-0.029,-0.043,1.003,0.001,-0.002,0.0,-897.96,164.92,-916.44,995.5,25.12,179.02
2025-11-03T07:02:00.927977,8.880,-0.027,-0.042,1.003,0.001,-0.002,0.0,-897.96,164.92,-916.44,995.55,25.12,178.58
2025-11-03T07:02:00.929017,8.881,-0.028,-0.042,1.002,0.001,-0.002,0.0,-899.36,167.58,-909.72,995.54,25.12,178.7
2025-11-03T07:02:00.934561,8.887,-0.029,-0.043,1.004,0.002,-0.002,0.0,-901.04,165.34,-913.64,995.59,25.12,178.25
2025-11-03T07:02:00.945608,8.898,-0.029,-0.041,1.001,0.001,-0.002,0.0,-901.74,165.76,-912.94,995.56,25.11,178.53
2025-11-03T07:02:00.956710,8.909,-0.029,-0.043,1.002,0.001,-0.002,0.0,-906.22,165.48,-911.4,995.52,25.12,178.85
2025-11-03T07:02:00.967690,8.920,-0.028,-0.042,1.002,0.001,-0.002,0.0,-898.94,159.6,-913.36,995.57,25.12,178.44
2025-11-03T07:02:00.979002,8.931,-0.027,-0.043,1.003,0.002,-0.002,0.0,-901.32,163.66,-911.68,995.59,25.12,178.3
2025-11-03T07:02:00.989612,8.942,-0.027,-0.044,1.002,0.001,-0.002,0.0,-901.32,163.66,-911.68,995.55,25.12,178.58
2025-11-03T07:02:01.000631,8.953,-0.029,-0.043,1.003,0.001,-0.002,0.0,-903.14,166.18,-909.02,995.55,25.12,178.58
2025-11-03T07:02:01.011689,8.964,-0.027,-0.042,1.001,0.001,-0.002,0.0,-902.58,163.1,-911.54,995.59,25.12,178.26
2025-11-03T07:02:01.022573,8.975,-0.029,-0.043,1.002,0.001,-0.002,0.0,-899.92,166.32,-908.32,995.58,25.12,178.34
2025-11-03T07:02:01.033726,8.986,-0.029,-0.042,1.002,0.002,-0.002,0.0,-900.06,158.34,-907.06,995.62,25.12,177.99
2025-11-03T07:02:01.044697,8.997,-0.027,-0.044,1.002,0.002,-0.002,0.001,-899.5,161.42,-908.6,995.57,25.12,178.46
2025-11-03T07:02:01.055594,9.008,-0.029,-0.044,1.003,0.001,-0.002,0.0,-903.14,162.54,-903.7,995.53,25.12,178.77
2025-11-03T07:02:01.066665,9.019,-0.029,-0.043,1.003,0.001,-0.002,0.0,-903.14,162.54,-903.7,995.55,25.11,178.63
2025-11-03T07:02:01.077722,9.030,-0.029,-0.043,1.002,0.001,-0.002,0.0,-902.3,165.9,-904.54,995.53,25.12,178.75
2025-11-03T07:02:01.088612,9.041,-0.028,-0.043,1.002,0.001,-0.002,0.0,-901.04,159.74,-909.02,995.54,25.12,178.69
2025-11-03T07:02:01.099667,9.052,-0.029,-0.042,1.003,0.001,-0.001,0.0,-898.1,159.46,-909.58,995.61,25.12,178.13
2025-11-03T07:02:01.110601,9.063,-0.028,-0.043,1.002,0.001,-0.002,0.0,-902.3,159.32,-908.88,995.58,25.12,178.37
2025-11-03T07:02:01.121627,9.074,-0.028,-0.042,1.002,0.002,-0.002,0.0,-900.06,164.78,-919.66,995.56,25.12,178.53
2025-11-03T07:02:01.132782,9.085,-0.028,-0.043,1.002,0.001,-0.002,0.0,-902.44,165.62,-916.58,995.53,25.12,178.78
2025-11-03T07:02:01.143587,9.096,-0.027,-0.043,1.003,0.001,-0.002,0.0,-902.44,165.62,-916.58,995.5,25.12,179.03
2025-11-03T07:02:01.154660,9.107,-0.028,-0.043,1.003,0.001,-0.002,0.001,-901.04,167.44,-908.6,995.56,25.12,178.5
2025-11-03T07:02:01.165724,9.118,-0.027,-0.042,1.002,0.001,-0.002,0.001,-899.36,165.76,-910.42,995.6,25.12,178.17
2025-11-03T07:02:01.176610,9.129,-0.027,-0.042,1.002,0.001,-0.002,0.0,-903.14,165.76,-906.36,995.56,25.12,178.53
2025-11-03T07:02:01.187741,9.140,-0.028,-0.042,1.003,0.001,-0.002,0.0,-900.62,165.48,-909.44,995.64,25.12,177.83
2025-11-03T07:02:01.198447,9.151,-0.027,-0.042,1.003,0.001,-0.002,0.0,-900.48,166.18,-902.3,995.52,25.12,178.9
2025-11-03T07:02:01.209553,9.162,-0.029,-0.042,1.002,0.001,-0.002,0.0,-902.3,164.92,-911.54,995.5,25.12,179.03
2025-11-03T07:02:01.220504,9.173,-0.028,-0.043,1.003,0.001,-0.002,0.0,-902.3,164.92,-911.54,995.58,25.12,178.39
2025-11-03T07:02:01.231651,9.184,-0.028,-0.043,1.002,0.001,-0.002,0.0,-901.32,163.8,-903.56,995.56,25.12,178.53
2025-11-03T07:02:01.242656,9.195,-0.028,-0.043,1.003,0.001,-0.002,0.0,-905.38,163.94,-907.62,995.57,25.12,178.45
2025-11-03T07:02:01.253872,9.206,-0.029,-0.042,1.003,0.002,-0.002,0.0,-903.84,161.98,-908.74,995.47,25.12,179.26
2025-11-03T07:02:01.264604,9.217,-0.028,-0.042,1.002,0.001,-0.002,0.0,-905.52,163.52,-909.58,995.52,25.12,178.85
2025-11-03T07:02:01.275644,9.228,-0.028,-0.044,1.001,0.001,-0.002,0.0,-904.26,162.68,-914.76,995.64,25.12,177.85
2025-11-03T07:02:01.287095,9.239,-0.028,-0.043,1.002,0.001,-0.001,0.0,-905.94,162.54,-901.04,995.52,25.12,178.84
2025-11-03T07:02:01.297603,9.250,-0.029,-0.043,1.003,0.001,-0.002,0.0,-905.94,162.54,-901.04,995.53,25.12,178.79
2025-11-03T07:02:01.308663,9.261,-0.028,-0.043,1.002,0.001,-0.002,0.0,-907.2,164.64,-909.16,995.59,25.11,178.27
2025-11-03T07:02:01.320060,9.272,-0.029,-0.042,1.003,0.002,-0.002,0.0,-905.52,162.4,-913.22,995.59,25.12,178.29
2025-11-03T07:02:01.330654,9.283,-0.028,-0.044,1.001,0.001,-0.002,0.001,-906.36,161.14,-912.1,995.61,25.12,178.12
2025-11-03T07:02:01.341699,9.294,-0.028,-0.044,1.002,0.001,-0.001,0.0,-906.36,160.86,-901.46,995.61,25.12,178.07
2025-11-03T07:02:01.352578,9.305,-0.027,-0.042,1.002,0.001,-0.002,0.0,-907.2,162.68,-899.92,995.54,25.12,178.69
2025-11-03T07:02:01.363641,9.316,-0.027,-0.042,1.002,0.001,-0.002,0.0,-905.38,161.42,-909.3,995.63,25.12,177.9
2025-11-03T07:02:01.374716,9.327,-0.028,-0.042,1.003,0.001,-0.002,0.0,-905.38,161.42,-908.04,995.57,25.12,178.43
2025-11-03T07:02:01.385605,9.338,-0.029,-0.043,1.003,0.001,-0.002,0.0,-900.62,163.52,-908.04,995.57,25.12,178.4
2025-11-03T07:02:01.396672,9.349,-0.028,-0.042,1.002,0.001,-0.002,0.0,-903.28,163.8,-906.22,995.65,25.12,177.75
2025-11-03T07:02:01.407571,9.360,-0.029,-0.043,1.002,0.001,-0.001,0.001,-905.1,163.1,-912.24,995.61,25.12,178.1
2025-11-03T07:02:01.418625,9.371,-0.028,-0.043,1.002,0.001,-0.002,0.0,-906.64,166.18,-900.48,995.51,25.12,178.91
2025-11-03T07:02:01.429704,9.382,-0.028,-0.042,1.002,0.002,-0.002,0.0,-904.26,160.86,-896.84,995.6,25.12,178.2
2025-11-03T07:02:01.440572,9.393,-0.028,-0.044,1.002,0.001,-0.002,0.0,-905.1,162.4,-906.78,995.58,25.12,178.33
2025-11-03T07:02:01.451630,9.404,-0.028,-0.043,1.003,0.001,-0.002,0.0,-905.1,163.52,-902.3,995.57,25.12,178.42
2025-11-03T07:02:01.462729,9.415,-0.029,-0.041,1.003,0.001,-0.002,0.0,-903.56,163.52,-902.3,995.49,25.12,179.13
2025-11-03T07:02:01.473608,9.426,-0.029,-0.042,1.003,0.001,-0.002,0.001,-903.56,167.58,-912.94,995.63,25.12,177.92
2025-11-03T07:02:01.484666,9.437,-0.028,-0.043,1.001,0.002,-0.002,0.001,-906.36,163.8,-915.88,995.6,25.12,178.15
2025-11-03T07:02:01.495600,9.448,-0.028,-0.042,1.003,0.002,-0.002,0.001,-906.22,164.22,-907.34,995.58,25.12,178.4
2025-11-03T07:02:01.507000,9.459,-0.028,-0.043,1.002,0.001,-0.002,0.001,-903.14,163.38,-913.22,995.54,25.12,178.7
2025-11-03T07:02:01.517696,9.470,-0.028,-0.042,1.002,0.001,-0.002,0.0,-903.28,164.36,-912.94,995.51,25.12,178.97
2025-11-03T07:02:01.528580,9.481,-0.029,-0.043,1.002,0.001,-0.002,0.0,-903.56,162.12,-918.26,995.58,25.12,178.33
2025-11-03T07:02:01.539638,9.492,-0.028,-0.041,1.003,0.001,-0.002,0.0,-903.56,162.12,-918.26,995.61,25.12,178.11
2025-11-03T07:02:01.550694,9.503,-0.029,-0.043,1.002,0.001,-0.002,0.0,-902.58,161.7,-910.56,995.57,25.12,178.45
2025-11-03T07:02:01.561598,9.514,-0.028,-0.042,1.003,0.001,-0.002,0.0,-902.72,163.94,-913.22,995.56,25.12,178.53
2025-11-03T07:02:01.572672,9.525,-0.028,-0.043,1.002,0.001,-0.002,0.0,-905.94,163.94,-909.02,995.51,25.12,178.94
2025-11-03T07:02:01.583576,9.536,-0.028,-0.042,1.003,0.001,-0.002,0.0,-902.72,164.22,-914.76,995.59,25.12,178.26
2025-11-03T07:02:01.594626,9.547,-0.028,-0.043,1.001,0.001,-0.002,0.0,-904.26,162.68,-918.82,995.53,25.12,178.79
2025-11-03T07:02:01.605699,9.558,-0.028,-0.042,1.003,0.001,-0.002,0.001,-898.66,163.38,-913.92,995.58,25.12,178.34
2025-11-03T07:02:01.616585,9.569,-0.03,-0.042,1.002,0.001,-0.002,0.0,-898.66,163.38,-913.92,995.58,25.12,178.37
2025-11-03T07:02:01.627664,9.580,-0.029,-0.043,1.003,0.001,-0.002,0.0,-905.24,162.96,-915.18,995.52,25.11,178.83
2025-11-03T07:02:01.638583,9.591,-0.028,-0.044,1.001,0.001,-0.002,0.0,-907.76,164.08,-911.54,995.55,25.12,178.57
2025-11-03T07:02:01.649612,9.602,-0.029,-0.044,1.002,0.001,-0.002,0.0,-900.62,160.16,-911.96,995.52,25.12,178.87
2025-11-03T07:02:01.660681,9.613,-0.029,-0.043,1.002,0.001,-0.002,0.001,-905.1,164.5,-909.58,995.59,25.12,178.26
2025-11-03T07:02:01.671786,9.624,-0.028,-0.043,1.002,0.002,-0.002,0.0,-901.74,162.54,-912.38,995.53,25.12,178.75
2025-11-03T07:02:01.682813,9.635,-0.028,-0.042,1.003,0.001,-0.002,0.0,-906.22,161.98,-910.84,995.54,25.12,178.71
2025-11-03T07:02:01.693729,9.646,-0.028,-0.042,1.001,0.001,-0.002,0.0,-906.22,161.98,-910.84,995.58,25.12,178.34
2025-11-03T07:02:01.704672,9.657,-0.028,-0.042,1.002,0.002,-0.002,0.0,-905.24,161.28,-910.7,995.6,25.12,178.21
2025-11-03T07:02:01.715693,9.668,-0.028,-0.044,1.002,0.001,-0.002,0.0,-902.16,164.08,-911.4,995.58,25.12,178.39
2025-11-03T07:02:01.726676,9.679,-0.027,-0.043,1.002,0.001,-0.002,0.0,-905.38,167.3,-911.68,995.56,25.12,178.5
2025-11-03T07:02:01.737641,9.690,-0.027,-0.042,1.002,0.001,-0.002,0.0,-902.3,165.06,-913.92,995.58,25.12,178.37
2025-11-03T07:02:01.748787,9.701,-0.029,-0.041,1.002,0.002,-0.002,0.0,-899.64,164.92,-915.74,995.59,25.12,178.28
2025-11-03T07:02:01.759638,9.712,-0.027,-0.041,1.002,0.001,-0.002,0.0,-904.54,163.52,-914.2,995.58,25.12,178.38
2025-11-03T07:02:01.770690,9.723,-0.029,-0.042,1.002,0.002,-0.002,0.0,-904.54,163.52,-914.2,995.54,25.12,178.7
2025-11-03T07:02:01.781594,9.734,-0.027,-0.042,1.002,0.001,-0.002,0.001,-901.04,163.8,-915.74,995.64,25.12,177.82
2025-11-03T07:02:01.792644,9.745,-0.03,-0.044,1.002,0.001,-0.002,0.0,-902.44,163.94,-911.26,995.5,25.12,179.04
2025-11-03T07:02:01.803722,9.756,-0.028,-0.043,1.004,0.002,-0.002,0.001,-903.42,160.44,-913.92,995.54,25.12,178.71
2025-11-03T07:02:01.814590,9.767,-0.029,-0.042,1.003,0.002,-0.002,0.001,-903.84,160.86,-921.48,995.6,25.12,178.2
2025-11-03T07:02:01.825680,9.778,-0.03,-0.042,1.002,0.002,-0.002,0.0,-904.4,156.66,-916.72,995.53,25.12,178.78
2025-11-03T07:02:01.836582,9.789,-0.029,-0.043,1.001,0.001,-0.002,0.0,-902.72,162.54,-917.28,995.48,25.12,179.24
2025-11-03T07:02:01.847619,9.800,-0.029,-0.043,1.003,0.001,-0.002,0.0,-902.72,162.54,-917.28,995.56,25.12,178.54
2025-11-03T07:02:01.858704,9.811,-0.029,-0.044,1.003,0.002,-0.002,0.0,-905.24,164.08,-919.94,995.64,25.12,177.86
2025-11-03T07:02:01.869595,9.822,-0.027,-0.042,1.003,0.001,-0.002,0.0,-905.38,159.04,-919.24,995.62,25.12,178.04
2025-11-03T07:02:01.881095,9.833,-0.029,-0.043,1.003,0.001,-0.002,0.0,-902.44,162.12,-914.06,995.61,25.12,178.11
2025-11-03T07:02:01.891603,9.844,-0.028,-0.043,1.002,0.001,-0.002,0.0,-901.74,160.86,-914.76,995.59,25.12,178.23
2025-11-03T07:02:01.902622,9.855,-0.029,-0.043,1.001,0.001,-0.002,0.001,-904.4,161.42,-917.98,995.58,25.12,178.33
2025-11-03T07:02:01.913696,9.866,-0.029,-0.043,1.002,0.002,-0.002,0.0,-905.1,161.42,-914.2,995.56,25.12,178.53
2025-11-03T07:02:01.924593,9.877,-0.029,-0.043,1.002,0.001,-0.002,0.0,-905.1,161.42,-914.2,995.58,25.12,178.35
2025-11-03T07:02:01.935664,9.888,-0.029,-0.043,1.002,0.001,-0.002,0.0,-905.1,161.7,-919.24,995.51,25.12,178.94
2025-11-03T07:02:01.946575,9.899,-0.028,-0.041,1.003,0.001,-0.002,0.0,-903.42,166.04,-914.34,995.58,25.12,178.35
2025-11-03T07:02:01.957634,9.910,-0.028,-0.041,1.003,0.001,-0.002,0.0,-900.34,161.14,-913.08,995.55,25.12,178.61
2025-11-03T07:02:01.968708,9.921,-0.027,-0.042,1.003,0.001,-0.002,0.0,-901.88,163.8,-913.36,995.6,25.12,178.19
2025-11-03T07:02:01.979586,9.932,-0.028,-0.041,1.002,0.001,-0.002,0.0,-900.2,166.04,-910.14,995.58,25.12,178.32
2025-11-03T07:02:01.990881,9.943,-0.028,-0.042,1.002,0.001,-0.002,0.0,-900.76,163.24,-914.62,995.46,25.12,179.37
2025-11-03T07:02:02.001664,9.954,-0.027,-0.043,1.004,0.001,-0.002,0.0,-900.76,163.24,-914.62,995.55,25.12,178.59
2025-11-03T07:02:02.012681,9.965,-0.029,-0.043,1.004,0.002,-0.002,0.0,-903.0,162.54,-910.28,995.6,25.11,178.22
2025-11-03T07:02:02.023704,9.976,-0.027,-0.042,1.002,0.002,-0.002,0.0,-902.02,163.24,-909.58,995.51,25.12,178.99
2025-11-03T07:02:02.034678,9.987,-0.028,-0.042,1.002,0.001,-0.002,0.0,-900.2,167.86,-913.64,995.55,25.12,178.6
2025-11-03T07:02:02.045638,9.998,-0.028,-0.043,1.002,0.001,-0.002,0.0,-902.58,165.2,-919.66,995.52,25.12,178.87
2025-11-03T07:02:02.056696,10.009,-0.027,-0.042,1.002,0.001,-0.002,0.0,-898.8,163.52,-914.62,995.54,25.12,178.65
2025-11-03T07:02:02.067601,10.020,-0.028,-0.043,1.002,0.001,-0.002,0.0,-897.12,165.62,-917.42,995.6,25.12,178.21
2025-11-03T07:02:02.078726,10.031,-0.028,-0.044,1.002,0.001,-0.002,0.001,-897.12,165.62,-914.9,995.49,25.12,179.11
2025-11-03T07:02:02.089580,10.042,-0.027,-0.043,1.002,0.001,-0.002,0.001,-901.04,166.46,-914.9,995.61,25.12,178.09
2025-11-03T07:02:02.100625,10.053,-0.028,-0.042,1.002,0.001,-0.002,0.0,-901.32,172.48,-913.22,995.48,25.12,179.18
2025-11-03T07:02:02.111685,10.064,-0.028,-0.042,1.003,0.001,-0.002,0.0,-902.58,169.68,-914.06,995.55,25.12,178.63
2025-11-03T07:02:02.122579,10.075,-0.028,-0.043,1.002,0.001,-0.002,0.001,-902.16,163.38,-913.78,995.5,25.12,179.01
2025-11-03T07:02:02.133663,10.086,-0.029,-0.043,1.002,0.001,-0.002,0.001,-901.6,166.04,-915.74,995.51,25.11,178.95
2025-11-03T07:02:02.144587,10.097,-0.028,-0.042,1.003,0.002,-0.002,0.0,-899.64,166.18,-915.32,995.53,25.12,178.79
2025-11-03T07:02:02.155630,10.108,-0.029,-0.043,1.001,0.001,-0.002,0.0,-899.64,162.4,-917.42,995.63,25.12,177.96
2025-11-03T07:02:02.166672,10.119,-0.029,-0.043,1.003,0.002,-0.002,0.0,-900.9,162.4,-917.42,995.58,25.12,178.32
2025-11-03T07:02:02.177664,10.130,-0.029,-0.042,1.002,0.001,-0.002,0.0,-901.04,164.5,-917.0,995.57,25.12,178.46
2025-11-03T07:02:02.188617,10.141,-0.028,-0.043,1.002,0.001,-0.002,0.0,-904.68,165.34,-918.82,995.58,25.12,178.32
2025-11-03T07:02:02.199679,10.152,-0.029,-0.042,1.002,0.001,-0.002,0.0,-901.46,167.16,-915.18,995.52,25.11,178.88
2025-11-03T07:02:02.210580,10.163,-0.03,-0.041,1.002,0.002,-0.002,0.0,-902.44,163.94,-917.56,995.58,25.12,178.37
2025-11-03T07:02:02.221639,10.174,-0.028,-0.042,1.003,0.001,-0.002,0.0,-905.94,162.4,-916.72,995.58,25.12,178.34
2025-11-03T07:02:02.232588,10.185,-0.028,-0.044,1.003,0.001,-0.002,0.0,-902.86,166.32,-908.74,995.56,25.12,178.52
2025-11-03T07:02:02.243608,10.196,-0.028,-0.043,1.002,0.001,-0.002,0.0,-902.86,166.32,-908.74,995.64,25.12,177.89
2025-11-03T07:02:02.254682,10.207,-0.029,-0.042,1.003,0.001,-0.002,0.0,-904.4,164.5,-908.04,995.58,25.12,178.33
2025-11-03T07:02:02.265601,10.218,-0.027,-0.044,1.003,0.002,-0.002,0.0,-900.9,166.18,-908.6,995.58,25.12,178.39
2025-11-03T07:02:02.276631,10.229,-0.029,-0.043,1.003,0.001,-0.002,0.0,-900.2,165.06,-905.38,995.51,25.12,178.92
2025-11-03T07:02:02.287694,10.240,-0.029,-0.043,1.001,0.001,-0.002,0.0,-902.16,162.82,-904.4,995.61,25.12,178.08
2025-11-03T07:02:02.298589,10.251,-0.027,-0.043,1.003,0.002,-0.002,0.0,-903.0,165.76,-914.48,995.54,25.12,178.72
2025-11-03T07:02:02.309639,10.262,-0.028,-0.042,1.003,0.001,-0.002,0.001,-902.58,164.5,-911.68,995.6,25.12,178.16
2025-11-03T07:02:02.320710,10.273,-0.028,-0.044,1.003,0.001,-0.002,0.001,-902.58,164.5,-911.68,995.59,25.12,178.29
2025-11-03T07:02:02.331634,10.284,-0.028,-0.042,1.003,0.001,-0.002,0.001,-902.58,164.22,-912.38,995.58,25.12,178.32
2025-11-03T07:02:02.342712,10.295,-0.029,-0.043,1.003,0.001,-0.002,0.001,-901.32,163.24,-917.14,995.59,25.12,178.24
2025-11-03T07:02:02.353601,10.306,-0.029,-0.042,1.002,0.002,-0.002,0.0,-899.22,167.3,-912.38,995.61,25.12,178.09
2025-11-03T07:02:02.364616,10.317,-0.029,-0.043,1.002,0.001,-0.002,0.0,-902.3,167.02,-916.86,995.64,25.12,177.89
2025-11-03T07:02:02.375686,10.328,-0.028,-0.043,1.002,0.001,-0.002,0.0,-904.54,169.54,-911.82,995.61,25.12,178.1
2025-11-03T07:02:02.386615,10.339,-0.028,-0.042,1.002,0.001,-0.002,0.0,-903.84,167.58,-911.82,995.61,25.12,178.11
2025-11-03T07:02:02.397613,10.350,-0.028,-0.042,1.002,0.001,-0.002,0.0,-903.84,167.58,-911.82,995.59,25.12,178.23
2025-11-03T07:02:02.408542,10.361,-0.027,-0.044,1.004,0.002,-0.002,0.0,-902.72,168.14,-910.84,995.58,25.12,178.32
2025-11-03T07:02:02.419445,10.372,-0.029,-0.043,1.002,0.001,-0.002,0.0,-899.78,164.08,-916.72,995.56,25.12,178.53
2025-11-03T07:02:02.430594,10.383,-0.027,-0.044,1.003,0.001,-0.002,0.0,-900.34,163.52,-910.98,995.63,25.12,177.91
2025-11-03T07:02:02.441683,10.394,-0.029,-0.043,1.001,0.001,-0.002,0.0,-902.58,165.48,-914.9,995.5,25.12,179.06
2025-11-03T07:02:02.452582,10.405,-0.028,-0.043,1.003,0.002,-0.002,0.001,-904.26,164.22,-921.76,995.54,25.12,178.72
2025-11-03T07:02:02.463774,10.416,-0.027,-0.044,1.002,0.001,-0.002,0.0,-901.46,164.22,-916.72,995.57,25.12,178.45
2025-11-03T07:02:02.475053,10.427,-0.029,-0.042,1.002,0.001,-0.002,0.0,-901.46,164.22,-916.72,995.58,25.12,178.4
2025-11-03T07:02:02.485621,10.438,-0.029,-0.043,1.003,0.001,-0.002,0.001,-902.3,162.4,-921.48,995.55,25.12,178.62
2025-11-03T07:02:02.496672,10.449,-0.027,-0.043,1.003,0.001,-0.002,0.001,-904.54,166.46,-920.5,995.56,25.12,178.5
2025-11-03T07:02:02.507740,10.460,-0.028,-0.043,1.003,0.001,-0.002,0.0,-903.28,163.94,-912.38,995.5,25.12,179.03
2025-11-03T07:02:02.518595,10.471,-0.029,-0.043,1.003,0.001,-0.002,0.001,-904.68,164.08,-919.94,995.56,25.11,178.57
2025-11-03T07:02:02.529650,10.482,-0.028,-0.042,1.002,0.001,-0.002,0.001,-900.48,167.72,-917.84,995.57,25.12,178.43
2025-11-03T07:02:02.540728,10.493,-0.028,-0.043,1.003,0.001,-0.002,-0.078,-903.84,162.68,-914.48,995.54,25.12,178.65
2025-11-03T07:02:02.551587,10.504,-0.029,-0.042,1.002,0.001,-0.002,0.0,-903.84,162.68,-914.48,995.61,25.11,178.13
2025-11-03T07:02:02.562635,10.515,-0.029,-0.043,1.003,0.001,-0.002,0.001,-903.0,161.56,-913.36,995.61,25.12,178.09
2025-11-03T07:02:02.573708,10.526,-0.029,-0.042,1.004,0.001,-0.002,0.001,-903.42,168.0,-916.86,995.53,25.12,178.74
2025-11-03T07:02:02.584589,10.537,-0.029,-0.043,1.003,0.001,-0.002,0.0,-905.52,168.0,-913.36,995.52,25.12,178.87
2025-11-03T07:02:02.595641,10.548,-0.029,-0.042,1.002,0.001,-0.002,0.0,-904.68,167.44,-912.8,995.55,25.12,178.57
2025-11-03T07:02:02.606586,10.559,-0.028,-0.042,1.002,0.001,-0.002,0.0,-902.02,161.98,-916.44,995.56,25.12,178.52
2025-11-03T07:02:02.617582,10.570,-0.028,-0.043,1.002,0.001,-0.002,0.0,-898.24,162.54,-919.1,995.59,25.12,178.29
2025-11-03T07:02:02.628646,10.581,-0.028,-0.043,1.003,0.001,-0.002,0.0,-898.24,162.54,-919.1,995.61,25.12,178.06
2025-11-03T07:02:02.639586,10.592,-0.03,-0.042,1.002,0.001,-0.002,0.001,-902.3,166.18,-927.08,995.57,25.12,178.48
2025-11-03T07:02:02.650597,10.603,-0.029,-0.042,1.002,0.002,-0.002,0.0,-901.74,159.88,-915.04,995.55,25.12,178.6
2025-11-03T07:02:02.661663,10.614,-0.028,-0.042,1.003,0.002,-0.002,0.001,-899.22,159.32,-913.22,995.6,25.12,178.21
2025-11-03T07:02:02.672591,10.625,-0.028,-0.042,1.002,0.001,-0.002,0.0,-897.68,163.94,-914.34,995.49,25.12,179.13
2025-11-03T07:02:02.683621,10.636,-0.028,-0.043,1.001,0.001,-0.001,0.001,-899.22,165.9,-919.38,995.56,25.12,178.57
2025-11-03T07:02:02.694675,10.647,-0.028,-0.043,1.002,0.002,-0.002,0.0,-903.28,159.88,-916.02,995.58,25.12,178.32
2025-11-03T07:02:02.705591,10.658,-0.028,-0.041,1.002,0.001,-0.002,0.0,-903.28,159.88,-916.02,995.58,25.12,178.37
2025-11-03T07:02:02.716626,10.669,-0.03,-0.042,1.002,0.001,-0.002,0.0,-898.38,165.48,-915.04,995.56,25.12,178.55
2025-11-03T07:02:02.727582,10.680,-0.029,-0.043,1.001,0.001,-0.002,0.0,-900.34,161.0,-912.1,995.53,25.12,178.78
2025-11-03T07:02:02.738590,10.691,-0.028,-0.042,1.003,0.002,-0.001,0.001,-898.24,162.82,-915.18,995.5,25.12,179.05
2025-11-03T07:02:02.749647,10.702,-0.028,-0.043,1.002,0.002,-0.002,0.0,-897.26,161.14,-912.38,995.57,25.12,178.45
2025-11-03T07:02:02.760604,10.713,-0.028,-0.044,1.003,0.002,-0.002,0.0,-899.92,159.46,-920.22,995.5,25.11,179.05
2025-11-03T07:02:02.771600,10.724,-0.028,-0.043,1.002,0.001,-0.002,0.0,-896.98,161.14,-921.2,995.57,25.12,178.45
2025-11-03T07:02:02.782658,10.735,-0.028,-0.043,1.002,0.001,-0.002,0.0,-896.98,161.14,-920.5,995.52,25.12,178.82
2025-11-03T07:02:02.793584,10.746,-0.027,-0.043,1.001,0.001,-0.002,0.001,-902.44,160.58,-920.5,995.53,25.12,178.77
2025-11-03T07:02:02.804603,10.757,-0.027,-0.042,1.003,0.001,-0.001,0.001,-904.12,161.14,-922.88,995.59,25.12,178.23
2025-11-03T07:02:02.815677,10.768,-0.028,-0.042,1.001,0.001,-0.002,0.0,-900.48,161.14,-916.86,995.6,25.12,178.17
2025-11-03T07:02:02.826595,10.779,-0.029,-0.043,1.003,0.001,-0.002,0.0,-905.94,164.5,-914.48,995.55,25.12,178.57
2025-11-03T07:02:02.837598,10.790,-0.029,-0.043,1.002,0.001,-0.002,0.0,-902.72,160.3,-919.8,995.59,25.12,178.26
2025-11-03T07:02:02.848662,10.801,-0.026,-0.043,1.002,0.002,-0.002,0.0,-902.44,164.92,-913.36,995.52,25.12,178.86
2025-11-03T07:02:02.859613,10.812,-0.028,-0.043,1.003,0.001,-0.002,0.0,-902.44,161.14,-921.34,995.57,25.12,178.43
2025-11-03T07:02:02.870638,10.823,-0.028,-0.042,1.002,0.001,-0.002,0.0,-902.02,161.14,-921.34,995.59,25.12,178.25
2025-11-03T07:02:02.881713,10.834,-0.028,-0.042,1.003,0.001,-0.002,0.0,-903.14,162.82,-912.24,995.56,25.11,178.54
2025-11-03T07:02:02.892599,10.845,-0.028,-0.043,1.001,0.001,-0.002,0.0,-903.14,160.3,-918.12,995.5,25.12,179.01
2025-11-03T07:02:02.903632,10.856,-0.028,-0.042,1.003,0.001,-0.002,0.0,-902.44,165.2,-914.62,995.59,25.12,178.27
2025-11-03T07:02:02.914692,10.867,-0.029,-0.043,1.002,0.002,-0.002,0.0,-903.42,159.04,-917.56,995.57,25.11,178.48
2025-11-03T07:02:02.925595,10.878,-0.028,-0.043,1.003,0.001,-0.002,0.0,-902.72,161.84,-911.96,995.57,25.11,178.41
2025-11-03T07:02:02.936645,10.889,-0.028,-0.043,1.002,0.001,-0.002,0.0,-902.16,159.04,-912.38,995.53,25.12,178.79
2025-11-03T07:02:02.947604,10.900,-0.027,-0.044,1.002,0.002,-0.002,0.0,-902.16,159.04,-912.38,995.59,25.12,178.29
2025-11-03T07:02:02.958597,10.911,-0.028,-0.043,1.003,0.001,-0.002,0.0,-901.88,162.4,-917.7,995.57,25.12,178.47
2025-11-03T07:02:02.969670,10.922,-0.029,-0.043,1.002,0.001,-0.002,0.0,-900.62,164.22,-917.28,995.48,25.12,179.2
2025-11-03T07:02:02.980606,10.933,-0.03,-0.043,1.003,0.001,-0.002,0.0,-903.0,163.38,-915.6,995.56,25.11,178.54
2025-11-03T07:02:02.991605,10.944,-0.028,-0.043,1.002,0.001,-0.002,0.001,-900.34,165.76,-911.54,995.59,25.12,178.23
2025-11-03T07:02:03.002778,10.955,-0.028,-0.042,1.002,0.002,-0.002,0.001,-898.66,165.62,-914.2,995.66,25.12,177.72
2025-11-03T07:02:03.013623,10.966,-0.028,-0.042,1.002,0.001,-0.002,0.0,-897.96,165.48,-914.34,995.57,25.12,178.45
2025-11-03T07:02:03.025055,10.977,-0.029,-0.044,1.002,0.001,-0.002,0.0,-897.96,165.48,-914.34,995.58,25.12,178.36
2025-11-03T07:02:03.035710,10.988,-0.028,-0.043,1.002,0.001,-0.002,0.0,-898.94,170.94,-909.44,995.58,25.12,178.38
2025-11-03T07:02:03.046612,10.999,-0.027,-0.043,1.002,0.001,-0.002,0.0,-897.96,165.34,-914.9,995.54,25.12,178.71
2025-11-03T07:02:03.133581,11.086,-0.029,-0.042,1.003,0.001,-0.002,0.0,-901.46,164.08,-919.8,995.62,25.12,178.0
2025-11-03T07:02:03.135151,11.088,-0.028,-0.042,1.003,0.001,-0.002,0.0,-902.44,166.32,-914.9,995.57,25.12,178.4
2025-11-03T07:02:03.136387,11.089,-0.029,-0.043,1.002,0.001,-0.002,0.0,-898.24,165.76,-914.48,995.6,25.12,178.21
2025-11-03T07:02:03.137603,11.090,-0.028,-0.043,1.001,0.001,-0.002,0.0,-900.62,163.52,-924.98,995.55,25.12,178.6
2025-11-03T07:02:03.138822,11.091,-0.028,-0.043,1.002,0.001,-0.002,0.0,-900.62,163.52,-924.98,995.55,25.12,178.61
2025-11-03T07:02:03.140027,11.092,-0.028,-0.043,1.002,0.002,-0.002,0.001,-899.08,167.02,-920.08,995.56,25.12,178.51
2025-11-03T07:02:03.141226,11.094,-0.028,-0.044,1.003,0.001,-0.002,0.0,-901.04,162.82,-919.38,995.6,25.12,178.16
2025-11-03T07:02:03.142445,11.095,-0.028,-0.043,1.002,0.001,-0.002,0.0,-900.62,162.12,-911.68,995.54,25.12,178.66
2025-11-03T07:02:03.145567,11.098,-0.027,-0.042,1.002,0.001,-0.002,0.0,-897.68,164.64,-909.3,995.61,25.12,178.12
2025-11-03T07:02:03.156660,11.109,-0.028,-0.044,1.002,0.002,-0.002,0.0,-899.22,167.72,-917.84,995.56,25.12,178.54
2025-11-03T07:02:03.167602,11.120,-0.029,-0.042,1.002,0.002,-0.002,0.0,-900.62,168.0,-920.78,995.56,25.12,178.53
2025-11-03T07:02:03.178706,11.131,-0.028,-0.043,1.002,0.001,-0.002,0.0,-900.62,168.0,-920.78,995.58,25.12,178.37
2025-11-03T07:02:03.189751,11.142,-0.028,-0.043,1.002,0.001,-0.002,0.0,-898.24,164.22,-921.2,995.52,25.11,178.88
2025-11-03T07:02:03.200645,11.153,-0.029,-0.043,1.003,0.001,-0.002,0.0,-898.1,162.82,-911.54,995.56,25.11,178.52
2025-11-03T07:02:03.211620,11.164,-0.028,-0.042,1.003,0.001,-0.002,0.0,-901.88,161.28,-917.28,995.55,25.12,178.63
2025-11-03T07:02:03.222777,11.175,-0.028,-0.043,1.003,0.001,-0.002,0.0,-896.14,162.96,-917.98,995.56,25.11,178.55
2025-11-03T07:02:03.233606,11.186,-0.028,-0.043,1.002,0.002,-0.002,0.0,-899.08,161.42,-917.7,995.58,25.12,178.37
2025-11-03T07:02:03.244557,11.197,-0.027,-0.043,1.002,0.002,-0.002,0.0,-898.94,161.42,-917.14,995.55,25.12,178.57
2025-11-03T07:02:03.255623,11.208,-0.027,-0.043,1.002,0.001,-0.002,0.0,-898.94,161.42,-917.14,995.55,25.12,178.64
2025-11-03T07:02:03.266592,11.219,-0.029,-0.042,1.002,0.001,-0.002,0.001,-898.38,164.92,-918.82,995.58,25.12,178.32
2025-11-03T07:02:03.277552,11.230,-0.029,-0.043,1.003,0.001,-0.002,0.0,-900.34,165.76,-913.08,995.52,25.12,178.87
2025-11-03T07:02:03.288385,11.241,-0.028,-0.042,1.002,0.001,-0.002,0.0,-903.84,163.38,-915.46,995.5,25.12,179.04
2025-11-03T07:02:03.299627,11.252,-0.027,-0.043,1.002,0.001,-0.002,0.0,-899.92,167.86,-911.96,995.51,25.12,178.98
2025-11-03T07:02:03.310686,11.263,-0.029,-0.043,1.003,0.001,-0.002,0.001,-899.78,166.18,-916.02,995.61,25.12,178.14
2025-11-03T07:02:03.321608,11.274,-0.028,-0.043,1.002,0.001,-0.002,0.0,-901.04,162.68,-919.8,995.57,25.12,178.45
2025-11-03T07:02:03.332723,11.285,-0.028,-0.043,1.001,0.001,-0.002,0.001,-901.04,162.68,-919.8,995.57,25.12,178.44
2025-11-03T07:02:03.343708,11.296,-0.028,-0.042,1.001,0.001,-0.002,0.001,-902.72,165.34,-910.84,995.61,25.12,178.07
2025-11-03T07:02:03.354608,11.307,-0.029,-0.044,1.001,0.001,-0.002,0.001,-902.58,166.88,-921.48,995.49,25.12,179.12
2025-11-03T07:02:03.365662,11.318,-0.028,-0.043,1.001,0.001,-0.002,0.0,-903.98,162.82,-923.16,995.6,25.12,178.14
2025-11-03T07:02:03.376611,11.329,-0.027,-0.043,1.001,0.001,-0.002,0.0,-899.22,162.96,-923.58,995.58,25.12,178.37
2025-11-03T07:02:03.387616,11.340,-0.027,-0.042,1.003,0.001,-0.002,0.0,-903.56,163.94,-914.06,995.51,25.12,178.96
2025-11-03T07:02:03.398669,11.351,-0.028,-0.043,1.003,0.001,-0.002,0.0,-901.74,162.4,-918.68,995.55,25.12,178.6
2025-11-03T07:02:03.409592,11.362,-0.027,-0.042,1.002,0.002,-0.002,0.0,-901.74,162.4,-918.68,995.56,25.12,178.54
2025-11-03T07:02:03.420635,11.373,-0.028,-0.043,1.002,0.001,-0.002,0.0,-901.88,165.62,-916.86,995.56,25.12,178.52
2025-11-03T07:02:03.431521,11.384,-0.029,-0.042,1.002,0.002,-0.002,0.0,-901.74,161.56,-910.28,995.51,25.12,178.94
2025-11-03T07:02:03.442617,11.395,-0.026,-0.043,1.003,0.001,-0.002,0.0,-900.62,161.0,-915.04,995.65,25.12,177.76
2025-11-03T07:02:03.453696,11.406,-0.028,-0.043,1.003,0.001,-0.001,0.001,-896.7,165.48,-919.1,995.6,25.12,178.22
2025-11-03T07:02:03.464619,11.417,-0.03,-0.042,1.002,0.001,-0.002,0.001,-905.24,163.24,-923.16,995.59,25.12,178.31
2025-11-03T07:02:03.475607,11.428,-0.03,-0.043,1.004,0.002,-0.002,0.0,-898.94,166.46,-922.18,995.54,25.12,178.66
2025-11-03T07:02:03.486677,11.439,-0.027,-0.043,1.002,0.002,-0.002,0.001,-898.94,166.46,-922.18,995.59,25.12,178.29
2025-11-03T07:02:03.497601,11.450,-0.028,-0.043,1.002,0.001,-0.002,0.0,-901.6,163.52,-920.78,995.59,25.12,178.25
2025-11-03T07:02:03.508643,11.461,-0.029,-0.042,1.003,0.001,-0.002,0.001,-900.06,160.3,-925.54,995.56,25.12,178.57
2025-11-03T07:02:03.519708,11.472,-0.028,-0.043,1.003,0.001,-0.002,0.0,-896.7,158.62,-923.16,995.53,25.12,178.75
2025-11-03T07:02:03.530607,11.483,-0.029,-0.043,1.003,0.001,-0.002,0.0,-901.32,160.02,-923.58,995.51,25.12,178.98
2025-11-03T07:02:03.541654,11.494,-0.028,-0.042,1.003,0.002,-0.002,0.0,-901.18,161.7,-925.82,995.53,25.12,178.76
2025-11-03T07:02:03.552631,11.505,-0.03,-0.042,1.003,0.001,-0.002,0.0,-900.34,161.84,-917.98,995.54,25.12,178.67
2025-11-03T07:02:03.563634,11.516,-0.028,-0.042,1.002,0.002,-0.002,0.0,-900.34,164.08,-921.9,995.55,25.12,178.63
2025-11-03T07:02:03.574678,11.527,-0.028,-0.042,1.003,0.001,-0.002,0.001,-902.16,164.08,-921.9,995.54,25.12,178.72
2025-11-03T07:02:03.585610,11.538,-0.029,-0.042,1.002,0.001,-0.002,0.0,-899.08,161.98,-928.9,995.6,25.12,178.21
2025-11-03T07:02:03.596637,11.549,-0.028,-0.042,1.002,0.001,-0.002,0.0,-902.3,163.38,-923.3,995.56,25.12,178.54
2025-11-03T07:02:03.607692,11.560,-0.028,-0.043,1.002,0.002,-0.002,0.0,-899.22,163.52,-921.2,995.62,25.12,177.99
2025-11-03T07:02:03.618608,11.571,-0.028,-0.043,1.002,0.001,-0.001,0.0,-900.9,162.54,-921.34,995.5,25.12,179.05
2025-11-03T07:02:03.629641,11.582,-0.028,-0.042,1.002,0.001,-0.002,0.001,-898.8,161.98,-926.8,995.53,25.12,178.77
2025-11-03T07:02:03.640537,11.593,-0.029,-0.043,1.002,0.001,-0.002,0.0,-897.68,161.7,-919.24,995.66,25.12,177.68
2025-11-03T07:02:03.651617,11.604,-0.027,-0.044,1.001,0.002,-0.002,0.0,-897.68,161.7,-919.24,995.51,25.12,178.93
2025-11-03T07:02:03.662664,11.615,-0.03,-0.043,1.002,0.001,-0.002,0.0,-897.68,164.22,-914.2,995.57,25.12,178.48
2025-11-03T07:02:03.673618,11.626,-0.028,-0.042,1.002,0.001,-0.002,0.001,-897.68,161.56,-915.04,995.57,25.12,178.45
2025-11-03T07:02:03.684617,11.637,-0.029,-0.041,1.003,0.002,-0.002,0.0,-900.62,165.62,-911.54,995.61,25.12,178.06
2025-11-03T07:02:03.695690,11.648,-0.028,-0.042,1.002,0.002,-0.002,0.0,-900.76,160.86,-914.9,995.53,25.12,178.79
2025-11-03T07:02:03.706603,11.659,-0.029,-0.043,1.002,0.002,-0.002,0.0,-900.06,163.24,-911.4,995.56,25.12,178.5
2025-11-03T07:02:03.717618,11.670,-0.027,-0.043,1.002,0.002,-0.002,0.001,-899.78,162.82,-912.94,995.54,25.12,178.66
2025-11-03T07:02:03.728687,11.681,-0.03,-0.043,1.001,0.001,-0.002,0.001,-899.78,162.82,-912.94,995.62,25.12,177.99
2025-11-03T07:02:03.739614,11.692,-0.028,-0.042,1.002,0.001,-0.002,0.0,-895.86,168.28,-917.14,995.55,25.12,178.6
2025-11-03T07:02:03.750643,11.703,-0.028,-0.043,1.002,0.002,-0.002,0.0,-899.92,165.2,-913.08,995.62,25.12,178.02
2025-11-03T07:02:03.761606,11.714,-0.028,-0.044,1.002,0.001,-0.002,0.0,-897.4,164.92,-914.06,995.55,25.12,178.63
2025-11-03T07:02:03.772609,11.725,-0.029,-0.042,1.003,0.001,-0.002,0.001,-899.08,165.48,-918.82,995.59,25.12,178.27
