timestamp,ax,ay,az,gx,gy,gz,mx,my,mz,altitude,relative_altitude
041225_04.18.27.430,0.25500,-0.91500,-0.50400,29.13800,-158.23500,-3.02700,-0.59600,0.31000,-0.15000,81.59000,0.00000
041225_04.18.27.442,0.25100,-0.93900,-0.40300,30.50300,-140.94500,-2.25700,-0.57900,0.31100,-0.13000,81.36000,-0.23000
041225_04.18.27.454,0.29700,-0.98600,-0.29300,26.72200,-122.53500,-2.53700,-0.56200,0.31300,-0.11800,81.21000,-0.15000
041225_04.18.27.465,0.36200,-1.01200,-0.17300,21.01700,-112.42000,-6.45700,-0.56200,0.31300,-0.11800,80.65000,-0.56000
041225_04.18.27.477,0.44700,-0.98300,-0.27800,6.28200,-99.36500,-13.33500,-0.54400,0.30800,-0.10600,81.18000,0.53000
041225_04.18.27.489,0.22600,-0.88900,-0.37400,4.00800,-98.78700,-12.91500,-0.52700,0.31600,-0.09300,81.07000,-0.11000
041225_04.18.27.500,0.14400,-0.89900,-0.35600,6.44000,-104.24700,-13.96500,-0.50700,0.31100,-0.08500,81.48000,0.41000
041225_04.18.27.512,0.02200,-0.97300,-0.36100,9.31000,-111.75500,-11.11300,-0.48900,0.31400,-0.07700,81.13000,-0.35000
041225_04.18.27.524,0.33800,-1.01000,-0.54800,11.74300,-111.05500,-4.39200,-0.48900,0.31400,-0.07700,80.85000,-0.28000
041225_04.18.27.536,0.03200,-1.08300,-0.32600,19.49500,-102.67300,16.50300,-0.47200,0.31500,-0.07300,80.97000,0.12000
041225_04.18.27.547,0.05100,-1.04100,-0.20900,11.74300,-104.94800,14.56000,-0.44700,0.31800,-0.06400,81.35000,0.38000
041225_04.18.27.559,0.18800,-1.01000,-0.30700,2.69500,-105.08800,8.62700,-0.43000,0.31800,-0.05100,80.98000,-0.37000
041225_04.18.27.571,0.12900,-1.05600,-0.52800,-5.44300,-98.08800,8.40000,-0.41500,0.31500,-0.05700,81.13000,0.15000
041225_04.18.27.582,0.00600,-1.09300,-0.63000,-11.79500,-94.58800,0.68300,-0.41500,0.31500,-0.05700,80.82000,-0.31000
041225_04.18.27.594,0.06300,-1.05200,-0.62000,-16.50300,-91.80500,-15.08500,-0.39800,0.31400,-0.05400,81.56000,0.74000
041225_04.18.27.606,0.09100,-1.01600,-0.39100,-22.17300,-78.29500,-12.04000,-0.38300,0.30900,-0.04800,81.46000,-0.10000
041225_04.18.27.618,0.08800,-0.92400,-0.40900,-25.88200,-78.08500,-6.21300,-0.37300,0.30100,-0.04700,81.09000,-0.37000
041225_04.18.27.630,-0.00000,-0.85300,-0.43500,-23.90500,-82.61800,1.43500,-0.35600,0.29700,-0.04100,80.95000,-0.14000
041225_04.18.27.641,-0.00300,-0.81300,-0.56700,-19.51300,-79.36300,4.44500,-0.35600,0.29700,-0.04100,81.41000,0.46000
041225_04.18.27.653,0.05400,-0.75300,-0.56900,-8.80200,-71.22500,5.77500,-0.34400,0.29200,-0.04500,81.10000,-0.31000
041225_04.18.27.665,0.04900,-0.72000,-0.55000,3.29000,-70.87500,4.83000,-0.32900,0.29200,-0.03900,81.25000,0.15000
041225_04.18.27.677,0.01500,-0.72900,-0.46900,7.61300,-68.46000,-2.95700,-0.32000,0.29700,-0.03900,81.36000,0.11000
041225_04.18.27.688,-0.15100,-0.76600,-0.59100,6.86000,-61.16200,-14.12300,-0.31100,0.29100,-0.04600,80.93000,-0.43000
041225_04.18.27.700,-0.12900,-0.71500,-0.52700,-0.84000,-37.83500,-28.52500,-0.31100,0.29100,-0.04600,80.86000,-0.07000
041225_04.18.27.712,-0.07900,-0.73000,-0.30200,-8.24300,-22.41700,-39.23500,-0.30600,0.28900,-0.04200,81.19000,0.33000
041225_04.18.27.723,-0.05400,-0.77000,-0.20700,-10.95500,-47.19700,-46.11200,-0.29400,0.29300,-0.03900,81.38000,0.19000
041225_04.18.27.735,-0.00900,-0.49100,0.16400,-2.52000,-77.66500,-40.89700,-0.28400,0.29000,-0.04600,80.99000,-0.39000
041225_04.18.27.747,-0.19500,-0.66400,0.16800,-3.20300,-110.74000,-31.60500,-0.25600,0.28800,-0.04200,81.49000,0.50000
041225_04.18.27.759,-0.34000,-0.74500,0.00400,-9.24000,-135.73000,-26.05800,-0.25600,0.28800,-0.04200,81.00000,-0.49000
041225_04.18.27.771,-0.22100,-0.69800,-0.26600,-22.48700,-159.56500,-28.21000,-0.23000,0.28600,-0.05000,81.75000,0.75000
041225_04.18.27.782,-0.12100,-0.77700,-0.30400,-13.73800,-199.44700,-45.76300,-0.19500,0.28100,-0.05900,80.94000,-0.81000
041225_04.18.27.794,0.11200,-0.91600,0.03000,5.33800,-259.45500,-76.94800,-0.13600,0.28700,-0.08000,81.12000,0.18000
041225_04.18.27.806,-0.17100,-0.79900,-0.74600,6.21300,-306.28500,-98.03500,-0.07500,0.29800,-0.10400,80.75000,-0.37000
041225_04.18.27.818,-0.63900,-0.89000,-1.71700,-8.96000,-292.32000,-97.38700,-0.07500,0.29800,-0.10400,80.99000,0.24000
041225_04.18.27.830,-0.41200,-0.78800,-1.43300,-76.84200,-174.28300,-42.50700,-0.03000,0.28500,-0.12700,81.06000,0.07000
041225_04.18.27.841,-0.21300,-0.90500,-0.83700,-89.74000,-91.77000,-12.05700,-0.01600,0.27400,-0.13800,81.15000,0.09000
041225_04.18.27.853,-0.10800,-0.89300,-0.71100,-81.65500,-70.40300,-2.43300,-0.00200,0.26400,-0.15100,81.07000,-0.08000
041225_04.18.27.865,-0.14300,-0.83900,-0.78000,-69.89500,-63.42000,5.49500,0.01400,0.24900,-0.16600,81.27000,0.20000
041225_04.18.27.877,-0.22900,-0.79600,-0.85600,-53.20000,-60.53300,10.34200,0.01400,0.24900,-0.16600,81.40000,0.13000
041225_04.18.27.888,-0.30800,-0.70900,-0.83000,-37.71300,-59.04500,12.70500,0.02100,0.24700,-0.16800,81.80000,0.40000
041225_04.18.27.900,-0.37600,-0.69100,-0.96900,-27.84300,-56.29800,12.23300,0.02700,0.24400,-0.18600,81.08000,-0.72000
041225_04.18.27.912,-0.31100,-0.69000,-0.95100,-15.52300,-44.06500,12.44300,0.03600,0.23800,-0.19400,80.97000,-0.11000
041225_04.18.27.924,-0.17800,-0.70600,-0.79000,-2.10000,-37.08300,11.56800,0.03700,0.23400,-0.19200,81.02000,0.05000
041225_04.18.27.935,-0.21800,-0.70500,-0.72700,2.46700,-34.12500,11.49800,0.03700,0.23400,-0.19200,81.15000,0.13000
041225_04.18.27.947,-0.40100,-0.77200,-0.57600,-2.53700,-28.68300,11.06000,0.04100,0.23400,-0.20700,81.52000,0.37000
041225_04.18.27.959,-1.00400,-1.33500,-0.13700,-17.32500,-22.08500,1.06700,0.04500,0.23900,-0.19900,80.80000,-0.72000
041225_04.18.27.970,-0.76000,-0.73100,-1.00000,-40.35500,-4.11300,-13.73800,0.04600,0.23500,-0.19800,81.18000,0.38000
041225_04.18.27.982,-0.32400,-0.77200,-0.10700,-69.93000,5.75800,-20.45800,0.04600,0.22700,-0.20700,81.13000,-0.05000
041225_04.18.27.994,-0.04800,-0.65100,-0.35600,-83.66800,-5.04000,-25.32300,0.04600,0.22700,-0.20700,81.01000,-0.12000
041225_04.18.28.006,-0.07800,-0.70700,-0.50400,-81.76000,-6.12500,-18.79500,0.04700,0.21700,-0.21800,80.85000,-0.16000
041225_04.18.28.017,-0.12800,-0.74300,-0.65900,-83.05500,-1.68000,-5.68700,0.04900,0.21600,-0.22600,81.49000,0.64000
041225_04.18.28.029,-0.03700,-0.59400,-0.76800,-89.79300,-4.49700,0.15700,0.04700,0.19900,-0.23500,81.40000,-0.09000
041225_04.18.28.041,0.02500,-0.48200,-0.85700,-91.56000,-19.89800,-2.08200,0.05700,0.19300,-0.24000,81.57000,0.17000
041225_04.18.28.053,-0.05100,-0.47300,-0.93600,-84.07000,-36.26000,-4.58500,0.05700,0.19300,-0.24000,81.04000,-0.53000
041225_04.18.28.064,-0.14900,-0.47400,-0.97800,-69.61500,-43.22500,-4.51500,0.05800,0.18400,-0.25200,81.02000,-0.02000
041225_04.18.28.076,-0.12500,-0.51400,-0.92700,-49.54200,-42.96300,1.54000,0.06800,0.17900,-0.26300,81.48000,0.46000
041225_04.18.28.088,-0.22100,-0.80900,-0.58900,-28.07000,-46.25200,7.56000,0.07600,0.17600,-0.26900,81.26000,-0.22000
041225_04.18.28.100,-0.46700,-0.63600,-0.76700,-20.00300,-40.39000,9.59000,0.07500,0.17100,-0.27900,81.01000,-0.25000
041225_04.18.28.111,-0.45100,-0.62300,-0.71700,-24.74500,-0.12300,25.67300,0.07500,0.17100,-0.27900,81.35000,0.34000
041225_04.18.28.123,-0.30100,-0.40400,-0.76600,-31.50000,7.05300,30.39800,0.07800,0.16300,-0.27600,81.56000,0.21000
041225_04.18.28.135,-0.20400,-0.31900,-0.91000,-35.31500,1.59200,32.21700,0.07300,0.15700,-0.28200,81.17000,-0.39000
041225_04.18.28.146,-0.13500,-0.34700,-1.04400,-34.37000,-8.43500,33.21500,0.07200,0.14800,-0.29300,81.37000,0.20000
041225_04.18.28.158,-0.12700,-0.36800,-1.04400,-29.27800,-20.00300,36.27800,0.06700,0.14100,-0.29700,81.02000,-0.35000
041225_04.18.28.170,-0.31400,-0.46300,-0.98300,-27.61500,-28.54200,42.70000,0.06700,0.14100,-0.29700,81.04000,0.02000
041225_04.18.28.182,-0.36300,-0.67100,-0.96300,-55.47500,-50.68000,56.73500,0.06900,0.13200,-0.30400,81.07000,0.03000
041225_04.18.28.193,-0.38300,-0.85500,-0.65800,-87.13200,-78.27800,63.80500,0.06700,0.11900,-0.32400,81.67000,0.60000
041225_04.18.28.205,-0.65000,-0.61700,-0.87200,-114.80000,-107.60700,65.59000,0.07000,0.10100,-0.35200,81.40000,-0.27000
041225_04.18.28.217,-0.78700,-0.53000,-0.89100,-145.19700,-88.70700,77.35000,0.06300,0.08200,-0.37900,81.98000,0.58000
041225_04.18.28.229,-0.68700,-0.54300,-0.82500,-166.91500,-45.46500,100.32700,0.06300,0.08200,-0.37900,82.01000,0.03000
041225_04.18.28.241,-0.47500,-0.42700,-0.47700,-189.80500,2.27500,106.20700,0.05300,0.06200,-0.40100,81.27000,-0.74000
041225_04.18.28.252,-0.15200,-0.17000,-0.36500,-199.09800,-9.50200,105.29800,0.03600,0.04200,-0.43000,81.49000,0.22000
041225_04.18.28.264,-0.20400,0.00700,-0.32700,-212.03000,-30.29200,101.99000,0.02500,0.02600,-0.45700,80.71000,-0.78000
041225_04.18.28.276,-0.24200,0.25400,-0.37400,-224.56000,-46.56800,103.53000,0.01000,0.02000,-0.49600,80.79000,0.08000
041225_04.18.28.288,-0.15000,0.54200,-0.41500,-230.75500,-53.86500,110.91500,0.01000,0.02000,-0.49600,81.81000,1.02000
041225_04.18.28.300,-0.24500,0.59600,-0.47800,-229.53000,-61.14500,119.47300,-0.00600,0.01600,-0.53200,80.93000,-0.88000
041225_04.18.28.311,-0.36600,0.62900,-0.54400,-226.43200,-64.89000,125.52800,-0.02100,0.01100,-0.57100,81.25000,0.32000
041225_04.18.28.323,-0.40700,0.67100,-0.58400,-220.11500,-64.90800,129.13300,-0.03400,0.01300,-0.60100,81.07000,-0.18000
041225_04.18.28.335,-0.59900,0.64100,-0.45700,-210.26200,-68.89700,131.84500,-0.05600,0.01900,-0.63700,81.40000,0.33000
041225_04.18.28.347,-0.72600,0.69100,-0.46900,-207.91700,-53.97000,134.12000,-0.05600,0.01900,-0.63700,81.40000,0.00000
041225_04.18.28.358,-0.74900,0.81100,-0.46100,-205.10000,-4.37500,143.78000,-0.07800,0.02600,-0.67400,81.00000,-0.40000
041225_04.18.28.370,-0.70000,0.90900,-0.41000,-191.43200,12.47700,149.81800,-0.08800,0.03500,-0.69300,80.93000,-0.07000
041225_04.18.28.382,-0.40900,1.02700,-0.37400,-184.87000,19.63500,153.37000,-0.10500,0.04900,-0.71500,81.19000,0.26000
041225_04.18.28.394,-0.33500,1.03700,-0.30900,-178.55300,20.73700,153.77300,-0.11800,0.05600,-0.73800,81.26000,0.07000
041225_04.18.28.406,-0.21200,1.04100,-0.28600,-173.09200,17.83300,153.96500,-0.11800,0.05600,-0.73800,80.82000,-0.44000
041225_04.18.28.417,-0.21700,1.08400,-0.29500,-171.46500,11.86500,155.73200,-0.13300,0.07100,-0.76000,81.02000,0.20000
041225_04.18.28.429,-0.21100,1.11200,-0.29400,-170.78300,7.87500,159.21500,-0.15500,0.08800,-0.78500,81.28000,0.26000
041225_04.18.28.441,-0.24200,1.11400,-0.26000,-169.73200,5.40700,161.84000,-0.16700,0.10300,-0.79200,81.43000,0.15000
041225_04.18.28.453,-0.24000,1.07800,-0.26700,-167.65000,6.63300,164.15000,-0.18700,0.12400,-0.80900,80.97000,-0.46000
041225_04.18.28.464,-0.16900,1.05200,-0.34400,-164.18500,13.03800,168.91000,-0.18700,0.12400,-0.80900,81.39000,0.42000
041225_04.18.28.476,-0.08200,0.89400,-0.20600,-165.14800,22.01500,177.74700,-0.20300,0.15400,-0.82300,80.75000,-0.64000
041225_04.18.28.488,-0.01500,0.85400,-0.07000,-195.79000,26.63500,189.61300,-0.21700,0.17500,-0.84200,80.62000,-0.13000
041225_04.18.28.500,0.16700,1.10800,0.02600,-206.74500,23.78200,195.82500,-0.23000,0.21800,-0.85500,81.26000,0.64000
041225_04.18.28.511,0.21100,1.23200,0.00300,-211.80300,18.41000,198.92300,-0.24100,0.25100,-0.85800,81.61000,0.35000
041225_04.18.28.523,0.22300,1.30000,0.08300,-202.75500,12.74000,199.36000,-0.24100,0.25100,-0.85800,81.76000,0.15000
041225_04.18.28.534,0.23000,1.32600,0.09600,-178.43000,4.44500,197.03300,-0.25100,0.29300,-0.87200,81.29000,-0.47000
041225_04.18.28.546,0.30700,1.35700,0.14800,-143.27300,-2.41500,195.03800,-0.25500,0.33200,-0.87700,81.37000,0.08000
041225_04.18.28.558,0.47700,1.27000,0.33800,-113.43500,-9.48500,199.55300,-0.26700,0.35700,-0.88300,80.89000,-0.48000
041225_04.18.28.570,0.61200,1.25300,0.39900,-100.46700,-20.44000,211.92500,-0.28100,0.38300,-0.88600,81.23000,0.34000
041225_04.18.28.581,0.59500,1.30000,0.36100,-91.31500,-34.96500,232.90800,-0.28100,0.38300,-0.87900,81.43000,0.20000
041225_04.18.28.593,0.60700,1.21600,0.32900,-76.16000,-49.84000,261.41500,-0.28800,0.40700,-0.87900,81.70000,0.27000
041225_04.18.28.605,0.67600,1.15400,0.32500,-59.64000,-60.02500,291.98700,-0.29800,0.42800,-0.87500,81.11000,-0.59000
041225_04.18.28.617,0.52800,0.88700,0.52700,-29.15500,-60.48000,341.53000,-0.30900,0.45200,-0.87500,80.82000,-0.29000
041225_04.18.28.628,0.22000,-0.25600,1.10100,-26.93300,-68.93300,335.35300,-0.30700,0.46000,-0.87100,81.74000,0.92000
041225_04.18.28.640,0.37900,-0.47000,0.83000,-43.71500,-81.07700,303.97500,-0.30700,0.46000,-0.87200,81.83000,0.09000
041225_04.18.28.652,0.69300,0.02300,0.20200,-50.03300,-74.55000,254.88700,-0.31300,0.48000,-0.87200,80.57000,-1.26000
041225_04.18.28.664,1.05700,0.19300,-0.06900,-38.15000,-46.56800,220.16700,-0.31600,0.49500,-0.86000,81.72000,1.15000
041225_04.18.28.675,1.15000,-0.15200,0.25600,1.31200,-15.13700,198.74700,-0.30500,0.49800,-0.86500,81.30000,-0.42000
041225_04.18.28.687,1.09000,-0.16700,0.55700,24.50000,1.27800,178.23800,-0.29500,0.49700,-0.86100,81.03000,-0.27000
041225_04.18.28.699,0.89400,-0.14000,0.52900,24.34300,3.27300,158.55000,-0.29500,0.49700,-0.86100,81.66000,0.63000
041225_04.18.28.710,0.78000,-0.29500,0.46200,23.18700,-8.41800,130.25300,-0.28500,0.49500,-0.86100,81.23000,-0.43000
041225_04.18.28.722,0.71800,-0.40500,0.56500,27.80800,-36.06800,93.43300,-0.28200,0.48800,-0.86000,80.66000,-0.57000
041225_04.18.28.734,0.83300,-0.34400,0.50400,26.61800,-62.14300,58.39700,-0.30500,0.49200,-0.86100,80.57000,-0.09000
041225_04.18.28.745,0.80100,-0.21400,0.30400,25.98700,-86.27500,40.98500,-0.31300,0.48600,-0.86200,80.54000,-0.03000
041225_04.18.28.757,0.61100,0.23800,-0.22200,13.75500,-89.84500,90.72000,-0.31300,0.48600,-0.85600,81.43000,0.89000
041225_04.18.28.769,1.10500,-0.33200,0.15400,6.91200,-29.97800,134.38300,-0.32800,0.47800,-0.85600,80.94000,-0.49000
041225_04.18.28.781,1.28100,-0.38100,0.27500,7.63000,-11.77800,129.04500,-0.32400,0.48000,-0.85800,80.85000,-0.09000
041225_04.18.28.792,1.45400,-0.27500,0.32300,-0.01800,-15.90800,135.85200,-0.31800,0.48400,-0.85000,81.27000,0.42000
041225_04.18.28.804,1.31200,-0.52100,0.47200,-2.80000,-31.06200,151.84800,-0.31500,0.48300,-0.85200,81.02000,-0.25000
041225_04.18.28.816,1.04300,-0.59400,0.27500,0.80500,-54.05700,149.10000,-0.31500,0.48300,-0.85800,80.82000,-0.20000
041225_04.18.28.827,0.65000,-0.59000,0.20400,2.53700,-61.26800,147.21000,-0.31400,0.48200,-0.85800,81.47000,0.65000
041225_04.18.28.839,0.29700,-0.56100,0.18700,5.58200,-55.21300,139.72000,-0.31900,0.47900,-0.84900,80.96000,-0.51000
041225_04.18.28.851,0.24900,-0.43800,0.00100,9.29300,-50.31300,123.93500,-0.32600,0.48400,-0.85400,81.32000,0.36000
041225_04.18.28.862,0.90200,-0.58600,0.31600,16.06500,-34.05500,136.60500,-0.32200,0.47800,-0.84900,81.36000,0.04000
041225_04.18.28.874,0.87100,-0.73100,0.16400,38.79800,-5.61700,154.28000,-0.32200,0.47800,-0.85200,80.96000,-0.40000
041225_04.18.28.886,0.64400,-0.87900,0.25100,54.77500,-5.14500,154.17500,-0.31200,0.47500,-0.85200,81.55000,0.59000
041225_04.18.28.898,0.65300,-0.88200,0.32500,60.30500,-7.71800,142.41500,-0.31000,0.46400,-0.85600,81.05000,-0.50000
041225_04.18.28.909,0.37000,-0.71500,0.27600,59.83300,-7.85800,125.80800,-0.31000,0.44700,-0.85900,81.35000,0.30000
041225_04.18.28.921,0.29800,-0.66200,0.22400,53.46300,20.79000,75.47800,-0.30400,0.44100,-0.86700,80.81000,-0.54000
041225_04.18.28.933,0.57800,-0.72300,0.10100,55.86000,46.88200,30.83500,-0.30400,0.42900,-0.85900,81.00000,0.19000
041225_04.18.28.944,0.63800,-0.77800,0.24600,70.84000,57.01500,15.43500,-0.29500,0.42900,-0.85900,81.17000,0.17000
041225_04.18.28.956,0.54500,-0.73300,0.42600,67.62000,62.52800,13.84200,-0.28300,0.41300,-0.86000,80.97000,-0.20000
041225_04.18.28.967,0.47000,-0.69000,0.50200,55.23000,60.48000,18.04200,-0.26700,0.40700,-0.86000,81.59000,0.62000
041225_04.18.28.979,0.48200,-0.70400,0.52900,44.17000,50.15500,26.54800,-0.25800,0.39700,-0.86000,81.69000,0.10000
041225_04.18.28.991,0.50600,-0.80700,0.52700,40.47800,29.13800,40.09200,-0.25800,0.38900,-0.85900,81.25000,-0.44000
041225_04.18.29.002,0.50200,-0.83200,0.68200,30.48500,16.11800,30.69500,-0.25200,0.38900,-0.85900,80.57000,-0.68000
041225_04.18.29.014,0.54600,-1.01800,0.69500,23.76500,20.91300,29.59300,-0.24700,0.38400,-0.85900,81.25000,0.68000
041225_04.18.29.026,0.50000,-1.00700,0.65300,25.20000,28.14000,31.29000,-0.24000,0.38600,-0.86100,81.14000,-0.11000
041225_04.18.29.037,0.45400,-0.91500,0.49200,28.33300,39.98700,28.24500,-0.23300,0.37800,-0.85600,81.17000,0.03000
041225_04.18.29.049,0.46200,-0.86700,0.37100,28.87500,56.22800,21.54200,-0.23300,0.37400,-0.85300,81.38000,0.21000
041225_04.18.29.061,0.45700,-0.84800,0.36800,27.75500,76.68500,19.35500,-0.22100,0.37400,-0.85300,81.12000,-0.26000
041225_04.18.29.073,0.39800,-0.79800,0.37600,26.05800,100.17000,21.52500,-0.20100,0.36700,-0.84800,80.89000,-0.23000
041225_04.18.29.084,0.34300,-0.68000,0.35500,26.32000,121.36300,21.75300,-0.17200,0.36400,-0.84000,81.34000,0.45000
041225_04.18.29.096,0.30800,-0.67600,0.46900,33.47800,137.84800,28.31500,-0.14400,0.35600,-0.83700,81.07000,-0.27000
041225_04.18.29.108,0.29100,-0.78900,0.54800,31.93700,150.23800,47.26800,-0.14400,0.35200,-0.82800,81.01000,-0.06000
041225_04.18.29.119,0.31300,-0.72300,0.41200,26.16300,149.80000,71.83800,-0.12000,0.35200,-0.82800,81.72000,0.71000
041225_04.18.29.131,0.55400,-0.72000,0.54300,40.14500,130.20000,73.16800,-0.09300,0.33700,-0.81500,81.66000,-0.06000
041225_04.18.29.143,0.29900,-0.80900,0.50500,39.46300,108.22000,62.26500,-0.08000,0.32800,-0.80400,80.93000,-0.73000
041225_04.18.29.154,0.16800,-0.72500,0.55500,34.93000,103.02200,38.86800,-0.06000,0.31600,-0.79000,81.72000,0.79000
041225_04.18.29.166,0.20200,-0.67300,0.63600,37.04800,101.74500,20.80800,-0.06000,0.31100,-0.78100,82.04000,0.32000
041225_04.18.29.178,0.21400,-0.67900,0.80000,33.86200,98.80500,16.92300,-0.04400,0.31100,-0.78100,80.98000,-1.06000
041225_04.18.29.190,0.14800,-0.65800,0.80300,18.28800,90.59800,19.75700,-0.02600,0.30900,-0.77400,81.10000,0.12000
041225_04.18.29.201,0.07600,-0.63000,0.72400,-5.40700,85.97800,23.39800,-0.01100,0.30400,-0.76200,81.09000,-0.01000
041225_04.18.29.213,-0.13400,-0.69000,0.69300,-32.79500,100.97500,24.22000,0.00500,0.30800,-0.75100,81.46000,0.37000
041225_04.18.29.225,-0.24100,-1.05100,0.87600,-59.50000,128.34500,21.77000,0.00500,0.31500,-0.73800,81.67000,0.21000
041225_04.18.29.236,0.06400,-0.92500,1.02000,-102.69000,147.01800,13.91300,0.03300,0.31500,-0.73800,81.30000,-0.37000
041225_04.18.29.248,-0.02200,-0.89000,0.92300,-146.58000,142.66000,1.45200,0.06100,0.32800,-0.71800,81.32000,0.02000
041225_04.18.29.260,-0.03300,-0.91700,0.64800,-148.89000,152.51200,0.78800,0.07800,0.35000,-0.70100,81.64000,0.32000
041225_04.18.29.272,-0.07800,-0.92200,0.43200,-148.20800,169.83700,9.55500,0.09600,0.36800,-0.67700,81.29000,-0.35000
041225_04.18.29.283,0.19500,-0.42000,0.01400,-135.11800,197.97700,25.46200,0.09600,0.37900,-0.64300,81.64000,0.35000
041225_04.18.29.295,-0.00700,-0.97100,0.60700,-105.29800,178.23800,11.77800,0.11700,0.37900,-0.64300,81.33000,-0.31000
041225_04.18.29.307,0.00600,-0.57200,0.50700,-97.96500,180.12800,13.21200,0.13400,0.38200,-0.61300,81.34000,0.01000
041225_04.18.29.319,-0.05700,-0.61400,0.44700,-73.74500,157.58700,24.55200,0.15000,0.38500,-0.58800,81.47000,0.13000
041225_04.18.29.330,-0.01000,-0.98800,0.37700,-58.15300,116.49700,21.94500,0.15700,0.38600,-0.56800,80.78000,-0.69000
041225_04.18.29.342,-0.30200,-0.80600,0.37500,-59.02800,79.81700,12.60000,0.16000,0.39000,-0.56700,81.28000,0.50000
041225_04.18.29.354,-0.38800,-0.77000,0.34600,-54.84500,63.38500,10.11500,0.16000,0.39000,-0.56700,81.76000,0.48000
041225_04.18.29.365,-0.34700,-0.84400,0.28100,-46.48000,62.02000,15.52300,0.16300,0.38700,-0.55400,81.73000,-0.03000
041225_04.18.29.377,-0.24400,-0.99300,0.33900,-41.96500,58.71300,28.33300,0.16600,0.37600,-0.54000,81.09000,-0.64000
041225_04.18.29.389,-0.33700,-1.07700,0.14000,-46.93500,59.72800,32.04200,0.16500,0.38100,-0.52900,80.90000,-0.19000
041225_04.18.29.401,-0.41200,-0.99300,-0.03400,-46.44500,75.33800,42.87500,0.16900,0.37300,-0.51500,81.08000,0.18000
041225_04.18.29.412,-0.48300,-0.95800,-0.11200,-39.49800,104.38700,53.98700,0.16900,0.37300,-0.51500,81.47000,0.39000
041225_04.18.29.424,-0.61100,-0.84000,-0.14900,-32.70800,138.26800,59.62300,0.17400,0.35600,-0.48300,81.34000,-0.13000
041225_04.18.29.436,-0.59800,-0.79600,-0.25300,-23.15300,180.16300,65.99300,0.16700,0.34100,-0.44700,81.09000,-0.25000
041225_04.18.29.447,-0.58800,-0.96700,0.10500,-7.50800,217.91000,63.92800,0.16600,0.32800,-0.40500,80.88000,-0.21000
041225_04.18.29.459,-0.63100,-1.02500,0.17500,-12.63500,210.12200,47.16200,0.16300,0.32100,-0.36800,81.66000,0.78000
041225_04.18.29.471,-0.32100,-1.10900,0.11500,-44.31000,198.22300,35.00000,0.16300,0.32100,-0.36800,81.41000,-0.25000
041225_04.18.29.483,-0.29900,-0.99700,-0.01600,-76.96500,189.12200,28.64800,0.15000,0.31200,-0.33400,81.30000,-0.11000
041225_04.18.29.495,-0.57500,-0.85700,-0.10700,-99.54000,185.39500,16.15300,0.14100,0.30000,-0.30800,81.21000,-0.09000
041225_04.18.29.506,-0.34100,-1.06600,-0.14200,-118.58000,173.26800,-7.24500,0.13000,0.29300,-0.28200,80.70000,-0.51000
041225_04.18.29.518,-0.58900,-0.67100,-0.10100,-124.30200,179.88300,-17.18500,0.11500,0.28700,-0.25500,81.92000,1.22000
041225_04.18.29.530,-0.30300,-0.65900,-0.05300,-125.33500,171.15000,-13.68500,0.11500,0.28700,-0.25500,81.20000,-0.72000
041225_04.18.29.542,-0.28900,-0.53700,-0.17800,-121.52000,144.25300,-12.12700,0.10200,0.27900,-0.23500,81.86000,0.66000
041225_04.18.29.554,-0.26000,-0.35700,-0.07800,-117.19800,116.62000,-7.36700,0.08400,0.26600,-0.22000,80.75000,-1.11000
041225_04.18.29.565,-0.34500,-0.33800,-0.09100,-111.16000,78.47000,8.10200,0.07600,0.25000,-0.21900,81.25000,0.50000
041225_04.18.29.577,-0.33600,-0.56200,-0.33900,-110.44200,47.53000,21.82300,0.07800,0.23600,-0.22100,81.04000,-0.21000
041225_04.18.29.589,-0.41200,-0.62300,-0.45600,-121.64300,34.98300,18.95200,0.07800,0.23600,-0.22100,80.95000,-0.09000
041225_04.18.29.601,-0.43100,-0.67800,-0.52000,-140.43700,26.05800,-1.17300,0.07500,0.22000,-0.23200,81.25000,0.30000
041225_04.18.29.612,-0.25900,-0.83000,-0.62200,-155.66300,25.07700,-12.32000,0.07800,0.20400,-0.23300,81.63000,0.38000
041225_04.18.29.624,-0.18700,-0.84800,-0.78200,-160.12500,71.26000,-5.60000,0.07400,0.19100,-0.23400,81.23000,-0.40000
041225_04.18.29.636,-0.17500,-0.78800,-0.82200,-146.87800,93.71300,-4.84700,0.06000,0.18300,-0.23400,81.56000,0.33000
041225_04.18.29.648,0.01500,-0.33700,-0.92900,-137.53300,105.70000,-3.81500,0.06000,0.18300,-0.23400,81.41000,-0.15000
041225_04.18.29.659,-0.08500,-0.39800,-0.91100,-120.87200,111.63200,4.20000,0.05300,0.16800,-0.23300,81.37000,-0.04000
041225_04.18.29.671,-0.32000,-0.63300,-0.83800,-114.22300,115.09800,-0.82200,0.04500,0.15900,-0.22100,80.90000,-0.47000
041225_04.18.29.683,-0.17500,-0.34600,-0.74300,-111.07300,117.68800,-9.99300,0.03500,0.14700,-0.21900,81.41000,0.51000
041225_04.18.29.695,0.02900,-0.13200,-0.71200,-96.32000,120.89000,12.63500,0.01900,0.13100,-0.20600,81.89000,0.48000
041225_04.18.29.706,-0.00900,-0.25200,-0.70700,-83.17700,132.61500,46.83000,0.01900,0.13100,-0.20600,81.26000,-0.63000
041225_04.18.29.718,0.02400,-0.29500,-0.70400,-75.40800,153.66700,68.28500,0.00100,0.11800,-0.19500,80.87000,-0.39000
041225_04.18.29.730,0.04400,-0.09600,-0.89100,-66.13200,168.29800,86.81700,-0.03300,0.09800,-0.18400,81.98000,1.11000
041225_04.18.29.742,0.08700,-0.10200,-0.97700,-53.97000,165.86500,103.35500,-0.06100,0.08500,-0.17300,80.47000,-1.51000
041225_04.18.29.753,0.17400,-0.16600,-0.96200,-50.48700,169.64500,106.64500,-0.09700,0.07500,-0.15900,81.39000,0.92000
041225_04.18.29.765,0.18400,-0.27500,-1.06600,-51.31000,188.10700,98.96300,-0.09700,0.07500,-0.15900,81.26000,-0.13000
041225_04.18.29.777,0.14100,-0.22800,-1.06600,-42.92800,201.84500,84.68300,-0.14300,0.06200,-0.14800,81.66000,0.40000
041225_04.18.29.789,0.14100,-0.21700,-1.04900,-37.20500,205.39800,68.42500,-0.18400,0.05400,-0.14000,81.85000,0.19000
041225_04.18.29.800,0.21300,-0.17300,-1.04500,-31.64000,199.16700,52.02800,-0.21800,0.04700,-0.14300,81.33000,-0.52000
041225_04.18.29.812,0.44200,-0.28500,-0.93100,-24.93700,187.67000,45.64000,-0.25200,0.04400,-0.13900,81.54000,0.21000
041225_04.18.29.824,0.50100,-0.33400,-0.92400,-24.79800,179.02500,52.44700,-0.25200,0.04400,-0.13900,80.38000,-1.16000
041225_04.18.29.836,0.50600,-0.40500,-0.84700,-25.79500,173.40800,64.85500,-0.29000,0.04300,-0.14000,81.22000,0.84000
041225_04.18.29.847,0.74000,-0.52700,-0.86400,-30.11800,169.27700,73.50000,-0.32100,0.04400,-0.14200,80.76000,-0.46000
041225_04.18.29.859,0.42500,-0.23900,-0.85600,-39.27000,185.15000,40.44300,-0.36400,0.03600,-0.15700,80.88000,0.12000
041225_04.18.29.871,0.55500,-0.58900,-0.59000,-35.56000,185.99000,51.25700,-0.39700,0.03900,-0.17000,80.77000,-0.11000
041225_04.18.29.883,0.54600,-0.36900,-0.73200,-51.64300,149.46700,76.94800,-0.39700,0.03900,-0.17000,81.58000,0.81000
041225_04.18.29.894,0.58500,-0.43400,-0.83200,-50.05000,131.49500,74.02500,-0.43400,0.04100,-0.17800,81.27000,-0.31000
041225_04.18.29.906,0.64900,-0.42800,-0.81200,-47.96700,116.55000,67.30500,-0.47100,0.04600,-0.18700,81.48000,0.21000
041225_04.18.29.918,0.70500,-0.43500,-0.74800,-50.94300,99.69800,60.84700,-0.49100,0.04800,-0.20700,81.54000,0.06000
041225_04.18.29.930,0.64100,-0.49100,-0.79200,-62.26500,82.51200,50.40000,-0.50900,0.04800,-0.21600,80.75000,-0.79000
041225_04.18.29.941,0.51900,-0.46400,-0.92200,-67.55000,70.82300,30.29200,-0.50900,0.04800,-0.21600,81.19000,0.44000
041225_04.18.29.953,0.50700,-0.41400,-0.86900,-63.89300,61.82700,3.43000,-0.52000,0.04100,-0.22200,81.30000,0.11000
041225_04.18.29.965,0.63800,-0.37000,-0.74800,-68.46000,54.49500,-18.16500,-0.52300,0.03100,-0.24200,80.82000,-0.48000
041225_04.18.29.976,0.67900,-0.33000,-0.66400,-76.37000,46.18200,-27.61500,-0.52600,0.02700,-0.26200,80.89000,0.07000
041225_04.18.29.988,0.66600,-0.28600,-0.64300,-81.72500,38.25500,-30.04800,-0.52100,0.01200,-0.27500,80.86000,-0.03000
041225_04.18.30.000,0.65900,-0.25100,-0.59600,-85.06700,33.18000,-29.61000,-0.52100,0.01200,-0.27500,80.74000,-0.12000
041225_04.18.30.013,0.73000,-0.11100,-0.48500,-100.08200,26.40700,-16.74700,-0.51300,-0.00500,-0.28600,80.71000,-0.03000
041225_04.18.30.025,0.81300,0.02400,-0.58000,-96.61800,25.79500,-13.17700,-0.51700,-0.01000,-0.30500,80.67000,-0.04000
041225_04.18.30.037,0.70800,0.18700,-0.57400,-72.53700,30.69500,-13.47500,-0.51100,-0.02400,-0.30900,80.76000,0.09000
041225_04.18.30.048,0.74900,0.06000,-0.52200,-50.41700,31.08000,-20.30000,-0.51000,-0.02400,-0.32500,80.53000,-0.23000
041225_04.18.30.060,0.77100,-0.08500,-0.48700,-42.85800,29.66300,-22.71500,-0.51000,-0.02400,-0.32500,80.31000,-0.22000
041225_04.18.30.072,0.80000,-0.15000,-0.48700,-48.45800,27.35300,-21.73500,-0.51400,-0.02600,-0.33900,80.86000,0.55000
041225_04.18.30.084,0.79900,-0.11800,-0.53100,-57.78500,29.83700,-23.97500,-0.50900,-0.03500,-0.34800,80.53000,-0.33000
041225_04.18.30.095,0.80600,0.03900,-0.46900,-62.98300,36.03300,-31.41300,-0.50400,-0.04300,-0.35600,81.17000,0.64000
041225_04.18.30.107,0.86700,0.04100,-0.56700,-67.84800,36.47000,-38.22000,-0.49300,-0.05000,-0.37100,81.04000,-0.13000
041225_04.18.30.119,0.88100,0.13300,-0.58300,-68.88000,31.72800,-40.32000,-0.49300,-0.05000,-0.37100,80.94000,-0.10000
041225_04.18.30.131,0.84200,0.08300,-0.72500,-66.67500,31.08000,-42.49000,-0.48900,-0.05500,-0.38100,81.22000,0.28000
041225_04.18.30.143,0.86000,0.01600,-0.68500,-49.03500,61.00500,-64.31300,-0.48000,-0.06300,-0.39100,80.96000,-0.26000
041225_04.18.30.155,0.94600,0.14200,-0.54500,-43.75000,74.91800,-78.78500,-0.46800,-0.07100,-0.40300,80.87000,-0.09000
041225_04.18.30.167,0.94200,0.11300,-0.48000,-40.65300,82.96700,-90.14300,-0.44800,-0.07500,-0.40900,81.34000,0.47000
041225_04.18.30.178,0.81500,0.11600,-0.38600,-41.05500,88.32300,-97.66800,-0.44800,-0.07500,-0.40900,80.94000,-0.40000
041225_04.18.30.190,0.78000,0.15400,-0.37400,-43.19000,89.00500,-103.81000,-0.42400,-0.08400,-0.42300,80.97000,0.03000
041225_04.18.30.202,0.81200,0.22100,-0.34300,-39.90000,89.33800,-103.93300,-0.40300,-0.09300,-0.43100,81.33000,0.36000
041225_04.18.30.214,0.91100,0.25600,-0.24900,-30.71200,88.39300,-96.32000,-0.38200,-0.09800,-0.43800,81.28000,-0.05000
041225_04.18.30.225,0.96100,0.34000,-0.24500,-23.99300,87.06300,-88.95200,-0.36800,-0.10400,-0.44300,81.33000,0.05000
041225_04.18.30.237,1.02100,0.38900,-0.22300,-25.28800,86.29300,-88.98800,-0.36800,-0.10400,-0.44300,79.95000,-1.38000
041225_04.18.30.249,1.07300,0.52100,-0.24300,-35.63000,83.66800,-97.19500,-0.35100,-0.10900,-0.44800,81.03000,1.08000
041225_04.18.30.261,1.06700,0.54500,-0.18100,-41.14300,79.99300,-116.27000,-0.32100,-0.10900,-0.45800,81.12000,0.09000
041225_04.18.30.272,1.03700,0.50800,-0.05900,-70.29800,89.54800,-124.81000,-0.29600,-0.10800,-0.47200,81.67000,0.55000
041225_04.18.30.284,0.88200,0.55300,-0.01800,-80.06300,101.76200,-132.31800,-0.26500,-0.10500,-0.48600,81.09000,-0.58000
041225_04.18.30.296,0.83000,0.55100,0.02100,-89.11000,122.92000,-140.87500,-0.26500,-0.10500,-0.48600,81.21000,0.12000
041225_04.18.30.308,0.74100,0.68600,-0.14400,-80.04500,136.93700,-149.69500,-0.23300,-0.10400,-0.49700,81.70000,0.49000
041225_04.18.30.319,0.73400,0.62700,0.06100,-64.75000,143.60500,-151.06000,-0.20000,-0.09500,-0.50500,80.94000,-0.76000
041225_04.18.30.331,0.75600,0.68800,0.08700,-59.72800,139.10700,-149.43200,-0.16200,-0.08400,-0.51200,81.43000,0.49000
041225_04.18.30.343,0.78000,0.73000,0.14200,-53.32200,131.21500,-142.34500,-0.12700,-0.07200,-0.51400,80.76000,-0.67000
041225_04.18.30.355,0.75300,0.79200,0.15500,-45.69300,122.57000,-131.02300,-0.12700,-0.07200,-0.51400,80.88000,0.12000
041225_04.18.30.366,0.65400,0.86100,0.21300,-36.45200,113.54000,-119.33300,-0.10300,-0.06700,-0.50700,80.49000,-0.39000
041225_04.18.30.378,0.61100,0.83800,0.29300,-30.67700,106.97800,-111.94800,-0.07100,-0.05800,-0.50900,81.05000,0.56000
041225_04.18.30.390,0.55400,0.80900,0.24300,-31.02800,104.51000,-107.34500,-0.04900,-0.04600,-0.50700,81.65000,0.60000
041225_04.18.30.402,0.60200,0.89700,-0.15800,-37.31000,89.70500,-108.01000,-0.03100,-0.03100,-0.50800,81.36000,-0.29000
041225_04.18.30.413,0.29900,0.80300,0.45600,-39.25200,75.09200,-113.57500,-0.03100,-0.03100,-0.50800,80.83000,-0.53000
041225_04.18.30.425,0.29400,0.80100,0.61400,-48.51000,81.95200,-114.55500,-0.00600,-0.01400,-0.50000,81.34000,0.51000
041225_04.18.30.437,0.30400,1.03300,0.47200,-47.09200,94.43000,-108.99000,0.01600,0.00100,-0.49900,81.11000,-0.23000
041225_04.18.30.449,0.33800,0.94300,0.27100,-25.70800,103.02200,-97.52800,0.03300,0.01900,-0.48700,81.86000,0.75000
041225_04.18.30.460,0.33400,0.91900,0.38700,2.69500,102.09500,-77.92700,0.04600,0.02600,-0.47300,81.22000,-0.64000
041225_04.18.30.472,0.33300,1.06700,0.55200,14.96200,86.08200,-60.41000,0.04600,0.02600,-0.47300,81.12000,-0.10000
041225_04.18.30.483,0.24700,0.90300,0.29300,32.37500,65.08200,-35.05300,0.05200,0.03100,-0.46000,80.72000,-0.40000
041225_04.18.30.495,0.29200,0.82100,0.31700,43.15500,54.70500,-25.93500,0.05500,0.03700,-0.44800,81.09000,0.37000
041225_04.18.30.507,0.31300,0.93100,0.29600,41.03700,47.89700,-19.14500,0.06300,0.04300,-0.43800,81.12000,0.03000
041225_04.18.30.518,0.23900,1.00300,0.28300,50.47000,30.85300,-2.13500,0.05600,0.03800,-0.42000,81.21000,0.09000
041225_04.18.30.530,0.21900,1.03300,0.27800,54.54800,33.74000,1.90800,0.05600,0.03800,-0.42000,81.28000,0.07000
041225_04.18.30.541,0.26200,0.96000,0.32100,57.96000,39.67300,-0.71800,0.06000,0.04500,-0.41300,81.33000,0.05000
041225_04.18.30.553,0.26300,1.29100,0.47000,57.22500,42.75200,-8.50500,0.05600,0.04100,-0.40100,80.88000,-0.45000
041225_04.18.30.565,0.13500,0.97700,0.26600,52.55300,51.34500,-23.22200,0.05600,0.05300,-0.38100,81.23000,0.35000
041225_04.18.30.576,0.21500,0.77000,0.38300,57.41700,56.33300,-35.40300,0.06100,0.06500,-0.36400,81.46000,0.23000
041225_04.18.30.588,0.35100,0.66300,0.27300,57.61000,50.57500,-43.55700,0.06100,0.06500,-0.36400,81.44000,-0.02000
041225_04.18.30.600,0.11700,0.61500,0.27800,44.95800,35.63000,-58.38000,0.06500,0.07300,-0.35800,80.86000,-0.58000
041225_04.18.30.611,0.04000,1.00000,0.17600,26.32000,22.22500,-92.26000,0.07600,0.09600,-0.35200,80.59000,-0.27000
041225_04.18.30.623,0.19100,0.93400,0.23800,18.70800,20.33500,-100.90500,0.08500,0.10700,-0.35200,81.58000,0.99000
041225_04.18.30.635,0.24300,0.96900,0.18800,18.18300,21.10500,-92.13700,0.09700,0.12300,-0.34800,79.52000,-2.06000
041225_04.18.30.646,0.23500,0.98700,0.21200,29.76700,22.99500,-66.02800,0.09700,0.12300,-0.34800,80.57000,1.05000
041225_04.18.30.658,0.02600,0.80300,0.11300,28.63000,18.56700,-61.63500,0.10000,0.14000,-0.34100,81.06000,0.49000
041225_04.18.30.670,0.05200,0.80100,0.15000,22.87200,13.00200,-50.20800,0.10600,0.15000,-0.33800,80.87000,-0.19000
041225_04.18.30.681,0.05400,0.91900,0.11800,20.82500,5.63500,-36.75000,0.11000,0.15800,-0.33300,80.87000,0.00000
041225_04.18.30.693,0.13900,0.98700,0.15500,27.75500,1.54000,-26.56500,0.11000,0.16400,-0.32500,81.70000,0.83000
041225_04.18.30.705,0.55300,1.26200,0.41100,33.33800,-10.02800,-16.22200,0.11000,0.16400,-0.32500,81.55000,-0.15000
041225_04.18.30.716,0.57600,0.84000,0.49800,32.25200,-44.18800,4.76000,0.11500,0.16600,-0.33300,81.27000,-0.28000
041225_04.18.30.728,0.09300,0.50500,0.20200,23.71200,-81.69000,-0.80500,0.12100,0.16900,-0.34400,81.36000,0.09000
041225_04.18.30.739,-0.21600,0.55900,-0.06300,17.41300,-89.54800,-21.68300,0.12200,0.17800,-0.35900,81.15000,-0.21000
041225_04.18.30.751,-0.55800,0.37600,-0.30100,13.16000,-73.44800,-40.42500,0.13300,0.18300,-0.36800,81.36000,0.21000
041225_04.18.30.763,-0.42900,0.74400,-0.20800,-0.71800,-36.85500,-58.74800,0.13300,0.18300,-0.36800,80.79000,-0.57000
041225_04.18.30.775,-0.19000,1.09000,0.17600,-25.53200,-9.67700,-59.81500,0.14100,0.19400,-0.36800,81.79000,1.00000
041225_04.18.30.786,-0.15700,1.22800,0.23800,-19.32000,-16.32700,-49.66500,0.14600,0.20800,-0.37200,81.35000,-0.44000
041225_04.18.30.798,-0.21900,1.00600,0.06800,-12.63500,-18.51500,-42.31500,0.15500,0.21600,-0.38000,80.76000,-0.59000
041225_04.18.30.810,-0.20600,0.85200,0.00900,-15.34700,-10.18500,-44.36200,0.15500,0.22200,-0.37200,80.31000,-0.45000
041225_04.18.30.821,-0.20500,0.75500,0.02500,-22.01500,-4.51500,-52.76300,0.15500,0.22200,-0.37200,81.78000,1.47000
041225_04.18.30.833,-0.19000,0.84000,0.00200,-23.48500,-0.10500,-68.37200,0.15600,0.23000,-0.37600,80.93000,-0.85000
041225_04.18.30.845,-0.28100,0.87100,-0.04100,-23.27500,9.13500,-82.12800,0.16400,0.24800,-0.37800,81.33000,0.40000
041225_04.18.30.856,-0.21200,0.88600,-0.12900,-23.99300,21.12200,-94.90300,0.16500,0.26800,-0.36300,80.97000,-0.36000
041225_04.18.30.868,-0.16500,0.88100,-0.21700,-26.79200,35.80500,-101.15000,0.16400,0.28900,-0.35700,80.92000,-0.05000
041225_04.18.30.880,-0.09500,0.81400,-0.19800,-34.44000,49.89300,-104.16000,0.16400,0.28900,-0.35700,81.19000,0.27000
041225_04.18.30.892,-0.07700,0.70600,-0.06600,-45.60500,57.54000,-116.16500,0.16700,0.30700,-0.34200,81.68000,0.49000
041225_04.18.30.903,-0.20200,0.84400,0.30500,-45.39500,49.68200,-113.75000,0.16900,0.32700,-0.33500,80.23000,-1.45000
041225_04.18.30.915,-0.57600,1.12500,0.26100,-27.45800,49.45500,-100.10000,0.16600,0.34600,-0.31300,81.56000,1.33000
041225_04.18.30.927,-0.54800,0.98700,0.17300,-8.24300,54.72200,-87.81500,0.15900,0.36100,-0.29400,80.88000,-0.68000
041225_04.18.30.938,-0.51500,0.85600,0.13100,5.82700,61.63500,-81.00700,0.15900,0.36100,-0.29400,80.83000,-0.05000
041225_04.18.30.950,-0.52800,0.81200,0.10800,13.75500,68.61800,-78.85500,0.15400,0.38000,-0.27800,81.17000,0.34000
041225_04.18.30.962,-0.54100,0.81400,0.06100,16.20500,78.29500,-77.73500,0.14600,0.40000,-0.26000,81.00000,-0.17000
041225_04.18.30.973,-0.53600,0.82000,0.03800,15.96000,87.65800,-75.53000,0.13500,0.41400,-0.24400,81.19000,0.19000
041225_04.18.30.985,-0.56600,0.96900,0.17100,9.69500,80.18500,-56.57700,0.12200,0.41700,-0.23600,80.66000,-0.53000
041225_04.18.30.997,-0.65900,0.67800,0.26100,-9.97500,50.87300,-21.24500,0.12200,0.41700,-0.23600,81.65000,0.99000
041225_04.18.31.008,-0.87600,0.75200,0.15300,-16.53800,37.64300,-7.91000,0.11300,0.41700,-0.23000,80.88000,-0.77000
041225_04.18.31.020,-0.99600,0.63200,0.26800,-3.81500,47.09200,3.43000,0.11300,0.42100,-0.21000,81.54000,0.66000
041225_04.18.31.031,-0.99200,0.73600,0.24300,5.84500,50.08500,1.06700,0.09900,0.42500,-0.20000,81.45000,-0.09000
041225_04.18.31.043,-0.95800,0.80000,0.22000,5.04000,53.20000,-0.42000,0.09100,0.43200,-0.19400,81.34000,-0.11000
041225_04.18.31.054,-0.91400,0.73100,0.14200,8.17200,56.36800,-4.35800,0.09100,0.43200,-0.19400,80.66000,-0.68000
041225_04.18.31.066,-0.93900,0.74400,0.04000,8.54000,60.97000,-13.70300,0.08100,0.43500,-0.18600,81.66000,1.00000
041225_04.18.31.078,-0.95100,0.74000,-0.06400,6.12500,68.89700,-28.40300,0.06700,0.44400,-0.17200,80.99000,-0.67000
041225_04.18.31.089,-0.90700,0.74300,-0.07900,8.29500,83.10700,-43.62700,0.05200,0.45000,-0.15700,81.13000,0.14000
041225_04.18.31.101,-0.79200,0.64100,0.15500,14.05200,95.28700,-58.81800,0.03200,0.46500,-0.15000,81.66000,0.53000
041225_04.18.31.113,-0.78500,0.62700,0.21600,-2.43300,87.18500,-82.02200,0.03200,0.46500,-0.15000,81.44000,-0.22000
041225_04.18.31.124,-0.80300,0.69000,0.10300,-24.16700,96.16200,-100.64300,0.01200,0.48200,-0.13200,80.95000,-0.49000
041225_04.18.31.136,-0.72200,0.75100,0.08500,-33.42500,113.36500,-109.60300,-0.01000,0.48800,-0.11900,81.15000,0.20000
041225_04.18.31.148,-0.87200,0.83900,0.03900,-21.82300,151.67300,-103.75700,-0.04200,0.50400,-0.11000,81.36000,0.21000
041225_04.18.31.160,-0.92900,0.49400,-0.13100,2.80000,165.09500,-91.10500,-0.08200,0.51700,-0.09100,82.19000,0.83000
041225_04.18.31.171,-1.00300,0.47200,-0.21400,21.38500,175.70000,-82.65300,-0.08200,0.51700,-0.09100,81.36000,-0.83000
041225_04.18.31.183,-0.99100,0.41100,-0.18900,34.49300,183.85500,-79.20500,-0.11700,0.53100,-0.08200,81.08000,-0.28000
041225_04.18.31.195,-0.90600,0.42900,-0.33100,47.30300,183.66300,-77.73500,-0.15600,0.54900,-0.07900,81.44000,0.36000
041225_04.18.31.207,-0.87100,0.48800,-0.34300,60.41000,177.57200,-73.58800,-0.19800,0.57100,-0.08100,80.95000,-0.49000
041225_04.18.31.218,-0.82700,0.42300,-0.38600,67.11300,170.67800,-68.26800,-0.23300,0.58700,-0.08500,80.92000,-0.03000
041225_04.18.31.230,-0.79500,0.36300,-0.40300,66.51800,161.10500,-67.49700,-0.23300,0.58700,-0.08500,80.99000,0.07000
041225_04.18.31.242,-0.72200,0.42900,-0.41700,59.62300,150.65800,-72.60700,-0.26400,0.60900,-0.08800,81.05000,0.06000
041225_04.18.31.254,-0.53800,0.93600,-0.56900,43.12000,143.04500,-69.26500,-0.30000,0.61700,-0.09400,80.62000,-0.43000
041225_04.18.31.265,-0.67900,0.54700,-0.67800,24.71000,138.61800,-50.66200,-0.32500,0.62100,-0.10100,82.51000,1.89000
041225_04.18.31.277,-0.65200,0.26900,-0.65000,36.52200,138.54800,-57.82000,-0.34500,0.62300,-0.10900,81.48000,-1.03000
041225_04.18.31.289,-0.79700,0.08600,-0.71800,53.77800,137.62000,-60.98700,-0.34500,0.62300,-0.10900,81.38000,-0.10000
041225_04.18.31.301,-0.82100,0.17900,-0.80300,69.61500,146.38700,-62.89500,-0.37300,0.64000,-0.12300,81.55000,0.17000
041225_04.18.31.312,-0.84300,0.16800,-0.84800,88.25300,155.01500,-62.28300,-0.40000,0.65300,-0.13900,81.17000,-0.38000
041225_04.18.31.324,-0.76800,0.09400,-0.93600,105.87500,160.31800,-62.24800,-0.42500,0.66900,-0.15800,80.58000,-0.59000
041225_04.18.31.336,-0.69300,-0.01800,-0.84600,120.52200,165.39300,-60.90000,-0.45900,0.69000,-0.18800,80.87000,0.29000
041225_04.18.31.347,-0.52500,0.06100,-0.85900,125.10700,172.81200,-60.32300,-0.45900,0.69000,-0.18800,81.66000,0.79000
041225_04.18.31.359,-0.41400,0.09800,-0.75300,119.56000,186.70800,-57.66200,-0.47900,0.70500,-0.22500,81.04000,-0.62000
041225_04.18.31.371,-0.37100,0.06500,-0.77100,112.40300,196.66500,-56.98000,-0.50900,0.72100,-0.25700,81.10000,0.06000
041225_04.18.31.382,-0.33300,-0.09000,-0.87500,107.59000,193.04200,-58.99300,-0.53100,0.72500,-0.28200,81.15000,0.05000
041225_04.18.31.394,-0.24000,-0.30700,-0.90000,98.80500,173.81000,-62.98300,-0.54100,0.72500,-0.31300,81.30000,0.15000
041225_04.18.31.406,0.07100,-0.38100,-0.79100,27.28200,104.82500,-79.36300,-0.54100,0.72500,-0.31300,81.19000,-0.11000
041225_04.18.31.418,-0.02900,-0.24600,-0.93700,0.70000,77.61300,-78.64500,-0.55800,0.72300,-0.32200,81.90000,0.71000
041225_04.18.31.429,-0.16800,-0.20600,-0.96400,-8.10200,74.56700,-72.55500,-0.56400,0.71200,-0.33300,81.19000,-0.71000
041225_04.18.31.441,-0.15900,-0.22200,-0.96300,-14.08700,82.07500,-64.83800,-0.57500,0.70600,-0.34100,80.64000,-0.55000
041225_04.18.31.453,-0.10300,-0.08900,-0.92600,-23.01300,82.05800,-57.85500,-0.58300,0.70300,-0.33900,81.34000,0.70000
041225_04.18.31.464,0.02200,-0.07300,-0.98300,-34.47500,73.11500,-44.04800,-0.58300,0.70300,-0.33900,81.56000,0.22000
041225_04.18.31.476,0.06800,-0.09100,-0.98900,-37.39700,68.61800,-36.20800,-0.59300,0.69300,-0.34500,81.02000,-0.54000
041225_04.18.31.488,0.02000,-0.10900,-1.02200,-30.36200,67.46300,-39.11200,-0.59800,0.69300,-0.34800,81.95000,0.93000
041225_04.18.31.500,0.05800,-0.15500,-1.01000,-20.63200,70.14000,-47.14500,-0.60900,0.68700,-0.34600,80.97000,-0.98000
041225_04.18.31.511,0.07600,-0.14300,-0.97900,-13.35200,69.49300,-59.55300,-0.61700,0.68100,-0.35000,81.21000,0.24000
041225_04.18.31.523,-0.01600,-0.02800,-1.01100,-11.23500,66.60500,-70.42000,-0.61700,0.68100,-0.35000,80.98000,-0.23000
041225_04.18.31.535,-0.02400,0.04000,-0.99200,-4.23500,70.01800,-65.87000,-0.62400,0.67100,-0.35600,80.61000,-0.37000
041225_04.18.31.546,0.06100,0.13500,-0.94900,2.59000,75.23200,-61.89700,-0.63400,0.66300,-0.36400,81.49000,0.88000
041225_04.18.31.558,0.11900,0.08400,-0.93000,9.41500,79.83500,-59.01000,-0.63800,0.65300,-0.37600,81.50000,0.01000
041225_04.18.31.570,0.15400,0.06200,-0.89700,12.61800,81.25300,-57.45200,-0.65200,0.65100,-0.38900,81.73000,0.23000
041225_04.18.31.582,0.16400,-0.01100,-0.90200,11.63700,81.30500,-56.80500,-0.65200,0.65100,-0.38900,80.97000,-0.76000
041225_04.18.31.593,0.19500,-0.05200,-0.91200,7.42000,82.09200,-56.10500,-0.65500,0.64300,-0.40000,81.48000,0.51000
041225_04.18.31.605,0.25300,-0.07600,-0.89700,2.34500,82.12800,-52.81500,-0.66200,0.63600,-0.41800,82.00000,0.52000
041225_04.18.31.617,0.31000,-0.06100,-0.87100,-4.13000,80.62200,-48.96500,-0.66200,0.62900,-0.42200,81.72000,-0.28000
041225_04.18.31.629,0.35800,-0.04800,-0.84900,-11.18200,79.85300,-45.13200,-0.66400,0.61600,-0.43300,81.12000,-0.60000
041225_04.18.31.640,0.37400,-0.02100,-0.83000,-17.93700,76.82500,-42.52500,-0.66400,0.61600,-0.43300,81.36000,0.24000
041225_04.18.31.652,0.42000,0.06400,-0.83000,-24.37800,63.08800,-42.52500,-0.66900,0.61200,-0.44300,82.40000,1.04000
041225_04.18.31.664,0.48800,0.15400,-0.78200,-30.94000,62.40500,-38.60500,-0.67500,0.60400,-0.44800,81.53000,-0.87000
041225_04.18.31.675,0.62800,0.24000,-0.73100,-31.53500,58.22200,-26.30200,-0.67100,0.60600,-0.45300,81.40000,-0.13000
041225_04.18.31.687,0.55100,0.17700,-0.80600,-32.18200,52.02800,-13.75500,-0.67000,0.60100,-0.45800,81.07000,-0.33000
041225_04.18.31.699,0.54200,0.18300,-0.80800,-29.92500,47.35500,-14.12300,-0.67000,0.60100,-0.45800,81.49000,0.42000
041225_04.18.31.711,0.74300,0.09700,-0.59800,-29.50500,43.89000,-20.33500,-0.67400,0.59700,-0.45600,81.02000,-0.47000
041225_04.18.31.722,0.74900,0.08100,-0.60300,-41.33500,34.63200,-20.82500,-0.67200,0.59400,-0.45800,81.22000,0.20000
041225_04.18.31.734,0.68100,0.29900,-0.75100,-51.10000,24.69200,-20.87800,-0.67000,0.58700,-0.46400,81.13000,-0.09000
041225_04.18.31.746,0.75400,0.41600,-0.72300,-59.30700,39.65500,-23.31000,-0.67300,0.57700,-0.46500,81.54000,0.41000
041225_04.18.31.758,0.49800,0.32400,-0.73400,-65.59000,47.96700,-29.15500,-0.67300,0.57700,-0.46500,81.78000,0.24000
041225_04.18.31.769,0.50100,0.21500,-0.71500,-72.92300,53.02500,-38.06300,-0.68000,0.57300,-0.47100,81.70000,-0.08000
041225_04.18.31.781,0.55200,0.13300,-0.64600,-96.44200,71.10300,-49.47200,-0.68100,0.56800,-0.47800,81.59000,-0.11000
041225_04.18.31.793,0.62800,0.18600,-0.65200,-107.24000,76.09000,-48.70200,-0.68300,0.56400,-0.48200,81.26000,-0.33000
041225_04.18.31.805,0.61600,0.23500,-0.62100,-110.46000,76.16000,-39.56800,-0.68500,0.55800,-0.48600,81.19000,-0.07000
041225_04.18.31.816,0.59900,0.24700,-0.60000,-111.10700,76.14300,-28.89200,-0.68500,0.55800,-0.48600,81.59000,0.40000
041225_04.18.31.828,0.59200,0.28000,-0.62100,-112.68300,78.73200,-22.24300,-0.68800,0.54900,-0.50000,81.82000,0.23000
041225_04.18.31.840,0.51900,0.34300,-0.53900,-111.68500,81.53300,-24.08000,-0.68800,0.54900,-0.49400,81.56000,-0.26000
041225_04.18.31.852,0.54800,0.44600,-0.49000,-114.92300,80.50000,-31.25500,-0.68100,0.54200,-0.49700,81.64000,0.08000
041225_04.18.31.864,0.65000,0.51200,-0.45200,-119.89300,80.55200,-38.58800,-0.68600,0.54000,-0.50400,81.66000,0.02000
041225_04.18.31.875,0.73600,0.56300,-0.38600,-121.17000,79.83500,-45.02800,-0.68600,0.54000,-0.50400,81.12000,-0.54000
041225_04.18.31.887,0.72400,0.59800,-0.36900,-122.23800,79.53700,-48.31800,-0.69100,0.53300,-0.50000,82.12000,1.00000
041225_04.18.31.899,0.70000,0.63800,-0.36100,-121.45000,81.42700,-51.10000,-0.68900,0.52800,-0.51300,81.69000,-0.43000
041225_04.18.31.910,0.79200,0.72100,-0.34600,-115.53500,77.05200,-46.91700,-0.69100,0.52200,-0.52400,81.64000,-0.05000
041225_04.18.31.922,0.68500,0.70100,-0.37400,-110.23200,75.26800,-45.20200,-0.69200,0.51500,-0.53000,80.93000,-0.71000
041225_04.18.31.934,0.60900,0.76900,-0.33800,-102.86500,76.26500,-44.59000,-0.69200,0.51500,-0.53000,82.22000,1.29000
041225_04.18.31.946,0.55900,0.81000,-0.30400,-94.78000,80.58800,-41.37000,-0.69000,0.50800,-0.54500,81.82000,-0.40000
041225_04.18.31.958,0.53600,0.77600,-0.25800,-88.55000,86.88700,-37.95800,-0.68600,0.51000,-0.55500,82.03000,0.21000
041225_04.18.31.969,0.58300,0.72600,-0.22600,-84.77000,94.16800,-35.73500,-0.68300,0.50500,-0.55700,81.27000,-0.76000
041225_04.18.31.981,0.68400,0.67400,-0.13600,-82.02200,99.89000,-32.11200,-0.68500,0.50400,-0.58000,80.83000,-0.44000
041225_04.18.31.993,0.74900,0.60500,-0.11500,-74.48000,95.42700,-25.49700,-0.68500,0.50400,-0.58000,81.03000,0.20000
041225_04.18.32.004,0.77200,0.56000,-0.06700,-68.18000,87.53500,-15.29500,-0.67900,0.50200,-0.58900,81.85000,0.82000
041225_04.18.32.016,0.87900,0.59600,-0.00800,-72.55500,82.70500,-10.76200,-0.67700,0.50700,-0.60100,80.68000,-1.17000
041225_04.18.32.028,0.64900,0.42600,0.06100,-78.48800,78.24300,-9.64200,-0.67300,0.51200,-0.60800,81.42000,0.74000
041225_04.18.32.039,0.70400,0.53800,0.17300,-94.88500,83.10700,-35.94500,-0.66500,0.51000,-0.61300,81.47000,0.05000
041225_04.18.32.051,0.78800,0.79800,0.04500,-85.87200,79.73000,-57.36500,-0.66500,0.51000,-0.61300,81.47000,0.00000
041225_04.18.32.063,0.45900,0.66000,0.22200,-71.08500,67.35700,-65.32700,-0.65700,0.50400,-0.62300,81.38000,-0.09000
041225_04.18.32.075,0.29100,0.60800,0.23800,-74.34000,68.42500,-80.39500,-0.66000,0.49800,-0.62500,81.99000,0.61000
041225_04.18.32.086,0.68800,0.71800,0.13200,-77.14000,70.50700,-88.93500,-0.65500,0.49100,-0.63700,81.66000,-0.33000
041225_04.18.32.098,0.61900,0.59000,0.19200,-71.92500,64.52200,-81.76000,-0.65400,0.48300,-0.64400,80.70000,-0.96000
041225_04.18.32.110,0.44100,0.68300,0.24300,-73.86800,63.50700,-78.26000,-0.65400,0.48300,-0.64400,81.47000,0.77000
041225_04.18.32.121,0.46000,0.73100,0.09700,-74.21700,64.24300,-79.34500,-0.65400,0.47700,-0.65100,82.47000,1.00000
041225_04.18.32.133,0.28900,0.50200,0.02600,-90.30000,66.02800,-85.17300,-0.64700,0.46900,-0.66400,81.66000,-0.81000
041225_04.18.32.145,-0.16300,0.41900,0.33700,-123.81300,82.12800,-99.78500,-0.64100,0.46900,-0.66400,81.62000,-0.04000
041225_04.18.32.157,0.07600,0.20900,0.68200,-147.29800,121.78300,-76.79000,-0.63000,0.46900,-0.68400,82.25000,0.63000
041225_04.18.32.168,0.43800,0.84000,0.72700,-110.14500,76.23000,-76.26500,-0.63000,0.46900,-0.68400,81.57000,-0.68000
041225_04.18.32.180,0.42000,1.21300,0.49800,-94.15000,83.38700,-88.27000,-0.62800,0.46100,-0.69000,82.27000,0.70000
041225_04.18.32.192,0.11100,0.86500,0.65000,-71.40000,80.90300,-80.25500,-0.62200,0.46100,-0.70100,81.97000,-0.30000
041225_04.18.32.203,0.15900,0.71400,0.64200,-50.96000,78.54000,-82.91500,-0.61200,0.45800,-0.71400,82.13000,0.16000
041225_04.18.32.215,0.24700,0.76100,0.62600,-36.92500,74.09500,-90.86000,-0.60200,0.44600,-0.72600,81.88000,-0.25000
041225_04.18.32.227,0.28000,0.93100,0.66200,-27.52800,66.93800,-97.21300,-0.60200,0.44600,-0.72600,82.07000,0.19000
041225_04.18.32.238,0.07700,0.85100,0.66600,-16.71200,59.55300,-99.45200,-0.60100,0.43000,-0.73200,81.77000,-0.30000
041225_04.18.32.250,-0.19600,0.84200,0.60000,-12.00500,62.03700,-104.02000,-0.59200,0.41800,-0.74200,81.73000,-0.04000
041225_04.18.32.262,-0.49300,0.96600,0.58000,-14.94500,73.01000,-97.59800,-0.58400,0.40200,-0.74500,81.93000,0.20000
041225_04.18.32.273,-0.16800,0.90600,0.64400,-13.54500,84.75300,-75.70500,-0.57000,0.39900,-0.76100,81.72000,-0.21000
041225_04.18.32.285,0.06700,0.79400,0.81800,-5.82700,66.04500,-59.76300,-0.57000,0.39900,-0.76100,81.52000,-0.20000
041225_04.18.32.297,0.04100,0.83100,0.91100,6.75500,52.41200,-63.73500,-0.56100,0.39500,-0.76700,81.94000,0.42000
041225_04.18.32.308,-0.15100,0.88400,0.79800,13.79000,47.32000,-58.87000,-0.55600,0.37800,-0.76700,81.94000,0.00000
041225_04.18.32.320,-0.22400,0.80300,0.74600,18.14800,44.29200,-50.64500,-0.54000,0.37300,-0.78100,81.58000,-0.36000
041225_04.18.32.332,-0.29600,0.71200,0.72700,18.67300,43.01500,-43.66200,-0.53400,0.36600,-0.77600,81.89000,0.31000
041225_04.18.32.344,-0.24500,0.67800,0.75000,15.76700,43.54000,-37.90500,-0.53400,0.36600,-0.77600,81.98000,0.09000
041225_04.18.32.355,-0.21100,0.67200,0.69100,9.60800,43.73300,-31.18500,-0.52900,0.35600,-0.78400,81.20000,-0.78000
041225_04.18.32.367,-0.22100,0.67400,0.62000,5.21500,43.26000,-27.17700,-0.51700,0.35700,-0.78600,81.79000,0.59000
041225_04.18.32.379,-0.26600,0.70600,0.56400,3.58800,43.45200,-25.30500,-0.51000,0.35600,-0.78900,82.10000,0.31000
041225_04.18.32.390,-0.33800,0.72300,0.55100,3.50000,45.43000,-23.43300,-0.50100,0.35300,-0.80000,81.34000,-0.76000
041225_04.18.32.402,-0.38400,0.73100,0.54900,4.37500,49.28000,-21.70000,-0.50100,0.35300,-0.80000,81.35000,0.01000
041225_04.18.32.414,-0.38900,0.73400,0.53600,6.26500,57.33000,-21.66500,-0.49500,0.35000,-0.81000,81.86000,0.51000
041225_04.18.32.425,-0.39500,0.72800,0.51400,10.43000,59.25500,-20.37000,-0.48900,0.34500,-0.81000,81.55000,-0.31000
041225_04.18.32.437,-0.42300,0.68700,0.49300,11.62000,61.56500,-18.95200,-0.47700,0.34400,-0.81700,81.76000,0.21000
041225_04.18.32.449,-0.42000,0.68500,0.47800,10.97200,65.55500,-17.86800,-0.46800,0.34100,-0.82600,81.51000,-0.25000
041225_04.18.32.460,-0.50300,0.70400,0.47200,6.68500,68.72300,-15.06800,-0.46800,0.34100,-0.82600,81.67000,0.16000
041225_04.18.32.472,-0.49700,0.74200,0.42900,2.48500,74.04300,-11.49800,-0.45600,0.33600,-0.82900,81.63000,-0.04000
041225_04.18.32.484,-0.48800,0.72900,0.42900,-0.14000,79.48500,-6.12500,-0.44600,0.34000,-0.83800,81.63000,0.00000
041225_04.18.32.495,-0.43600,0.75100,0.45400,-1.96000,82.49500,-2.73000,-0.42200,0.33900,-0.84100,81.64000,0.01000
041225_04.18.32.507,-0.38600,0.80400,0.46200,-0.66500,80.92000,-2.57200,-0.40500,0.33500,-0.84100,81.30000,-0.34000
041225_04.18.32.519,-0.44800,0.76800,0.41000,5.35500,76.82500,-5.33800,-0.40500,0.33500,-0.84100,81.06000,-0.24000
041225_04.18.32.530,-0.43900,0.78000,0.38700,16.25700,74.93500,-12.47700,-0.39200,0.33500,-0.84800,81.58000,0.52000
041225_04.18.32.542,-0.48200,0.76000,0.36900,34.40500,69.63200,-19.04000,-0.37900,0.32900,-0.84300,80.59000,-0.99000
041225_04.18.32.554,-0.57400,0.37100,0.42700,33.37300,67.13000,-29.94300,-0.36700,0.32100,-0.85100,80.79000,0.20000
041225_04.18.32.566,-0.66700,0.28800,0.45800,26.89800,64.68000,-45.92000,-0.35400,0.31200,-0.85200,81.11000,0.32000
041225_04.18.32.577,-0.73400,0.46900,0.36800,16.66000,63.59500,-60.16500,-0.35400,0.31200,-0.85200,81.51000,0.40000
041225_04.18.32.589,-0.86900,0.48700,0.22100,7.59500,69.37000,-65.10000,-0.34200,0.31000,-0.84900,81.19000,-0.32000
041225_04.18.32.601,-1.02000,0.47900,0.23800,-2.43300,83.72000,-71.24300,-0.31800,0.31300,-0.85900,81.78000,0.59000
041225_04.18.32.612,-0.97600,0.71000,0.27000,-15.33000,97.80800,-75.42500,-0.29500,0.31900,-0.86600,81.28000,-0.50000
041225_04.18.32.624,-0.81400,0.69600,0.47400,-34.98300,106.75000,-68.37200,-0.27200,0.33200,-0.86300,80.96000,-0.32000
041225_04.18.32.636,-0.79300,0.68400,0.50100,-52.76300,105.61300,-61.91500,-0.27200,0.33200,-0.86300,81.54000,0.58000
041225_04.18.32.648,-0.89100,0.74500,0.49700,-63.40300,105.07000,-59.86800,-0.25300,0.34800,-0.86700,81.07000,-0.47000
041225_04.18.32.659,-0.87800,0.80800,0.42400,-64.99500,101.65800,-66.50000,-0.23100,0.36800,-0.86000,81.63000,0.56000
041225_04.18.32.671,-0.78200,0.78500,0.37400,-64.83800,95.56700,-77.50700,-0.21400,0.38300,-0.85200,81.40000,-0.23000
041225_04.18.32.683,-0.65300,0.66900,0.40000,-70.43800,87.09800,-70.50700,-0.19400,0.39700,-0.84900,81.15000,-0.25000
041225_04.18.32.694,-0.73500,0.55400,0.36300,-71.66200,77.98000,-63.29800,-0.19400,0.39700,-0.84900,81.24000,0.09000
041225_04.18.32.706,-0.70900,0.66000,0.41400,-66.18500,77.89300,-64.64500,-0.18400,0.41900,-0.85700,81.62000,0.38000
041225_04.18.32.718,-0.86600,0.70000,0.35500,-56.43800,80.58800,-60.44500,-0.17200,0.43000,-0.84700,82.03000,0.41000
041225_04.18.32.730,-0.93600,0.74200,0.27600,-48.54500,85.85500,-59.86800,-0.16500,0.44500,-0.84600,81.65000,-0.38000
041225_04.18.32.741,-0.99000,0.70300,0.22900,-39.28700,92.55800,-60.07700,-0.15700,0.45700,-0.84000,81.40000,-0.25000
041225_04.18.32.753,-1.06200,0.63500,0.18800,-27.75500,100.45000,-60.48000,-0.15700,0.45700,-0.84000,81.48000,0.08000
041225_04.18.32.765,-1.13300,0.54700,0.14300,-17.95500,111.73800,-61.16200,-0.13700,0.46000,-0.83100,81.16000,-0.32000
041225_04.18.32.776,-1.10500,0.44000,0.14500,-9.85200,123.09500,-63.29800,-0.12300,0.47000,-0.82600,81.60000,0.44000
041225_04.18.32.788,-0.98900,0.32300,0.20000,-5.93200,130.14800,-70.29800,-0.10700,0.47200,-0.81500,82.40000,0.80000
041225_04.18.32.800,-0.91700,0.20800,0.22300,-13.47500,127.68000,-81.91800,-0.08800,0.47800,-0.80500,82.00000,-0.40000
041225_04.18.32.811,-0.85400,0.16100,0.31300,-21.87500,118.28300,-98.59500,-0.08800,0.47800,-0.80500,81.63000,-0.37000
041225_04.18.32.823,-0.98800,0.05200,0.28800,-22.40000,109.37500,-106.17300,-0.07800,0.49300,-0.80600,81.72000,0.09000
041225_04.18.32.835,-0.93700,0.04600,0.17900,-24.37800,98.43800,-107.24000,-0.06700,0.50600,-0.79300,82.11000,0.39000
041225_04.18.32.847,-0.89900,-0.04200,0.08100,-26.02300,86.53700,-113.43500,-0.06800,0.52300,-0.78300,82.06000,-0.05000
041225_04.18.32.858,-0.94400,-0.09900,0.02500,-36.13800,74.13000,-124.14500,-0.06600,0.54100,-0.78000,81.94000,-0.12000
041225_04.18.32.870,-0.99500,-0.13700,0.03400,-48.73700,63.70000,-135.55500,-0.06600,0.54100,-0.78000,81.83000,-0.11000
041225_04.18.32.882,-1.03500,-0.30000,-0.01200,-59.20200,57.03300,-145.60000,-0.07000,0.56300,-0.77100,81.79000,-0.04000
041225_04.18.32.894,-1.09200,-0.39100,-0.05400,-69.05500,51.46700,-156.04800,-0.08500,0.59400,-0.76000,80.70000,-1.09000
041225_04.18.32.905,-1.17800,-0.39700,-0.04600,-80.81500,47.81000,-165.28800,-0.10200,0.62700,-0.75200,81.42000,0.72000
041225_04.18.32.917,-1.27500,-0.18900,-0.12200,-90.77200,52.69300,-172.88300,-0.12100,0.65000,-0.74400,81.65000,0.23000
041225_04.18.32.929,-1.24000,-0.12500,-0.13800,-94.67500,50.73300,-162.94300,-0.12100,0.65000,-0.74400,81.98000,0.33000
041225_04.18.32.941,-1.04000,-0.04100,-0.21100,-96.68800,47.19700,-146.54500,-0.13500,0.67300,-0.73800,81.63000,-0.35000
041225_04.18.32.953,-0.93900,-0.08100,-0.18100,-95.62000,40.25000,-133.15800,-0.15200,0.69000,-0.72700,81.77000,0.14000
041225_04.18.32.964,-0.80500,-0.09100,-0.14100,-95.56700,32.32200,-124.56500,-0.16600,0.70900,-0.72000,80.78000,-0.99000
041225_04.18.32.976,-0.73700,-0.07500,-0.12300,-90.58000,23.90500,-118.31700,-0.18300,0.72400,-0.70800,81.29000,0.51000
041225_04.18.32.987,-0.63100,-0.10500,-0.06900,-78.80200,13.70300,-115.13200,-0.18300,0.72400,-0.70800,80.92000,-0.37000
041225_04.18.32.999,-0.66000,-0.25300,-0.01500,-65.67700,4.30500,-115.72800,-0.20200,0.73700,-0.70400,81.51000,0.59000
041225_04.18.33.011,-0.66800,-0.33600,-0.11400,-57.10300,-0.10500,-121.20500,-0.22300,0.74800,-0.70200,80.98000,-0.53000
041225_04.18.33.023,-0.58300,-0.44700,-0.19400,-51.25700,-9.60800,-128.46700,-0.25100,0.75400,-0.68900,80.54000,-0.44000
041225_04.18.33.035,-0.60800,-0.50800,-0.24400,-50.97800,-29.43500,-134.94300,-0.27700,0.76600,-0.68000,81.40000,0.86000
041225_04.18.33.046,-0.68600,-0.53700,-0.24800,-73.79800,-58.22200,-135.64300,-0.27700,0.76600,-0.68000,81.25000,-0.15000
041225_04.18.33.058,-0.65500,-0.60300,-0.18600,-89.74000,-69.91200,-127.22500,-0.30700,0.77600,-0.66900,80.47000,-0.78000
041225_04.18.33.070,-0.53500,-0.69100,-0.03700,-104.03700,-84.42000,-120.50500,-0.34100,0.77500,-0.65500,81.55000,1.08000
041225_04.18.33.082,-0.52600,-0.67500,0.09200,-114.95800,-99.71500,-115.69200,-0.37000,0.78200,-0.63100,80.88000,-0.67000
041225_04.18.33.094,-0.59000,-0.72400,0.13800,-118.68500,-113.61000,-112.15800,-0.40400,0.78400,-0.60600,81.53000,0.65000
041225_04.18.33.105,-0.70500,-0.72700,0.11500,-122.06300,-126.29800,-114.41500,-0.40400,0.78400,-0.60600,81.32000,-0.21000
041225_04.18.33.117,-0.77600,-0.62300,0.08900,-127.85500,-139.49300,-122.71000,-0.43600,0.78500,-0.57600,80.69000,-0.63000
041225_04.18.33.129,-1.05200,-0.31800,-0.00100,-132.80700,-150.64000,-126.01800,-0.46700,0.78000,-0.53900,81.51000,0.82000
041225_04.18.33.141,-0.85900,-0.46700,0.10100,-134.12000,-152.72300,-115.36000,-0.49100,0.77400,-0.50300,81.22000,-0.29000
041225_04.18.33.153,-0.77000,-0.66400,0.13000,-138.72300,-165.98800,-107.31000,-0.50900,0.76000,-0.45600,80.88000,-0.34000
041225_04.18.33.165,-0.99900,-0.54400,0.12400,-150.20200,-179.39300,-102.35700,-0.50900,0.76000,-0.45600,82.23000,1.35000
041225_04.18.33.177,-1.26600,-0.55100,0.05100,-164.72700,-173.49500,-82.05800,-0.51900,0.74800,-0.41300,80.81000,-1.42000
041225_04.18.33.188,-1.30600,-0.47000,0.01100,-162.55700,-163.25800,-76.73800,-0.52100,0.73800,-0.36800,80.80000,-0.01000
041225_04.18.33.200,-1.26800,-0.41000,-0.01500,-153.91300,-148.19000,-73.53500,-0.52100,0.72300,-0.33400,81.13000,0.33000
041225_04.18.33.212,-1.17000,-0.37000,-0.04800,-139.84200,-131.65200,-68.58200,-0.51300,0.70500,-0.29800,81.44000,0.31000
041225_04.18.33.224,-1.01700,-0.42000,-0.03700,-123.44500,-116.84800,-62.40500,-0.51300,0.70500,-0.27200,81.21000,-0.23000
041225_04.18.33.236,-0.93000,-0.43600,-0.06500,-108.08000,-106.47000,-57.47000,-0.51100,0.69400,-0.27200,81.79000,0.58000
041225_04.18.33.248,-0.87600,-0.46000,-0.14600,-91.91000,-99.36500,-54.56500,-0.50400,0.68100,-0.25200,81.24000,-0.55000
041225_04.18.33.259,-0.77600,-0.59700,-0.11800,-76.87800,-94.67500,-51.92300,-0.49500,0.67000,-0.23500,80.74000,-0.50000
041225_04.18.33.271,-0.73100,-0.72600,-0.09100,-67.83000,-95.04300,-52.95500,-0.48700,0.66200,-0.22100,80.98000,0.24000
041225_04.18.33.283,-0.67000,-0.80600,-0.09700,-64.47000,-99.43500,-57.57500,-0.48700,0.66200,-0.19300,81.14000,0.16000
041225_04.18.33.295,-0.69500,-0.92300,-0.08600,-67.37500,-106.19000,-62.30000,-0.48200,0.65400,-0.19300,81.06000,-0.08000
041225_04.18.33.306,-0.81700,-0.89300,-0.09000,-90.52800,-112.05200,-64.40000,-0.47500,0.63900,-0.18200,81.16000,0.10000
041225_04.18.33.318,-1.05000,-0.69300,-0.12500,-96.51200,-104.94800,-56.07000,-0.46500,0.62200,-0.16600,81.65000,0.49000
041225_04.18.33.330,-0.88300,-0.61600,-0.13300,-98.14000,-95.14700,-46.35800,-0.45000,0.60800,-0.15000,81.72000,0.07000
041225_04.18.33.342,-0.77600,-0.85400,-0.24900,-97.91200,-88.11300,-39.60300,-0.45000,0.60800,-0.13100,81.44000,-0.28000
041225_04.18.33.354,-0.73200,-0.70200,-0.14200,-108.11500,-82.74000,-42.91000,-0.44100,0.59900,-0.13100,81.43000,-0.01000
041225_04.18.33.366,-0.70300,-0.64500,-0.13700,-114.90500,-87.27200,-40.19700,-0.43100,0.58100,-0.12100,81.49000,0.06000
041225_04.18.33.377,-0.68800,-0.55800,-0.17400,-111.19500,-88.74300,-41.96500,-0.41600,0.56200,-0.11200,80.80000,-0.69000
041225_04.18.33.389,-0.76500,-0.54300,-0.23100,-100.67700,-86.39700,-47.60000,-0.40600,0.54800,-0.09500,81.51000,0.71000
041225_04.18.33.401,-0.75000,-0.66700,-0.22600,-90.44000,-80.18500,-53.32200,-0.40600,0.54800,-0.09400,81.44000,-0.07000
041225_04.18.33.413,-0.67300,-0.70500,-0.33200,-83.35300,-77.87500,-59.48300,-0.39400,0.53100,-0.09400,81.12000,-0.32000
041225_04.18.33.425,-0.69800,-0.90100,-0.30400,-81.56700,-79.01200,-67.53300,-0.38700,0.51800,-0.08000,81.57000,0.45000
041225_04.18.33.436,-0.64300,-1.01300,-0.09900,-113.92500,-95.63700,-82.16200,-0.37500,0.49500,-0.06800,82.07000,0.50000
041225_04.18.33.448,-0.75100,-0.72600,-0.10600,-125.56300,-93.25700,-82.60000,-0.36100,0.47500,-0.06800,81.77000,-0.30000
041225_04.18.33.460,-0.73800,-0.57200,-0.10700,-121.59000,-84.87500,-75.72300,-0.36100,0.45600,-0.06100,81.35000,-0.42000
041225_04.18.33.472,-0.72700,-0.53800,-0.15300,-108.36000,-76.24700,-68.88000,-0.35000,0.45600,-0.06100,82.01000,0.66000
041225_04.18.33.483,-0.65600,-0.62800,-0.20100,-95.39300,-68.11000,-65.39700,-0.33900,0.43200,-0.05300,81.71000,-0.30000
041225_04.18.33.495,-0.56300,-0.75600,-0.27200,-85.22500,-66.86800,-65.25700,-0.32600,0.41300,-0.05200,81.61000,-0.10000
041225_04.18.33.507,-0.49000,-0.87500,-0.29200,-70.82300,-80.92000,-66.15000,-0.31100,0.40800,-0.04900,81.70000,0.09000
041225_04.18.33.519,-0.69500,-0.81600,-0.27800,-63.45500,-90.89500,-68.39000,-0.31100,0.39000,-0.04600,82.12000,0.42000
041225_04.18.33.530,-0.46400,-0.88400,-0.27000,-67.16500,-90.49300,-78.48800,-0.29800,0.39000,-0.04600,81.21000,-0.91000
041225_04.18.33.542,-0.52300,-0.76000,-0.28900,-71.94200,-99.38200,-85.64500,-0.27100,0.37800,-0.04800,82.00000,0.79000
041225_04.18.33.554,-0.69100,-0.79500,-0.27700,-66.86800,-104.02000,-98.12200,-0.25400,0.36800,-0.04400,81.73000,-0.27000
041225_04.18.33.566,-0.73300,-0.72900,-0.21800,-65.06500,-75.05800,-102.23500,-0.24000,0.36100,-0.04900,81.60000,-0.13000
041225_04.18.33.578,-0.58900,-0.67400,-0.16800,-58.46700,-56.64700,-101.37800,-0.24000,0.35300,-0.04800,82.25000,0.65000
041225_04.18.33.589,-0.41000,-0.92300,-0.10100,-49.66500,-47.47800,-101.97300,-0.22200,0.35300,-0.04800,81.37000,-0.88000
041225_04.18.33.601,-0.37800,-1.05100,-0.14600,-46.48000,-46.32200,-105.87500,-0.21400,0.34700,-0.05000,81.78000,0.41000
041225_04.18.33.613,-0.37800,-1.08500,-0.27400,-47.60000,-43.13800,-107.13500,-0.20800,0.34400,-0.05400,81.38000,-0.40000
041225_04.18.33.625,-0.36400,-1.04700,-0.22800,-52.58800,-39.70800,-102.21700,-0.20100,0.33300,-0.05500,81.50000,0.12000
041225_04.18.33.637,-0.44200,-0.89900,-0.16600,-59.85000,-29.05000,-91.38500,-0.20100,0.32700,-0.05000,82.03000,0.53000
041225_04.18.33.649,-0.47700,-0.77500,-0.17400,-56.03500,-11.02500,-80.78000,-0.19400,0.32700,-0.05000,81.71000,-0.32000
041225_04.18.33.660,-0.48700,-0.78200,-0.24800,-47.88000,5.93200,-75.19800,-0.18900,0.32100,-0.05600,81.91000,0.20000
041225_04.18.33.672,-0.38300,-0.79500,-0.33000,-47.49500,21.26300,-73.16800,-0.19000,0.31400,-0.05800,82.13000,0.22000
041225_04.18.33.684,-0.21000,-0.91100,-0.39200,-50.40000,21.42000,-72.55500,-0.19900,0.31200,-0.05600,81.59000,-0.54000
041225_04.18.33.696,-0.11200,-0.89100,-0.41200,-57.96000,7.82300,-71.61000,-0.19900,0.29900,-0.05700,82.03000,0.44000
041225_04.18.33.707,-0.26100,-0.82900,-0.38900,-60.23500,-4.46300,-67.44500,-0.19500,0.29900,-0.05700,82.00000,-0.03000
041225_04.18.33.719,-0.32600,-0.78300,-0.39600,-58.11800,-8.43500,-58.94000,-0.19100,0.29100,-0.05900,81.37000,-0.63000
041225_04.18.33.731,-0.36100,-0.68800,-0.38000,-53.27000,-3.55300,-47.79200,-0.18700,0.28400,-0.06400,81.80000,0.43000
041225_04.18.33.742,-0.34100,-0.54600,-0.29300,-41.51000,5.40700,-36.13800,-0.19000,0.27200,-0.06900,81.40000,-0.40000
041225_04.18.33.754,-0.22700,-0.76500,-0.23000,-18.77800,17.93700,-29.47000,-0.19200,0.27300,-0.06400,81.62000,0.22000
041225_04.18.33.766,-0.22400,-0.83400,-0.32200,-4.83000,35.08800,-32.49800,-0.19200,0.27300,-0.06400,81.11000,-0.51000
041225_04.18.33.778,-0.11300,-0.75100,-0.36900,-5.39000,52.36000,-35.40300,-0.20200,0.27200,-0.06000,82.00000,0.89000
041225_04.18.33.789,-0.00700,-0.76800,-0.39600,-4.58500,57.03300,-35.00000,-0.20700,0.27200,-0.06200,81.93000,-0.07000
041225_04.18.33.801,0.00400,-0.75700,-0.47300,0.85800,49.78700,-33.95000,-0.21900,0.27000,-0.06300,81.55000,-0.38000
041225_04.18.33.813,0.01200,-0.76200,-0.50900,-3.15000,28.08700,-22.15500,-0.22000,0.27400,-0.06100,81.95000,0.40000
041225_04.18.33.825,0.14800,-0.76200,-0.52000,-6.16000,18.28800,-14.77000,-0.22000,0.27400,-0.06100,81.47000,-0.48000
041225_04.18.33.836,0.18700,-0.72800,-0.54600,-8.06800,8.87300,-9.13500,-0.22100,0.27100,-0.05900,81.82000,0.35000
041225_04.18.33.848,0.17600,-0.72200,-0.59500,-8.75000,-0.36800,-7.99700,-0.22100,0.26800,-0.05900,82.36000,0.54000
041225_04.18.33.860,0.13200,-0.76200,-0.64400,-8.90800,-9.59000,-11.90000,-0.21600,0.27000,-0.05900,81.51000,-0.85000
041225_04.18.33.871,0.13700,-0.89400,-0.83600,-14.21000,-20.38800,-16.10000,-0.21100,0.26100,-0.06200,81.56000,0.05000
041225_04.18.33.883,0.08700,-0.99300,-0.84800,-30.62500,-52.37700,1.54000,-0.21100,0.26100,-0.06200,81.22000,-0.34000
041225_04.18.33.895,-0.01800,-0.73800,-0.59700,-35.52500,-78.48800,19.26700,-0.19600,0.24800,-0.06900,81.49000,0.27000
041225_04.18.33.907,-0.17500,-0.83500,-0.61700,-25.51500,-81.97000,22.87200,-0.18100,0.23900,-0.07300,82.31000,0.82000
041225_04.18.33.918,-0.18800,-0.81500,-0.61900,-26.07500,-68.05800,27.59700,-0.16600,0.23800,-0.07300,81.90000,-0.41000
041225_04.18.33.930,-0.17200,-0.67300,-0.63300,-22.08500,-54.21500,32.07700,-0.16400,0.22900,-0.07800,82.17000,0.27000
041225_04.18.33.942,-0.19800,-0.61400,-0.65500,-0.94500,-35.96300,32.79500,-0.16400,0.22900,-0.07800,81.39000,-0.78000
041225_04.18.33.953,-0.09600,-0.62700,-0.71000,3.97300,-31.74500,29.33000,-0.15700,0.22600,-0.08000,81.91000,0.52000
041225_04.18.33.965,-0.06700,-0.63300,-0.76700,6.91200,-36.57500,27.49300,-0.15100,0.22800,-0.08200,82.15000,0.24000
041225_04.18.33.977,-0.05100,-0.70400,-0.78200,10.25500,-49.87500,28.92700,-0.14100,0.22900,-0.08100,81.86000,-0.29000
041225_04.18.33.989,-0.08100,-0.79100,-0.79500,11.13000,-66.78000,33.26800,-0.13000,0.22700,-0.09300,81.61000,-0.25000
041225_04.18.34.000,-0.14000,-0.88500,-0.79900,7.38500,-83.16000,40.84500,-0.13000,0.22700,-0.09300,81.71000,0.10000
041225_04.18.34.012,-0.15200,-0.90600,-0.74000,-2.38000,-93.80000,48.44000,-0.11800,0.22100,-0.09200,82.18000,0.47000
041225_04.18.34.024,-0.23100,-0.85900,-0.68900,-10.16800,-100.39700,56.36800,-0.10000,0.21400,-0.10400,81.77000,-0.41000
041225_04.18.34.036,-0.33700,-0.81400,-0.65900,-16.48500,-102.79500,63.45500,-0.08700,0.20700,-0.11600,81.84000,0.07000
041225_04.18.34.047,-0.40700,-0.73400,-0.60900,-24.95500,-100.15300,69.33500,-0.07600,0.19700,-0.12600,82.01000,0.17000
041225_04.18.34.059,-0.49800,-0.77900,-0.53000,-30.67700,-95.93500,71.05000,-0.07600,0.19700,-0.12600,81.70000,-0.31000
041225_04.18.34.070,-0.55200,-0.70900,-0.58000,-24.53500,-97.75500,51.11800,-0.06900,0.18900,-0.13800,81.23000,-0.47000
041225_04.18.34.082,-1.31500,-0.51900,-0.30900,-27.77300,-74.56700,41.91200,-0.05000,0.17700,-0.14700,81.78000,0.55000
041225_04.18.34.094,-1.04000,-0.41800,-0.32100,-36.08500,-18.98700,32.95200,-0.04900,0.17500,-0.14800,81.85000,0.07000
041225_04.18.34.106,-0.57000,-0.69600,-0.35800,-41.72000,17.36000,28.73500,-0.05600,0.16000,-0.15000,81.83000,-0.02000
041225_04.18.34.117,-0.41000,-0.79800,-0.39800,-50.48700,16.90500,23.15300,-0.05600,0.16000,-0.15000,81.04000,-0.79000
041225_04.18.34.129,-0.42700,-0.71800,-0.68100,-67.37500,-4.58500,12.60000,-0.05700,0.14800,-0.16100,82.19000,1.15000
041225_04.18.34.141,-0.49800,-0.66900,-0.92400,-65.76500,-24.81500,5.26700,-0.05300,0.13800,-0.16700,81.30000,-0.89000
041225_04.18.34.153,-0.66100,-0.58900,-0.46300,-68.16200,-38.15000,2.08200,-0.04900,0.12700,-0.18400,81.48000,0.18000
041225_04.18.34.164,-0.75200,-0.48600,-0.51400,-98.87500,-40.39000,-5.12800,-0.04000,0.11200,-0.19800,81.39000,-0.09000
041225_04.18.34.176,-0.66800,-0.33800,-0.72100,-119.21000,-37.57200,-19.42500,-0.04000,0.11200,-0.19800,81.63000,0.24000
041225_04.18.34.188,-0.61500,-0.38900,-0.72800,-124.39000,-39.49800,-43.57500,-0.03000,0.10700,-0.21800,81.64000,0.01000
041225_04.18.34.200,-0.65500,-0.48000,-0.53200,-137.41000,-68.75700,-61.04000,-0.01700,0.09500,-0.23800,81.18000,-0.46000
041225_04.18.34.211,-0.56800,-0.56100,-0.58100,-149.59000,-83.02000,-74.48000,0.00400,0.09000,-0.26800,81.25000,0.07000
041225_04.18.34.223,-0.42000,-0.53200,-0.52200,-160.86000,-91.73500,-80.39500,0.02400,0.08800,-0.30000,81.60000,0.35000
041225_04.18.34.235,-0.35600,-0.44400,-0.40500,-169.15500,-82.09200,-77.77000,0.02400,0.08800,-0.30000,81.42000,-0.18000
041225_04.18.34.246,-0.34800,-0.34200,-0.56400,-166.33700,-71.73200,-60.76000,0.03900,0.08800,-0.32300,81.68000,0.26000
041225_04.18.34.258,-0.46300,-0.32100,-0.64300,-163.01200,-68.89700,-38.09700,0.05200,0.08600,-0.35700,81.26000,-0.42000
041225_04.18.34.270,-0.54400,-0.19600,-0.76700,-158.27000,-60.84700,-18.86500,0.05900,0.08100,-0.39000,81.59000,0.33000
041225_04.18.34.282,-0.51100,-0.10000,-0.77400,-147.78800,-53.30500,-6.07300,0.06200,0.08200,-0.41600,81.08000,-0.51000
041225_04.18.34.293,-0.58700,-0.23900,-0.53300,-139.98200,-60.55000,2.27500,0.06200,0.08200,-0.41600,81.59000,0.51000
041225_04.18.34.305,-0.54000,-0.27000,-0.44700,-145.21500,-63.17500,9.22200,0.06500,0.07900,-0.44200,81.59000,0.00000
041225_04.18.34.317,-0.35400,-0.41300,-0.12700,-150.06200,-70.33200,15.10200,0.06300,0.08300,-0.47600,80.84000,-0.75000
041225_04.18.34.329,-0.46900,-0.13200,-0.35300,-192.90200,-73.81500,0.85800,0.06600,0.09000,-0.50600,81.28000,0.44000
041225_04.18.34.340,-0.57000,0.06400,-0.52500,-201.95000,-74.65500,-0.94500,0.06900,0.10500,-0.54100,82.01000,0.73000
041225_04.18.34.352,-0.68900,0.21500,-0.69800,-199.93700,-73.48200,1.19000,0.06900,0.10500,-0.54100,81.28000,-0.73000
041225_04.18.34.364,-1.24400,0.65900,-1.39000,-181.45800,-57.69800,5.84500,0.07400,0.12200,-0.57500,81.19000,-0.09000
041225_04.18.34.375,-1.08900,0.30400,-1.17000,-137.21700,-23.20500,15.12000,0.07400,0.13800,-0.59200,81.16000,-0.03000
041225_04.18.34.387,-0.82200,0.33000,-0.80500,-113.85500,-15.87300,25.69000,0.07000,0.14400,-0.60600,80.96000,-0.20000
041225_04.18.34.399,-0.80800,0.21700,-0.67200,-110.11000,-23.95800,39.81300,0.06900,0.15000,-0.62200,81.47000,0.51000
041225_04.18.34.411,-0.86900,0.26900,-0.78100,-116.81300,-32.58500,43.29500,0.06900,0.15000,-0.62200,81.08000,-0.39000
041225_04.18.34.422,-0.90100,0.30300,-0.78900,-125.47500,-37.53700,45.67500,0.06400,0.15300,-0.64000,81.64000,0.56000
041225_04.18.34.434,-0.75600,0.30100,-0.79900,-130.14800,-42.70000,52.78000,0.05700,0.16400,-0.65800,81.26000,-0.38000
041225_04.18.34.446,-0.61400,0.28400,-0.85400,-141.59200,-65.64300,67.49700,0.04700,0.17000,-0.67500,81.29000,0.03000
041225_04.18.34.457,-0.62900,0.18800,-0.42300,-153.86000,-81.48000,75.37200,0.03300,0.18200,-0.70000,81.52000,0.23000
041225_04.18.34.469,-0.58800,0.25600,-0.37300,-173.44300,-98.01800,88.20000,0.03300,0.18200,-0.70000,81.16000,-0.36000
041225_04.18.34.481,-0.64800,0.37700,-0.23000,-200.90000,-110.70500,103.42500,0.02600,0.19400,-0.73000,81.53000,0.37000
041225_04.18.34.493,-0.84700,0.64800,-0.15500,-232.19000,-112.05200,120.19000,0.00200,0.21600,-0.75400,80.98000,-0.55000
041225_04.18.34.504,-0.90600,1.00300,-0.14400,-252.10500,-95.65500,129.48200,-0.02000,0.24100,-0.77600,81.30000,0.32000
041225_04.18.34.516,-0.66400,1.18600,-0.07200,-239.15500,-70.42000,120.24300,-0.03200,0.26800,-0.79200,81.54000,0.24000
041225_04.18.34.528,-0.65300,1.14800,-0.20800,-197.94300,-66.01000,106.05000,-0.03200,0.26800,-0.79200,81.45000,-0.09000
041225_04.18.34.540,-0.69900,0.97600,-0.25400,-146.35200,-66.01000,93.78300,-0.04600,0.28300,-0.79700,81.23000,-0.22000
041225_04.18.34.551,-0.79600,0.81000,-0.24600,-105.05200,-65.83500,85.73200,-0.05800,0.29500,-0.80600,81.28000,0.05000
041225_04.18.34.563,-0.84400,0.63400,-0.15400,-77.45500,-60.91700,83.14300,-0.07000,0.29500,-0.82000,81.54000,0.26000
041225_04.18.34.575,-0.80400,0.61300,-0.06000,-59.23700,-48.66700,74.21700,-0.08500,0.30000,-0.81800,81.63000,0.09000
041225_04.18.34.586,-0.57800,0.84000,0.27000,-71.43500,-42.38500,69.93000,-0.08500,0.30000,-0.81800,81.66000,0.03000
041225_04.18.34.598,-0.54900,0.95000,0.28700,-89.09200,-42.64700,73.53500,-0.09200,0.30600,-0.83000,80.61000,-1.05000
041225_04.18.34.610,-0.59700,0.91600,0.24000,-104.26500,-45.97200,83.44000,-0.10300,0.32000,-0.83500,81.25000,0.64000
041225_04.18.34.622,-0.59800,0.89500,0.20300,-115.60500,-44.06500,92.75000,-0.11600,0.33200,-0.84500,81.35000,0.10000
041225_04.18.34.633,-0.62300,0.74700,0.22300,-123.04300,-37.48500,98.26200,-0.13000,0.34300,-0.85000,81.60000,0.25000
041225_04.18.34.645,-0.60500,0.71400,0.17600,-126.17500,-29.33000,97.16000,-0.13000,0.34300,-0.85000,80.45000,-1.15000
041225_04.18.34.657,-0.57800,0.64000,0.23200,-122.23800,-23.69500,91.57700,-0.13400,0.36500,-0.85500,81.38000,0.93000
041225_04.18.34.668,-0.44700,0.68500,0.35300,-119.68300,-24.36000,81.23500,-0.14000,0.38300,-0.85400,81.41000,0.03000
041225_04.18.34.680,-0.22400,0.95600,0.39900,-120.03300,-34.07200,72.08200,-0.14600,0.40000,-0.85700,81.22000,-0.19000
041225_04.18.34.692,-0.25200,1.05800,0.55400,-114.62500,-47.60000,72.36300,-0.15900,0.41600,-0.85800,81.11000,-0.11000
041225_04.18.34.704,-0.35900,0.99800,0.60000,-123.44500,-56.12300,90.65000,-0.15900,0.41600,-0.85800,81.28000,0.17000
041225_04.18.34.715,-0.49000,1.02200,0.34500,-114.15300,-54.65300,99.97800,-0.17100,0.43700,-0.85500,81.30000,0.02000
041225_04.18.34.727,-0.55300,1.04400,0.36600,-99.61000,-48.07200,99.64500,-0.17900,0.45100,-0.86000,81.16000,-0.14000
041225_04.18.34.739,-0.50300,0.96600,0.46900,-88.62000,-37.25700,88.20000,-0.18900,0.46700,-0.85700,81.52000,0.36000
041225_04.18.34.750,-0.04400,0.45400,0.26500,-70.49000,-22.62800,90.07300,-0.18800,0.47100,-0.85800,81.47000,-0.05000
041225_04.18.34.762,-0.35100,1.02800,0.75400,-48.12500,-2.64200,127.73200,-0.18800,0.47100,-0.85800,81.13000,-0.34000
041225_04.18.34.774,-0.32500,0.72800,0.56200,-72.25700,0.26200,132.35200,-0.18500,0.48400,-0.85700,81.08000,-0.05000
041225_04.18.34.786,-0.31900,0.65800,0.46800,-84.92700,9.39800,119.35000,-0.18100,0.48900,-0.84900,81.40000,0.32000
041225_04.18.34.797,-0.24700,0.71500,0.50000,-81.53300,16.27500,103.56500,-0.17100,0.49400,-0.84300,80.92000,-0.48000
041225_04.18.34.809,-0.11900,0.70300,0.61600,-73.86800,21.21000,96.04000,-0.16600,0.51100,-0.84400,81.21000,0.29000
041225_04.18.34.821,-0.00100,0.65300,0.71200,-67.53300,24.30800,89.23200,-0.16600,0.51100,-0.84400,81.44000,0.23000
041225_04.18.34.832,0.10000,0.56900,0.81200,-60.35800,10.09700,81.56700,-0.16200,0.51700,-0.83600,81.62000,0.18000
041225_04.18.34.844,0.16200,0.56900,0.85000,-58.99300,-5.37200,72.08200,-0.15400,0.52600,-0.83500,81.63000,0.01000
041225_04.18.34.855,0.13800,0.64400,0.87100,-58.31000,-21.42000,66.23800,-0.15600,0.52900,-0.83400,81.13000,-0.50000
041225_04.18.34.867,0.09400,0.65600,0.85500,-57.69800,-32.48000,66.79800,-0.15700,0.53700,-0.82800,81.64000,0.51000
041225_04.18.34.879,0.04000,0.68800,0.90800,-55.93000,-39.70800,68.40800,-0.15700,0.53700,-0.82800,81.52000,-0.12000
041225_04.18.34.891,0.08100,0.76300,0.97700,-56.17500,-52.88500,73.27200,-0.17000,0.54600,-0.83100,80.89000,-0.63000
041225_04.18.34.902,0.09700,0.73600,0.84600,-59.34200,-69.65000,79.99300,-0.18000,0.55300,-0.82600,81.03000,0.14000
041225_04.18.34.914,0.09900,0.71300,0.71900,-61.65300,-78.94200,82.72300,-0.19000,0.56000,-0.82700,80.86000,-0.17000
041225_04.18.34.926,0.05700,0.69700,0.63200,-58.71300,-80.74500,81.53300,-0.19700,0.57100,-0.82600,81.54000,0.68000
041225_04.18.34.937,0.07100,0.66800,0.65000,-52.78000,-70.35000,77.91000,-0.19700,0.57100,-0.82600,81.37000,-0.17000
041225_04.18.34.949,0.15100,0.67900,0.68000,-51.60800,-64.66200,80.99000,-0.20900,0.57500,-0.82200,80.78000,-0.59000
041225_04.18.34.961,0.14700,0.70700,0.77600,-54.79200,-71.47000,90.02000,-0.21500,0.58200,-0.81600,81.11000,0.33000
041225_04.18.34.972,0.10400,0.63900,0.74700,-52.92000,-72.03000,98.47300,-0.21800,0.59400,-0.81000,81.34000,0.23000
041225_04.18.34.984,0.15000,0.52700,0.70500,-47.93200,-66.90300,103.09200,-0.21900,0.60600,-0.80500,81.24000,-0.10000
041225_04.18.34.995,0.24200,0.45700,0.68800,-42.73500,-58.92300,101.76200,-0.21900,0.60600,-0.80500,80.87000,-0.37000
041225_04.18.35.064,0.36000,0.44500,0.68400,-40.74000,-51.10000,99.13700,-0.22300,0.60800,-0.80400,80.47000,-0.40000
041225_04.18.35.076,0.47300,0.41500,0.69400,-42.19300,-43.97800,99.82000,-0.21700,0.61500,-0.79800,81.19000,0.72000
041225_04.18.35.087,0.57400,0.26900,0.72600,-41.73700,-36.87300,100.62500,-0.21300,0.62200,-0.79700,81.37000,0.18000
041225_04.18.35.099,0.57100,0.16300,0.74900,-36.29500,-26.84500,96.00500,-0.20500,0.62000,-0.79200,81.30000,-0.07000
041225_04.18.35.111,0.56900,0.12800,0.78700,-35.22800,-13.87800,91.14000,-0.20500,0.62000,-0.79200,81.18000,-0.12000
041225_04.18.35.122,0.58200,0.09600,0.79700,-37.15300,-5.23300,88.20000,-0.20000,0.62500,-0.79100,81.37000,0.19000
041225_04.18.35.134,0.38500,0.03800,0.41100,-28.54200,25.06000,66.53500,-0.19000,0.62900,-0.78700,80.74000,-0.63000
041225_04.18.35.145,0.62600,0.32000,1.60700,-9.13500,-8.31300,68.21500,-0.18100,0.62400,-0.78900,80.39000,-0.35000
041225_04.18.35.157,0.64100,0.13700,0.85700,11.48000,-70.96300,82.58200,-0.18000,0.62500,-0.79200,82.07000,1.68000
041225_04.18.35.169,0.65500,0.09300,0.99500,4.18200,-58.03000,82.37200,-0.18000,0.62500,-0.79200,81.88000,-0.19000
041225_04.18.35.180,0.57100,0.22700,0.78200,7.73500,-42.38500,76.30000,-0.18000,0.61900,-0.79100,81.32000,-0.56000
041225_04.18.35.192,0.59800,0.21900,0.85500,17.83300,-21.52500,69.96500,-0.17300,0.61200,-0.79200,80.92000,-0.40000
041225_04.18.35.204,0.62600,0.12000,0.85200,20.87800,-12.98500,63.15800,-0.17000,0.60400,-0.79400,80.70000,-0.22000
041225_04.18.35.215,0.97200,-0.20500,0.86200,19.93300,-12.04000,55.94800,-0.17100,0.59800,-0.79600,81.81000,1.11000
041225_04.18.35.227,0.61500,0.03600,0.75300,19.32000,-12.61800,53.41000,-0.17100,0.59800,-0.79600,80.98000,-0.83000
041225_04.18.35.239,0.66900,0.19200,0.66200,25.34000,-4.86500,52.95500,-0.16400,0.59100,-0.80500,81.12000,0.14000
041225_04.18.35.250,0.79800,0.17600,0.77800,24.11500,-4.65500,56.10500,-0.15900,0.58400,-0.80400,81.61000,0.49000
041225_04.18.35.262,0.73200,0.16000,0.76100,22.97800,1.41800,68.42500,-0.15600,0.58000,-0.80900,81.38000,-0.23000
041225_04.18.35.274,0.61300,0.19200,0.65400,27.61500,4.74200,73.29000,-0.14400,0.57000,-0.81200,81.17000,-0.21000
041225_04.18.35.285,0.70900,0.20200,0.71700,26.93300,1.03300,79.48500,-0.14400,0.57000,-0.81200,81.50000,0.33000
041225_04.18.35.297,0.66300,0.11300,0.85100,28.85800,-4.63700,88.76000,-0.14000,0.56400,-0.81200,81.79000,0.29000
041225_04.18.35.309,0.68000,0.00900,0.95000,14.92700,-7.52500,98.50700,-0.13000,0.55300,-0.81200,80.87000,-0.92000
041225_04.18.35.320,0.49300,0.08100,0.78600,3.60500,-14.54300,105.38500,-0.12600,0.55200,-0.80600,81.28000,0.41000
041225_04.18.35.332,0.62600,0.15400,0.69900,-3.44700,-12.42500,112.92700,-0.11900,0.54500,-0.80500,81.63000,0.35000
041225_04.18.35.344,0.68700,0.16600,0.71000,-8.45300,-15.20800,123.37500,-0.11900,0.54500,-0.80500,81.41000,-0.22000
041225_04.18.35.356,0.73800,0.18700,0.64900,-17.62200,-17.34300,136.43000,-0.10800,0.53900,-0.80000,81.08000,-0.33000
041225_04.18.35.367,0.80300,0.19500,0.60800,-28.17500,-24.36000,151.95200,-0.09800,0.53100,-0.80200,80.59000,-0.49000
041225_04.18.35.379,0.80700,0.17900,0.69600,-45.55300,-34.24800,174.49300,-0.09500,0.53000,-0.80100,81.51000,0.92000
041225_04.18.35.391,0.84100,-0.10700,0.66700,-59.76300,-33.04000,195.19500,-0.08800,0.53100,-0.80200,81.44000,-0.07000
041225_04.18.35.402,0.73200,-0.14000,0.71700,-62.14300,-29.40000,192.50000,-0.08800,0.53100,-0.80200,80.25000,-1.19000
041225_04.18.35.414,0.69000,-0.27000,0.61800,-58.34500,-29.99500,186.28800,-0.07900,0.52800,-0.79700,80.71000,0.46000
041225_04.18.35.426,0.54300,-0.35300,0.59700,-39.88200,-16.83500,188.10700,-0.07200,0.51600,-0.79700,81.08000,0.37000
041225_04.18.35.438,0.44700,-0.40000,0.46300,-28.94500,-15.19000,187.75800,-0.06300,0.50300,-0.80000,80.72000,-0.36000
041225_04.18.35.449,0.41700,-0.34100,0.37900,-11.46200,-16.29200,192.08000,-0.05300,0.48500,-0.79700,80.89000,0.17000
041225_04.18.35.461,0.35500,-0.39600,0.52600,11.21700,-11.91800,199.01000,-0.05300,0.48500,-0.79700,81.06000,0.17000
041225_04.18.35.473,0.14300,-0.80100,0.65700,22.61000,-5.54800,204.97700,-0.04600,0.45800,-0.79600,80.80000,-0.26000
041225_04.18.35.484,0.38600,-0.24300,0.33800,41.37000,11.63700,206.36000,-0.03800,0.42800,-0.80300,81.66000,0.86000
041225_04.18.35.496,0.40200,-0.32800,0.55400,61.04000,26.21500,219.92300,-0.03000,0.39100,-0.79400,81.56000,-0.10000
041225_04.18.35.508,0.30100,-0.44800,0.60300,68.79300,23.59000,202.70200,-0.03200,0.34900,-0.79800,80.96000,-0.60000
041225_04.18.35.519,0.19800,-0.65300,0.83500,100.57300,13.65000,173.18000,-0.03200,0.34900,-0.79800,81.44000,0.48000
041225_04.18.35.531,0.23600,-0.50900,1.16400,99.59200,20.82500,148.80300,-0.03300,0.31100,-0.79300,81.62000,0.18000
041225_04.18.35.543,0.08400,-0.71500,1.23700,74.32300,32.06000,135.04800,-0.03700,0.28000,-0.78800,80.84000,-0.78000
041225_04.18.35.554,0.12800,-0.75600,1.21000,44.94000,34.40500,125.68500,-0.03800,0.25600,-0.77700,80.59000,-0.25000
041225_04.18.35.566,0.08100,-0.75600,1.08200,21.31500,28.07000,121.22300,-0.04500,0.24400,-0.77900,80.97000,0.38000
041225_04.18.35.578,0.01600,-0.72100,0.92000,11.28800,19.75700,115.02800,-0.04500,0.24400,-0.77900,81.46000,0.49000
041225_04.18.35.589,-0.08700,-0.73100,0.85600,15.38200,14.61300,109.09500,-0.05100,0.23200,-0.77500,80.38000,-1.08000
041225_04.18.35.601,-0.12400,-0.80400,0.96000,25.93500,12.98500,101.09800,-0.06100,0.22100,-0.76900,81.15000,0.77000
041225_04.18.35.613,0.05100,-0.82900,0.96800,36.48700,12.07500,92.62800,-0.07000,0.20600,-0.75700,81.22000,0.07000
041225_04.18.35.624,0.10600,-0.79100,0.88300,47.72200,11.84700,92.47000,-0.07700,0.19300,-0.75900,80.90000,-0.32000
041225_04.18.35.636,0.11800,-0.64900,0.87100,54.51300,19.37200,103.81000,-0.07700,0.19300,-0.75900,80.43000,-0.47000
041225_04.18.35.648,0.05900,-0.53600,0.95700,56.14000,25.04200,106.27800,-0.08700,0.17800,-0.74600,80.83000,0.40000
041225_04.18.35.659,0.09300,-0.65700,0.86600,52.08000,29.41700,110.98500,-0.09000,0.15700,-0.74000,81.08000,0.25000
041225_04.18.35.671,0.18000,-0.82700,0.86500,62.56300,27.77300,120.48800,-0.09800,0.13300,-0.72600,81.15000,0.07000
041225_04.18.35.683,0.08900,-0.69300,0.76200,84.66500,18.70800,132.38700,-0.10900,0.10700,-0.71300,80.56000,-0.59000
041225_04.18.35.694,-0.05300,-0.58400,0.91000,110.70500,9.92200,137.86500,-0.10900,0.10700,-0.71300,80.51000,-0.05000
041225_04.18.35.706,-0.23500,-0.44200,1.11600,126.43800,2.97500,134.61000,-0.12300,0.08300,-0.69600,80.68000,0.17000
041225_04.18.35.718,-0.32900,-0.27700,1.23000,131.12800,-2.06500,118.14300,-0.14000,0.05700,-0.67300,80.98000,0.30000
041225_04.18.35.730,-0.37100,-0.17100,1.19700,121.57300,-2.71300,98.89300,-0.15700,0.03300,-0.65400,81.08000,0.10000
041225_04.18.35.741,-0.34600,-0.18600,1.14600,105.17500,0.22800,81.67300,-0.16500,0.01700,-0.64200,80.89000,-0.19000
041225_04.18.35.753,-0.30100,-0.27400,1.06300,92.50500,-0.57700,70.70000,-0.16500,0.01700,-0.64200,80.38000,-0.51000
041225_04.18.35.765,-0.29900,-0.30600,0.96200,98.22800,-28.31500,56.08800,-0.17700,0.00700,-0.62700,80.61000,0.23000
041225_04.18.35.776,-0.34900,-0.03500,1.33100,94.48200,-40.93200,45.22000,-0.18600,-0.00900,-0.61000,81.05000,0.44000
041225_04.18.35.788,-0.20200,0.07900,1.20900,58.36200,-33.47800,28.92700,-0.18700,-0.02200,-0.60200,80.87000,-0.18000
041225_04.18.35.800,-0.08500,-0.08400,0.90400,36.97800,-34.44000,23.45000,-0.18900,-0.02500,-0.59400,80.80000,-0.07000
041225_04.18.35.812,0.01300,-0.06900,0.82300,41.30000,-41.63200,19.44200,-0.18900,-0.02500,-0.59400,80.80000,0.00000
041225_04.18.35.823,0.09100,0.02200,0.81200,44.41500,-41.54500,20.58000,-0.19200,-0.02900,-0.58700,81.13000,0.33000
041225_04.18.35.835,0.03600,0.04200,0.73300,47.16200,-35.00000,29.76700,-0.19600,-0.03300,-0.58100,81.03000,-0.10000
041225_04.18.35.847,-0.05400,-0.00500,0.82200,54.60000,-22.85500,41.21300,-0.20200,-0.03900,-0.57200,80.96000,-0.07000
041225_04.18.35.858,-0.10400,-0.06100,0.99300,61.19800,-13.89500,48.63200,-0.20700,-0.04400,-0.55700,80.45000,-0.51000
041225_04.18.35.870,-0.15500,-0.06000,1.04600,64.64500,-13.61500,49.68200,-0.20700,-0.04400,-0.55700,81.44000,0.99000
041225_04.18.35.882,-0.13600,-0.01300,0.99000,65.64300,-18.70800,45.76300,-0.22000,-0.04700,-0.54900,81.10000,-0.34000
041225_04.18.35.894,-0.18500,-0.19200,1.06500,65.24000,-33.98500,39.21700,-0.22900,-0.04600,-0.53700,80.82000,-0.28000
041225_04.18.35.905,-0.24300,0.18100,0.91200,60.90000,-42.71700,37.20500,-0.23400,-0.05200,-0.52300,80.62000,-0.20000
041225_04.18.35.917,-0.17600,0.25200,0.67500,65.31000,-50.78500,30.06500,-0.24400,-0.05600,-0.51400,80.53000,-0.09000
041225_04.18.35.929,-0.19000,0.18400,0.93500,73.81500,-57.03300,22.50500,-0.24400,-0.05600,-0.51400,81.48000,0.95000
041225_04.18.35.941,-0.15200,0.20300,0.95700,70.35000,-59.23700,15.96000,-0.24600,-0.06100,-0.50300,80.72000,-0.76000
041225_04.18.35.952,-0.07600,0.16000,0.86900,68.04000,-55.51000,13.38700,-0.24800,-0.06400,-0.50400,80.94000,0.22000
041225_04.18.35.964,-0.04500,0.11100,0.40000,89.98500,-64.52200,13.38700,-0.25200,-0.05800,-0.47800,80.83000,-0.11000
041225_04.18.35.976,-0.01000,0.21100,0.75200,131.53000,-78.08500,16.08300,-0.26300,-0.05300,-0.45500,80.76000,-0.07000
041225_04.18.35.987,0.00600,0.41200,0.67700,146.28300,-91.43800,18.74300,-0.26300,-0.05300,-0.45500,80.97000,0.21000
041225_04.18.35.999,0.03900,0.56600,0.71900,153.98200,-99.76800,21.07000,-0.26600,-0.06000,-0.43300,80.19000,-0.78000
041225_04.18.36.011,0.14500,0.58500,0.86500,149.78300,-95.13000,25.21800,-0.26900,-0.06100,-0.41100,81.23000,1.04000
041225_04.18.36.022,0.25200,0.51600,0.92100,113.13700,-82.11000,34.19500,-0.27200,-0.05900,-0.39900,81.03000,-0.20000
041225_04.18.36.034,0.33100,0.45100,0.79800,100.17000,-81.46300,38.27200,-0.28000,-0.05800,-0.37500,79.88000,-1.15000
041225_04.18.36.046,0.35600,0.54500,0.67200,96.12800,-85.05000,39.76000,-0.28000,-0.05800,-0.37500,80.44000,0.56000
041225_04.18.36.058,0.45600,0.69200,0.62500,94.85000,-84.33200,32.74300,-0.28300,-0.06100,-0.35700,80.61000,0.17000
041225_04.18.36.069,0.41000,0.72000,0.71300,87.88500,-71.13700,31.64000,-0.28900,-0.05900,-0.34400,81.10000,0.49000
041225_04.18.36.081,0.25100,0.65900,0.75600,77.40300,-55.00200,32.60300,-0.28900,-0.05200,-0.33500,80.79000,-0.31000
041225_04.18.36.093,0.21900,0.64200,0.76000,71.90800,-35.85800,23.59000,-0.29100,-0.04300,-0.33000,81.08000,0.29000
041225_04.18.36.104,0.20400,0.59500,0.71800,72.20500,-22.27800,15.06800,-0.29100,-0.04300,-0.33000,81.29000,0.21000
041225_04.18.36.116,0.21800,0.53800,0.67100,77.94500,-17.11500,10.02800,-0.29300,-0.04400,-0.32000,80.37000,-0.92000
041225_04.18.36.127,0.23600,0.52600,0.62700,88.58500,-24.37800,3.58800,-0.29000,-0.03900,-0.30000,80.67000,0.30000
041225_04.18.36.139,0.25100,0.61100,0.51700,103.42500,-34.56300,-7.14000,-0.29100,-0.02900,-0.28000,80.33000,-0.34000
041225_04.18.36.151,0.29400,0.67500,0.41300,129.44700,-52.39500,-11.37500,-0.28500,-0.01800,-0.25700,80.77000,0.44000
041225_04.18.36.163,0.46600,0.83100,0.18200,140.14000,-57.03300,-14.96200,-0.28500,-0.01800,-0.25700,80.90000,0.13000
041225_04.18.36.174,0.79600,0.96000,0.00700,163.13500,-53.84700,-7.00000,-0.28000,-0.00300,-0.23800,82.11000,1.21000
041225_04.18.36.186,0.54500,0.51400,1.50900,153.49300,-74.48000,10.39500,-0.27600,0.01500,-0.21300,80.47000,-1.64000
041225_04.18.36.198,0.50800,0.96600,0.50000,65.92300,-82.61800,30.80000,-0.26500,0.02200,-0.20800,80.96000,0.49000
041225_04.18.36.209,0.35000,0.86000,0.21400,21.70000,-59.36000,45.09700,-0.27200,0.02300,-0.20500,81.50000,0.54000
041225_04.18.36.221,0.42700,0.77600,0.27700,26.33700,-47.33800,35.08800,-0.27200,0.02300,-0.20500,80.37000,-1.13000
041225_04.18.36.233,0.49400,0.71400,0.40500,37.80000,-44.36200,21.28000,-0.26900,0.02300,-0.20700,81.19000,0.82000
041225_04.18.36.245,0.51800,0.68300,0.41200,42.24500,-49.50700,15.40000,-0.26700,0.02400,-0.20200,80.44000,-0.75000
041225_04.18.36.256,0.51600,0.66300,0.40200,44.87000,-51.90500,13.12500,-0.26400,0.03300,-0.19300,80.53000,0.09000
041225_04.18.36.268,0.44600,0.66400,0.31500,54.74000,-50.45200,-4.37500,-0.26200,0.04000,-0.18700,81.47000,0.94000
041225_04.18.36.280,0.47200,0.68600,0.25500,96.79300,-53.48000,-11.88200,-0.26200,0.04000,-0.18700,81.11000,-0.36000
041225_04.18.36.291,0.43500,0.72000,0.20300,124.12800,-49.84000,-14.77000,-0.25200,0.05200,-0.17100,80.03000,-1.08000
041225_04.18.36.303,0.32500,0.76800,-0.16800,152.54800,-39.72500,-12.77500,-0.24600,0.06700,-0.15300,80.45000,0.42000
041225_04.18.36.315,0.35600,0.88200,-0.28400,192.15000,-5.93200,-7.47200,-0.25000,0.09700,-0.13400,80.93000,0.48000
041225_04.18.36.326,0.64500,0.92100,-0.09200,230.42300,38.92000,7.22700,-0.25300,0.13400,-0.09700,81.53000,0.60000
041225_04.18.36.338,0.67700,1.00700,-0.21000,254.55500,63.52500,28.91000,-0.25300,0.13400,-0.09700,81.27000,-0.26000
041225_04.18.36.350,0.65900,1.12900,-0.16400,266.50800,90.03700,55.87700,-0.27000,0.18300,-0.07900,81.11000,-0.16000
041225_04.18.36.362,0.33700,1.35300,-0.17100,249.20000,132.61500,82.79300,-0.30800,0.22700,-0.06500,80.94000,-0.17000
041225_04.18.36.373,-0.02300,0.96300,0.24300,217.24500,190.29500,105.35000,-0.35600,0.27100,-0.06300,81.55000,0.61000
041225_04.18.36.385,0.32000,0.73100,0.38800,183.33000,204.45200,107.04800,-0.39300,0.30400,-0.05700,80.92000,-0.63000
041225_04.18.36.397,0.73400,0.65100,0.42300,119.05200,119.63000,78.03300,-0.39300,0.30400,-0.05700,81.23000,0.31000
041225_04.18.36.409,1.09600,0.60500,-0.03700,120.90800,61.95000,66.01000,-0.42200,0.33200,-0.05400,80.68000,-0.55000
041225_04.18.36.420,0.98700,0.65700,-0.14900,140.98000,24.85000,67.13000,-0.43500,0.36000,-0.05600,80.80000,0.12000
041225_04.18.36.432,0.68400,0.56800,0.08900,151.28800,1.06700,83.87800,-0.43500,0.39300,-0.05700,81.37000,0.57000
041225_04.18.36.443,0.63300,0.52700,0.47000,125.16000,-9.13500,91.00000,-0.42700,0.41400,-0.05500,80.31000,-1.06000
041225_04.18.36.455,0.86700,0.63200,0.11000,67.11300,-11.25200,83.07300,-0.42700,0.41400,-0.05500,81.25000,0.94000
041225_04.18.36.467,1.03600,0.69300,-0.16900,39.30500,-9.83500,71.57500,-0.42800,0.42200,-0.05400,81.21000,-0.04000
041225_04.18.36.478,0.93500,0.61000,-0.21200,37.67800,-16.10000,55.05500,-0.41900,0.42400,-0.06000,81.04000,-0.17000
041225_04.18.36.490,0.80700,0.54700,-0.29600,33.96700,-20.24700,39.84700,-0.41000,0.42200,-0.06100,80.71000,-0.33000
041225_04.18.36.502,0.74200,0.46000,-0.32300,33.49500,-25.25300,28.99700,-0.39700,0.42300,-0.05700,81.48000,0.77000
041225_04.18.36.514,0.86900,0.31400,-0.33900,36.20800,-29.78500,22.12000,-0.39700,0.42300,-0.05700,80.85000,-0.63000
041225_04.18.36.525,0.74700,0.31800,-0.43400,23.52000,-40.44300,12.60000,-0.38800,0.42800,-0.06000,81.06000,0.21000
041225_04.18.36.537,0.80900,0.30400,-0.39200,37.83500,-48.30000,5.35500,-0.37500,0.43900,-0.05600,81.25000,0.19000
041225_04.18.36.549,0.80900,0.27100,-0.45000,58.59000,-59.37700,-4.11300,-0.36800,0.44300,-0.06100,81.02000,-0.23000
041225_04.18.36.560,0.74600,0.21600,-0.47100,74.35700,-64.73200,-9.29300,-0.35800,0.46100,-0.05600,81.06000,0.04000
041225_04.18.36.572,0.68800,0.21500,-0.46800,72.59000,-55.96500,-9.27500,-0.35800,0.46100,-0.05600,81.02000,-0.04000
041225_04.18.36.584,0.58300,0.44500,-0.61100,65.74700,-36.31300,-7.10500,-0.35100,0.47400,-0.06300,81.13000,0.11000
041225_04.18.36.595,0.72300,0.30000,-0.59300,73.06300,-15.48800,-5.81000,-0.34700,0.48800,-0.06300,81.20000,0.07000
041225_04.18.36.607,0.64700,0.16100,-0.51400,86.53700,-9.87000,-20.51000,-0.34800,0.50700,-0.06500,80.65000,-0.55000
041225_04.18.36.619,0.44500,0.13400,-0.60400,93.11800,-12.16300,-48.21300,-0.34900,0.52000,-0.07300,80.35000,-0.30000
041225_04.18.36.631,0.34500,0.21000,-0.57200,90.58000,-11.91800,-75.91500,-0.34900,0.52000,-0.07300,81.15000,0.80000
041225_04.18.36.642,0.34700,0.38300,-0.57600,79.53700,-5.75800,-95.91800,-0.35200,0.53800,-0.08300,81.61000,0.46000
041225_04.18.36.654,0.47000,0.46100,-0.51900,63.82300,7.42000,-119.08800,-0.36800,0.54200,-0.08600,81.52000,-0.09000
041225_04.18.36.666,0.64700,0.39300,-0.46500,61.93200,10.06300,-126.15800,-0.37400,0.55700,-0.08900,80.79000,-0.73000
041225_04.18.36.677,0.67900,0.35500,-0.43600,62.03700,7.57700,-131.58300,-0.39200,0.56400,-0.09900,80.82000,0.03000
041225_04.18.36.689,0.68100,0.38100,-0.46300,60.02500,3.41200,-131.53000,-0.39200,0.56400,-0.09900,81.36000,0.54000
041225_04.18.36.701,0.68300,0.48400,-0.48600,56.77000,2.64200,-130.93500,-0.40000,0.57000,-0.09800,80.97000,-0.39000
041225_04.18.36.712,0.63500,0.65200,-0.46600,51.94000,3.44700,-131.18000,-0.41400,0.57000,-0.10400,80.62000,-0.35000
041225_04.18.36.724,0.56100,0.78100,-0.44500,48.16000,2.43300,-133.29800,-0.43400,0.56800,-0.11000,80.29000,-0.33000
041225_04.18.36.736,0.53200,0.86500,-0.47900,45.93800,0.26200,-135.20500,-0.44300,0.56600,-0.10500,81.46000,1.17000
041225_04.18.36.747,0.55300,0.92000,-0.57400,46.58500,-1.62800,-138.47700,-0.44300,0.56600,-0.10500,81.07000,-0.39000
041225_04.18.36.759,0.58700,0.95600,-0.62600,47.68800,-1.01500,-138.98500,-0.45400,0.56800,-0.10900,81.72000,0.65000
041225_04.18.36.771,0.58600,0.90700,-0.57000,47.16200,-0.87500,-128.04800,-0.46400,0.56600,-0.10900,80.83000,-0.89000
041225_04.18.36.782,0.63300,0.80900,-0.54400,47.60000,-7.87500,-73.69200,-0.46900,0.56400,-0.11600,80.69000,-0.14000
041225_04.18.36.794,0.63600,0.69000,-0.51000,52.34200,-5.21500,-46.90000,-0.47700,0.57100,-0.12300,80.59000,-0.10000
041225_04.18.36.806,0.54700,0.51100,-0.43400,55.73700,-8.48800,-29.71500,-0.47700,0.57100,-0.12300,80.96000,0.37000
041225_04.18.36.818,0.58100,0.41800,-0.43700,54.02200,-14.14000,-24.97200,-0.48000,0.58000,-0.12500,81.09000,0.13000
041225_04.18.36.829,0.55400,0.36200,-0.45600,48.61500,-18.37500,-27.23000,-0.47700,0.58600,-0.13100,81.02000,-0.07000
041225_04.18.36.841,0.47400,0.37500,-0.48200,41.49300,-20.70200,-32.42800,-0.47500,0.58900,-0.13000,81.27000,0.25000
041225_04.18.36.853,0.40400,0.41000,-0.54300,39.98700,-24.57000,-37.17000,-0.47800,0.59100,-0.13200,81.74000,0.47000
041225_04.18.36.864,0.37000,0.47100,-0.68400,45.43000,-25.34000,-43.06800,-0.47800,0.59100,-0.13200,81.27000,-0.47000
041225_04.18.36.876,0.32700,0.55100,-0.65600,51.83500,-22.24300,-50.06800,-0.47900,0.59600,-0.13500,81.39000,0.12000
041225_04.18.36.888,0.26400,0.63000,-0.78300,58.55500,-25.60300,-54.84500,-0.47800,0.59800,-0.13200,81.24000,-0.15000
041225_04.18.36.899,0.21800,0.74200,-0.91600,62.72000,-26.68700,-55.77200,-0.47900,0.60000,-0.13700,80.94000,-0.30000
041225_04.18.36.911,0.19100,0.79300,-0.94500,50.33000,-18.69000,-46.56800,-0.48700,0.60400,-0.14400,80.75000,-0.19000
041225_04.18.36.923,0.30000,0.96700,-0.83100,38.25500,-17.11500,-31.97200,-0.48700,0.60400,-0.14400,81.09000,0.34000
041225_04.18.36.934,0.33400,0.86400,-0.80300,28.64800,-19.33700,-15.96000,-0.48900,0.60600,-0.14300,80.62000,-0.47000
041225_04.18.36.946,0.37500,0.76400,-0.78100,30.41500,-20.38800,-9.87000,-0.48600,0.61000,-0.14300,81.18000,0.56000
041225_04.18.36.958,0.41000,0.65500,-0.72200,39.37500,-18.09500,-10.72700,-0.48300,0.61900,-0.14300,81.19000,0.01000
041225_04.18.36.969,0.41700,0.60600,-0.67200,45.83300,-16.34500,-13.84200,-0.48300,0.62400,-0.15300,80.59000,-0.60000
041225_04.18.36.981,0.42700,0.62000,-0.65800,50.26000,-15.38200,-16.69500,-0.48300,0.62400,-0.15300,80.77000,0.18000
041225_04.18.36.993,0.41500,0.55000,-0.65800,54.72200,-13.30000,-14.05200,-0.48200,0.63200,-0.15400,81.21000,0.44000
041225_04.18.37.004,0.33000,0.50000,-0.68500,59.27200,-15.17200,-8.17200,-0.48300,0.63800,-0.15900,81.34000,0.13000
041225_04.18.37.016,-0.18100,0.27000,-0.88600,65.25700,-20.63200,-8.64500,-0.48600,0.65400,-0.16500,80.81000,-0.53000
041225_04.18.37.028,0.35400,0.42800,-0.79100,81.35700,-27.72000,-5.67000,-0.48400,0.66600,-0.18400,80.75000,-0.06000
041225_04.18.37.039,0.10000,0.59600,-0.97900,107.55500,-34.40500,-8.05000,-0.48400,0.66600,-0.18400,80.84000,0.09000
041225_04.18.37.051,0.13000,0.60600,-1.00800,109.84800,-31.86800,-15.17200,-0.48200,0.68000,-0.18700,81.46000,0.62000
041225_04.18.37.063,0.21900,0.51000,-1.01500,113.50500,-31.86800,-16.52000,-0.47800,0.69500,-0.20000,80.70000,-0.76000
041225_04.18.37.075,-0.16800,0.45100,-1.45000,126.64700,-37.62500,-23.18700,-0.48000,0.70900,-0.21500,80.37000,-0.33000
041225_04.18.37.086,0.33600,0.43200,-0.86500,154.80500,-44.18800,-35.91000,-0.47900,0.72500,-0.22900,80.60000,0.23000
041225_04.18.37.098,0.41100,0.22000,-0.61600,102.90000,-53.28700,1.13800,-0.47900,0.72500,-0.22900,80.86000,0.26000
041225_04.18.37.110,0.12200,0.35700,-1.01000,26.46000,-37.67800,21.61200,-0.47600,0.73200,-0.23600,80.74000,-0.12000
041225_04.18.37.121,0.26700,0.37100,-1.14400,0.91000,-10.51700,26.89800,-0.46800,0.74200,-0.23600,80.18000,-0.56000
041225_04.18.37.133,0.31000,0.18700,-0.83400,6.30000,9.83500,35.75200,-0.46100,0.74400,-0.24000,80.77000,0.59000
041225_04.18.37.145,0.22600,-0.07100,-0.90500,6.35200,16.03000,37.62500,-0.46200,0.74500,-0.24100,81.07000,0.30000
041225_04.18.37.156,0.03000,0.00900,-0.56500,2.94000,11.77800,10.27300,-0.46200,0.74500,-0.24100,80.56000,-0.51000
041225_04.18.37.168,0.06000,0.03000,-0.72300,8.64500,1.08500,0.14000,-0.46300,0.74800,-0.24200,80.61000,0.05000
041225_04.18.37.179,-0.07100,0.03800,-0.95200,8.38200,-0.36800,-0.49000,-0.46200,0.75200,-0.24900,81.10000,0.49000
041225_04.18.37.191,-0.13800,0.04700,-1.15800,13.86000,2.13500,-3.99000,-0.46700,0.75100,-0.25700,81.36000,0.26000
041225_04.18.37.203,-0.15200,-0.07200,-1.21700,28.77000,-3.53500,-4.51500,-0.46100,0.75800,-0.26200,80.60000,-0.76000
041225_04.18.37.214,-0.22600,-0.16600,-1.23100,54.30300,-20.49300,-6.10800,-0.46100,0.75800,-0.26200,80.53000,-0.07000
041225_04.18.37.226,-0.14600,-0.11300,-1.25800,80.09800,-38.20200,-10.62300,-0.46400,0.76300,-0.27200,81.00000,0.47000
041225_04.18.37.238,0.06400,0.07600,-1.32300,90.44000,-37.24000,-16.50300,-0.46100,0.77200,-0.28500,81.57000,0.57000
041225_04.18.37.250,0.38800,0.28500,-1.21800,75.86300,-6.26500,-13.33500,-0.46500,0.76800,-0.29900,80.77000,-0.80000
041225_04.18.37.261,0.29100,0.25700,-0.77800,54.96700,22.19000,-2.17000,-0.46000,0.77400,-0.30900,80.07000,-0.70000
041225_04.18.37.273,0.24400,0.18300,-0.93300,35.12300,26.44200,4.51500,-0.46000,0.77400,-0.30900,81.41000,1.34000
041225_04.18.37.285,0.25500,0.16000,-0.94900,-0.78800,37.73000,15.59200,-0.45500,0.76900,-0.30700,81.20000,-0.21000
041225_04.18.37.296,0.08900,-0.05700,-0.77800,-7.47200,35.66500,20.23000,-0.45600,0.77100,-0.30900,81.73000,0.53000
041225_04.18.37.308,0.10000,-0.10700,-0.81900,-4.49700,30.53800,20.56200,-0.44900,0.77400,-0.32500,81.17000,-0.56000
041225_04.18.37.320,0.11100,-0.09500,-0.86000,2.41500,23.55500,21.31500,-0.44700,0.78100,-0.31000,81.35000,0.18000
041225_04.18.37.331,0.11100,-0.05200,-0.93000,11.37500,14.82300,21.87500,-0.44700,0.78100,-0.31000,80.72000,-0.63000
041225_04.18.37.343,0.13100,0.01700,-1.04200,19.56500,9.85200,21.03500,-0.44700,0.78300,-0.31800,80.77000,0.05000
041225_04.18.37.354,0.14700,0.04000,-1.11800,26.93300,9.62500,19.16300,-0.44100,0.79000,-0.32500,80.74000,-0.03000
041225_04.18.37.366,0.13900,0.05100,-1.17700,34.75500,10.92000,17.81500,-0.44300,0.79200,-0.33600,81.68000,0.94000
041225_04.18.37.378,0.10400,0.00300,-1.18400,42.50700,13.03800,17.30800,-0.43700,0.79500,-0.34000,80.76000,-0.92000
041225_04.18.37.390,0.10000,-0.06700,-1.13200,47.21500,18.58500,18.51500,-0.43700,0.79500,-0.34000,81.40000,0.64000
041225_04.18.37.401,0.12800,-0.11400,-1.06400,53.63800,22.01500,19.54800,-0.43400,0.80200,-0.35200,80.81000,-0.59000
041225_04.18.37.413,0.15300,-0.17800,-0.93400,58.27500,10.29000,17.20200,-0.42400,0.80500,-0.36800,80.90000,0.09000
041225_04.18.37.424,0.05100,-0.12500,-1.42300,55.28300,-7.70000,12.79300,-0.42400,0.81000,-0.37200,80.92000,0.02000
041225_04.18.37.436,0.11100,-0.36600,-0.74900,62.79000,-3.83200,3.50000,-0.41700,0.81400,-0.38900,81.22000,0.30000
041225_04.18.37.448,0.07300,-0.43100,-0.67700,55.12500,7.38500,-5.30300,-0.41700,0.81400,-0.38900,81.12000,-0.10000
041225_04.18.37.459,0.18800,-0.36600,-0.74100,45.71000,9.85200,-19.26700,-0.42400,0.81500,-0.39600,81.13000,0.01000
041225_04.18.37.471,0.16000,-0.42900,-0.93500,24.02800,16.11800,-32.81300,-0.42800,0.81400,-0.40200,81.12000,-0.01000
041225_04.18.37.483,0.34700,0.15600,-0.87500,9.60800,26.56500,-38.92000,-0.43600,0.81400,-0.41000,80.68000,-0.44000
041225_04.18.37.494,0.56500,0.10700,-0.78400,5.84500,21.40300,-20.75500,-0.43600,0.81000,-0.41800,81.00000,0.32000
041225_04.18.37.506,0.38300,-0.11100,-0.91600,4.07700,13.79000,-5.30300,-0.43600,0.81000,-0.41800,81.23000,0.23000
041225_04.18.37.518,0.40300,-0.20000,-0.87100,0.75200,14.21000,1.87300,-0.43300,0.80800,-0.41000,80.73000,-0.50000
041225_04.18.37.529,0.33300,-0.17200,-0.89800,-10.86800,19.56500,31.16700,-0.42700,0.81000,-0.40700,81.20000,0.47000
041225_04.18.37.541,0.36900,-0.04200,-0.87700,-44.94000,30.48500,45.15000,-0.42400,0.81500,-0.39900,81.77000,0.57000
041225_04.18.37.553,0.38700,-0.03400,-0.85300,-56.57700,34.44000,57.29500,-0.41300,0.81900,-0.39500,80.58000,-1.19000
041225_04.18.37.564,0.47700,0.05000,-0.62700,-68.47800,32.14700,68.54800,-0.41300,0.81900,-0.39500,81.71000,1.13000
041225_04.18.37.576,0.46600,0.05100,-0.70300,-82.58200,20.80800,81.11300,-0.39900,0.81700,-0.38000,81.27000,-0.44000
041225_04.18.37.588,0.64200,-0.08900,-0.88100,-90.28300,23.67700,92.41800,-0.38400,0.81500,-0.36900,81.34000,0.07000
041225_04.18.37.599,0.41400,-0.19700,-0.62500,-93.80000,28.73500,105.03500,-0.36700,0.82100,-0.35300,80.74000,-0.60000
041225_04.18.37.611,0.45600,-0.22100,-0.86400,-95.76000,19.21500,107.83500,-0.34900,0.81900,-0.34700,80.59000,-0.15000
041225_04.18.37.623,0.52800,-0.16900,-0.93500,-85.20700,18.07700,104.49300,-0.34900,0.81900,-0.34700,81.40000,0.81000
041225_04.18.37.634,0.25800,-0.15900,-0.95600,-74.76000,20.31700,92.05000,-0.33700,0.81500,-0.33900,81.17000,-0.23000
041225_04.18.37.646,0.09700,0.02900,-1.02200,-72.18800,19.95000,70.98000,-0.32400,0.81500,-0.32700,80.86000,-0.31000
041225_04.18.37.658,-0.06300,0.07000,-1.13800,-65.41500,24.37800,53.04200,-0.31700,0.81600,-0.32300,81.18000,0.32000
041225_04.18.37.670,-0.17900,-0.17000,-1.00800,-57.55700,29.31200,45.81500,-0.31400,0.81000,-0.31200,81.48000,0.30000
041225_04.18.37.681,0.31100,-0.15000,-0.88900,-63.59500,30.24000,41.45800,-0.31400,0.81000,-0.31200,80.60000,-0.88000
041225_04.18.37.693,0.26000,-0.09900,-0.95300,-68.11000,31.50000,37.88800,-0.30900,0.80600,-0.30600,81.25000,0.65000
041225_04.18.37.705,0.26800,-0.01500,-1.04800,-73.85000,35.52500,35.40300,-0.30200,0.80200,-0.30000,81.55000,0.30000
041225_04.18.37.717,0.29900,0.04500,-1.14500,-78.78500,39.51500,39.56800,-0.30300,0.79600,-0.29000,81.02000,-0.53000
041225_04.18.37.728,0.34800,0.10300,-1.13000,-82.04000,44.22200,46.23500,-0.29500,0.78600,-0.27500,81.04000,0.02000
041225_04.18.37.740,0.36500,0.16300,-1.08500,-84.61300,49.36800,50.13800,-0.29500,0.78600,-0.27500,81.59000,0.55000
041225_04.18.37.752,0.36600,0.17900,-1.05300,-84.59500,52.30700,47.32000,-0.29000,0.77500,-0.26400,81.63000,0.04000
041225_04.18.37.763,0.37100,0.18800,-0.99800,-81.67300,51.97500,40.54800,-0.28600,0.76900,-0.25400,80.82000,-0.81000
041225_04.18.37.775,0.44600,0.19500,-0.91800,-79.18800,54.42500,34.47500,-0.28300,0.76400,-0.24000,80.97000,0.15000
041225_04.18.37.787,0.51600,0.16200,-0.82700,-80.69200,59.30700,34.21300,-0.28400,0.75500,-0.22900,81.40000,0.43000
041225_04.18.37.798,0.48300,0.09600,-0.66400,-84.49000,63.50700,34.19500,-0.28400,0.75500,-0.22900,80.37000,-1.03000
041225_04.18.37.810,0.53600,0.04600,-0.56200,-91.26200,69.73800,31.53500,-0.28300,0.74900,-0.21900,80.83000,0.46000
041225_04.18.37.822,0.57900,0.05800,-0.56200,-101.69200,76.37000,30.10000,-0.28600,0.74100,-0.20800,80.98000,0.15000
041225_04.18.37.833,0.54400,0.13200,-0.59400,-110.93300,83.10700,30.60800,-0.29300,0.72600,-0.19800,80.81000,-0.17000
041225_04.18.37.845,0.54500,0.17800,-0.57700,-118.30000,92.69800,30.81800,-0.30200,0.71100,-0.17800,81.87000,1.06000
041225_04.18.37.857,0.41600,0.13400,-0.52700,-119.56000,97.94800,26.30200,-0.30200,0.71100,-0.16200,81.87000,0.00000
041225_04.18.37.868,0.59600,0.34400,-0.46400,-114.04800,95.41000,14.22700,-0.31400,0.69700,-0.16200,81.45000,-0.42000
041225_04.18.37.880,0.60800,0.40700,-0.51700,-112.33300,95.65500,5.61700,-0.32700,0.68900,-0.16500,81.14000,-0.31000
041225_04.18.37.892,0.78200,0.42900,-0.49200,-114.52000,106.22500,4.02500,-0.34300,0.67100,-0.14000,80.62000,-0.52000
041225_04.18.37.903,0.81100,0.34700,-0.40800,-119.19200,118.82500,13.35200,-0.36000,0.65600,-0.13300,81.47000,0.85000
041225_04.18.37.915,0.71400,0.31500,-0.37300,-116.65500,140.85700,18.53200,-0.36000,0.65600,-0.12900,80.87000,-0.60000
041225_04.18.37.927,1.12300,0.54100,-0.14800,-107.71300,155.76800,14.15800,-0.37800,0.64600,-0.12900,81.24000,0.37000
041225_04.18.37.939,0.94900,0.39700,-0.23500,-112.24500,159.11000,15.15500,-0.40300,0.63200,-0.12700,81.19000,-0.05000
041225_04.18.37.950,0.67600,0.34800,-0.31700,-134.17300,162.69700,20.51000,-0.42200,0.61900,-0.12800,80.68000,-0.51000
041225_04.18.37.962,0.97800,0.43800,-0.23500,-152.72300,171.44700,26.44200,-0.44700,0.60000,-0.12100,81.23000,0.55000
041225_04.18.37.974,1.26600,0.44400,0.10700,-170.11800,172.21700,31.86800,-0.44700,0.60000,-0.11900,81.86000,0.63000
041225_04.18.37.985,0.99300,0.42600,0.03900,-196.94500,172.97000,39.49800,-0.47500,0.57900,-0.11900,81.27000,-0.59000
041225_04.18.37.997,0.81700,0.68100,-0.01200,-211.97700,173.47700,37.92300,-0.49100,0.55500,-0.12100,81.43000,0.16000
041225_04.18.38.009,0.88500,0.87400,0.18100,-203.56000,181.86000,33.53000,-0.51400,0.53400,-0.11800,80.91000,-0.52000
041225_04.18.38.021,0.86900,0.88800,0.43500,-175.42000,182.22700,35.59500,-0.54300,0.51900,-0.13500,80.92000,0.01000
041225_04.18.38.032,0.96200,0.71600,0.65400,-140.94500,175.61300,45.02800,-0.54300,0.51900,-0.13900,81.30000,0.38000
041225_04.18.38.044,1.09500,0.48800,0.62900,-101.90300,168.96200,58.04800,-0.55900,0.50800,-0.13900,81.27000,-0.03000
041225_04.18.38.056,1.42000,0.25000,0.71100,-104.79000,159.95000,57.55700,-0.57000,0.50100,-0.15100,81.15000,-0.12000
041225_04.18.38.067,1.34400,0.43400,0.55900,-115.32500,150.55300,57.90800,-0.58800,0.49400,-0.15400,80.67000,-0.48000
041225_04.18.38.079,1.09100,0.45700,0.38200,-104.77200,167.45800,75.82700,-0.60100,0.48500,-0.16800,81.83000,1.16000
041225_04.18.38.091,0.96100,0.32200,0.54300,-99.66200,200.25300,95.53300,-0.60100,0.48500,-0.19000,81.11000,-0.72000
041225_04.18.38.102,0.85500,0.14900,0.60000,-106.41800,230.51000,110.33800,-0.62300,0.48600,-0.19000,80.90000,-0.21000
041225_04.18.38.114,0.80000,0.04600,0.69200,-116.97000,251.35300,116.91800,-0.63700,0.48800,-0.21700,80.13000,-0.77000
041225_04.18.38.126,0.63300,0.00600,0.76700,-124.40800,263.39200,118.12500,-0.66100,0.48700,-0.23700,81.10000,0.97000
041225_04.18.38.138,0.42200,-0.09700,0.91000,-117.16200,274.61000,115.34200,-0.68300,0.49500,-0.27100,81.37000,0.27000
041225_04.18.38.149,0.43500,-0.23700,1.02900,-107.55500,283.23700,107.39700,-0.68300,0.49500,-0.30900,81.78000,0.41000
041225_04.18.38.161,0.24700,-0.18000,1.08700,-106.48800,290.08000,103.37200,-0.69500,0.49800,-0.30900,80.91000,-0.87000
041225_04.18.38.173,0.26100,-0.40500,1.48300,-113.73200,267.73300,62.56300,-0.71600,0.51000,-0.34100,81.28000,0.37000
041225_04.18.38.185,0.37000,-0.07800,1.29600,-104.68500,230.86000,38.36000,-0.72800,0.50300,-0.37300,80.89000,-0.39000
041225_04.18.38.197,0.30300,-0.20900,1.41200,-95.41000,212.97500,47.32000,-0.73300,0.50100,-0.39900,80.55000,-0.34000
041225_04.18.38.208,0.36800,-0.14000,1.15000,-105.40300,212.59000,50.13800,-0.73300,0.48800,-0.42600,81.21000,0.66000
041225_04.18.38.220,0.48300,-0.01900,0.83000,-104.72000,190.64500,28.24500,-0.74500,0.48800,-0.42600,81.39000,0.18000
041225_04.18.38.232,0.56100,-0.13700,0.85500,-91.63000,161.40200,15.66300,-0.74500,0.48500,-0.45100,80.78000,-0.61000
041225_04.18.38.243,0.55900,-0.21700,1.04900,-86.29300,150.57000,20.38800,-0.74600,0.48000,-0.47300,81.46000,0.68000
041225_04.18.38.255,0.49100,-0.17400,0.97800,-92.80200,155.64500,32.46300,-0.74700,0.48300,-0.50800,81.25000,-0.21000
041225_04.18.38.267,0.29800,-0.19200,0.91000,-97.73800,161.66500,51.97500,-0.74700,0.49500,-0.52700,81.48000,0.23000
041225_04.18.38.278,0.25400,-0.27600,0.95000,-100.97500,170.36300,62.37000,-0.74200,0.49500,-0.52700,81.58000,0.10000
041225_04.18.38.290,0.16600,-0.30000,0.98100,-101.58800,163.64300,71.10300,-0.73100,0.50400,-0.56100,81.68000,0.10000
041225_04.18.38.302,0.02300,-0.37500,0.92700,-105.10500,158.21700,74.07700,-0.71100,0.52000,-0.58700,81.72000,0.04000
041225_04.18.38.314,-0.31600,-0.40100,0.86800,-105.82300,150.30700,74.28700,-0.69000,0.53600,-0.60900,81.64000,-0.08000
041225_04.18.38.325,-0.48600,-0.34500,0.68300,-108.55200,144.74300,79.78300,-0.69000,0.55600,-0.63000,81.64000,0.00000
041225_04.18.38.337,-0.56300,-0.24000,0.55200,-106.19000,147.40200,83.96500,-0.67200,0.55600,-0.63000,81.32000,-0.32000
041225_04.18.38.349,-0.60400,-0.31900,0.48400,-102.84800,156.03000,91.08800,-0.64700,0.58300,-0.64800,81.78000,0.46000
041225_04.18.38.361,-0.60600,-0.40300,0.51900,-104.23000,173.02300,99.34800,-0.61800,0.60700,-0.66200,81.65000,-0.13000
041225_04.18.38.372,-0.54800,-0.46600,0.53100,-108.58800,189.08700,108.29000,-0.58600,0.63700,-0.68500,80.48000,-1.17000
041225_04.18.38.384,-0.57100,-0.51200,0.50100,-115.37800,201.72300,118.73800,-0.58600,0.66900,-0.69700,81.06000,0.58000
041225_04.18.38.396,-0.66700,-0.56500,0.49500,-120.69800,209.19500,123.63700,-0.54400,0.66900,-0.69700,81.03000,-0.03000
041225_04.18.38.408,-0.66900,-0.60400,0.52900,-124.60000,209.70200,119.75300,-0.50200,0.69600,-0.69700,80.79000,-0.24000
041225_04.18.38.419,-0.53100,-0.58800,0.61900,-131.72300,185.23800,93.62500,-0.45600,0.72200,-0.69800,81.51000,0.72000
041225_04.18.38.431,-0.27100,-0.42900,0.66300,-142.50300,162.62800,87.04500,-0.41500,0.74400,-0.68600,81.26000,-0.25000
041225_04.18.38.443,-0.35100,-0.23400,0.48400,-155.68000,134.73200,84.85700,-0.41500,0.76800,-0.66800,81.61000,0.35000
041225_04.18.38.455,-0.57100,0.00200,0.17700,-160.14300,104.68500,80.44800,-0.38100,0.76800,-0.66800,80.84000,-0.77000
041225_04.18.38.466,-0.79100,0.18500,-0.15500,-150.53500,74.91800,69.00300,-0.35100,0.78900,-0.63300,81.49000,0.65000
041225_04.18.38.478,-0.94800,0.20500,-0.40200,-129.15000,49.87500,53.86500,-0.33100,0.80400,-0.60300,81.78000,0.29000
041225_04.18.38.490,-1.07600,0.16000,-0.58500,-103.23200,30.83500,37.50200,-0.32600,0.81300,-0.58100,81.49000,-0.29000
041225_04.18.38.502,-1.08200,0.11100,-0.61900,-77.96300,22.59300,23.46800,-0.32600,0.81800,-0.56600,81.98000,0.49000
041225_04.18.38.513,-0.99400,0.10900,-0.54600,-59.65800,24.36000,17.48300,-0.31600,0.81800,-0.56600,81.34000,-0.64000
041225_04.18.38.525,-0.91500,0.04900,-0.35500,-49.68200,32.23500,22.26000,-0.30300,0.81900,-0.54900,80.81000,-0.53000
041225_04.18.38.537,-0.85600,-0.07700,-0.18300,-49.82200,40.86200,31.67500,-0.29100,0.81700,-0.53600,81.24000,0.43000
041225_04.18.38.548,-0.78900,-0.16300,-0.02400,-61.00500,37.50200,40.09200,-0.28000,0.82100,-0.51400,81.02000,-0.22000
041225_04.18.38.560,-0.73800,-0.25900,0.13600,-67.58500,22.31200,35.56000,-0.28000,0.82100,-0.49500,80.58000,-0.44000
041225_04.18.38.572,-0.78000,-0.18300,0.07400,-72.53700,1.55800,27.30000,-0.27000,0.82100,-0.49500,81.44000,0.86000
041225_04.18.38.584,-0.84400,-0.05800,-0.02700,-73.74500,-20.72000,17.23700,-0.26300,0.82000,-0.47800,81.21000,-0.23000
041225_04.18.38.595,-0.92000,0.06600,-0.16700,-71.01500,-39.83000,8.06800,-0.25100,0.81600,-0.45600,81.32000,0.11000
041225_04.18.38.607,-1.00100,0.15900,-0.28700,-64.45200,-54.09200,1.59200,-0.24700,0.81600,-0.44200,80.56000,-0.76000
041225_04.18.38.619,-1.07100,0.18800,-0.35800,-54.79200,-64.13700,-2.59000,-0.24700,0.81400,-0.42900,81.07000,0.51000
041225_04.18.38.630,-1.10000,0.18000,-0.35900,-43.24300,-71.08500,-6.33500,-0.24300,0.81400,-0.42900,81.44000,0.37000
041225_04.18.38.642,-1.07600,0.15600,-0.28900,-31.23700,-77.38500,-9.80000,-0.24000,0.81200,-0.41800,81.48000,0.04000
041225_04.18.38.654,-1.01800,0.09500,-0.17800,-21.56000,-83.87800,-12.35500,-0.23300,0.80800,-0.40800,80.74000,-0.74000
041225_04.18.38.666,-0.96100,0.06000,-0.09300,-15.45300,-91.87500,-13.79000,-0.23400,0.80600,-0.41100,81.33000,0.59000
041225_04.18.38.677,-0.88300,0.04400,-0.04200,-4.84700,-113.82000,-14.14000,-0.23200,0.80800,-0.41300,81.19000,-0.14000
041225_04.18.38.689,-0.81500,0.07000,0.05900,-0.38500,-123.39300,-11.18200,-0.23200,0.80800,-0.41300,81.16000,-0.03000
041225_04.18.38.701,-0.73400,0.02900,0.05500,1.06700,-130.06000,-4.07700,-0.22400,0.80500,-0.41300,81.62000,0.46000
041225_04.18.38.713,-0.78600,-0.09000,-0.11300,-2.04700,-127.55800,3.32500,-0.21000,0.80300,-0.41200,81.03000,-0.59000
041225_04.18.38.724,-0.94700,-0.00900,0.03700,-24.86800,-102.21700,6.82500,-0.19900,0.80200,-0.40000,80.82000,-0.21000
041225_04.18.38.736,-0.91100,-0.12700,0.44900,-57.43500,-86.27500,12.04000,-0.18800,0.79600,-0.39300,81.10000,0.28000
041225_04.18.38.748,-0.55600,-0.22800,-0.15500,-75.28500,-68.56500,9.11800,-0.18800,0.79600,-0.39300,80.89000,-0.21000
041225_04.18.38.759,-1.25200,0.10600,0.48400,-34.79000,-43.85500,1.19000,-0.18200,0.79000,-0.38900,80.66000,-0.23000
041225_04.18.38.771,-2.01400,-0.26400,-0.11500,7.56000,-41.28300,-0.91000,-0.17900,0.79100,-0.39500,80.97000,0.31000
041225_04.18.38.783,-2.05600,-0.21900,1.04600,-13.80700,-34.80700,-10.13200,-0.16900,0.79000,-0.38800,81.37000,0.40000
041225_04.18.38.794,-1.48700,0.01300,0.04600,-35.31500,-65.60700,-5.14500,-0.16100,0.78500,-0.38600,81.05000,-0.32000
041225_04.18.38.806,-1.01800,0.07200,-0.08900,-53.97000,-19.93300,0.03500,-0.16100,0.78500,-0.38600,81.41000,0.36000
041225_04.18.38.818,-0.90900,0.10800,0.12300,-48.91200,-11.14800,2.53700,-0.15800,0.78700,-0.38200,81.40000,-0.01000
041225_04.18.38.830,-0.89000,0.11200,0.05100,-46.11200,-10.55200,9.17000,-0.15200,0.78000,-0.37300,81.59000,0.19000
041225_04.18.38.841,-0.93200,0.02500,0.06700,-42.54200,-10.04500,15.45300,-0.14700,0.77700,-0.36500,81.39000,-0.20000
041225_04.18.38.853,-0.99300,-0.03700,0.15500,-36.83800,-8.20800,18.81200,-0.14300,0.77200,-0.36100,80.57000,-0.82000
041225_04.18.38.865,-1.16100,-0.15500,0.17100,-29.27800,-9.66000,15.08500,-0.14300,0.77200,-0.36100,81.35000,0.78000
041225_04.18.38.876,-1.30100,-0.36200,0.26400,-18.98700,-12.84500,2.62500,-0.13900,0.77500,-0.36100,81.25000,-0.10000
041225_04.18.38.888,-1.38800,-0.48700,0.31000,-15.62800,-14.26200,-16.78200,-0.13600,0.77500,-0.35800,80.88000,-0.37000
041225_04.18.38.900,-1.27500,-0.42900,0.34700,-14.57800,-18.06000,-39.28700,-0.14200,0.77800,-0.36000,81.10000,0.22000
041225_04.18.38.912,-1.11100,-0.36300,0.32600,-12.14500,-22.45200,-56.92800,-0.15600,0.78100,-0.36600,81.07000,-0.03000
041225_04.18.38.923,-0.94200,-0.17800,0.40600,-10.67500,-30.62500,-64.38200,-0.15600,0.78100,-0.36600,81.52000,0.45000
041225_04.18.38.935,-0.83900,-0.00700,0.28600,-19.51300,-29.73300,-54.40800,-0.16700,0.78600,-0.36300,81.21000,-0.31000
041225_04.18.38.947,-0.82700,-0.02100,0.27300,-14.68200,-33.30300,-45.65800,-0.17400,0.79200,-0.36600,80.62000,-0.59000
041225_04.18.38.959,-0.89100,-0.06800,0.39200,-7.07000,-37.67800,-37.62500,-0.18200,0.79500,-0.36600,81.25000,0.63000
041225_04.18.38.970,-0.98600,-0.16200,0.55100,-4.65500,-45.06300,-29.66300,-0.18300,0.79700,-0.36400,80.53000,-0.72000
041225_04.18.38.982,-1.05800,-0.27200,0.56900,-9.67700,-50.96000,-23.67700,-0.18300,0.79700,-0.36400,81.49000,0.96000
041225_04.18.38.994,-1.08700,-0.31800,0.39900,-16.36200,-51.53700,-21.10500,-0.18100,0.80200,-0.37200,81.60000,0.11000
041225_04.18.39.006,-1.03600,-0.21500,0.18700,-20.30000,-44.78300,-19.07500,-0.18700,0.80300,-0.37000,81.38000,-0.22000
041225_04.18.39.017,-0.98600,-0.28800,0.04600,-20.89500,-27.12500,-10.71000,-0.18600,0.80400,-0.36900,80.78000,-0.60000
041225_04.18.39.029,-0.92500,-0.28800,0.07100,-20.91300,-1.03300,-3.06300,-0.18600,0.80000,-0.36800,81.04000,0.26000
041225_04.18.39.041,-0.95900,-0.25300,0.12800,-22.64500,20.51000,4.62000,-0.18600,0.80000,-0.36800,81.69000,0.65000
041225_04.18.39.052,-0.98800,-0.23100,0.15400,-17.16700,42.54200,13.10800,-0.18600,0.79800,-0.36300,81.32000,-0.37000
041225_04.18.39.064,-0.89200,-0.25400,0.15600,-8.13700,43.08500,11.16500,-0.18700,0.79400,-0.34700,81.63000,0.31000
041225_04.18.39.076,-0.84300,-0.15600,0.11200,6.17800,35.33300,5.37200,-0.18500,0.79600,-0.35200,81.17000,-0.46000
041225_04.18.39.087,-0.79800,-0.10400,0.09000,20.03800,27.68500,3.51700,-0.18800,0.79900,-0.35900,81.05000,-0.12000
041225_04.18.39.099,-0.81000,-0.11200,0.07600,25.42700,27.12500,8.80200,-0.18800,0.79900,-0.35900,81.50000,0.45000
041225_04.18.39.111,-1.01500,-0.14400,0.11800,29.03200,33.19700,15.31300,-0.18700,0.80000,-0.36200,81.37000,-0.13000
041225_04.18.39.123,-0.92700,-0.32000,0.32700,36.78500,43.82000,16.46800,-0.18700,0.79800,-0.36200,80.93000,-0.44000
041225_04.18.39.134,-0.85700,-0.50500,0.19000,40.05700,55.70200,11.88200,-0.18500,0.80100,-0.36500,80.77000,-0.16000
041225_04.18.39.146,-0.95400,-0.38300,0.33700,21.94500,52.29000,0.66500,-0.18200,0.80000,-0.36300,80.70000,-0.07000
041225_04.18.39.158,-0.69900,-0.52000,0.45600,-12.32000,43.31300,-1.75000,-0.18200,0.80000,-0.36300,80.90000,0.20000
041225_04.18.39.169,-0.91200,-0.44400,0.26300,-58.24000,47.02200,1.75000,-0.18500,0.79400,-0.35000,81.53000,0.63000
041225_04.18.39.181,-1.00900,-0.30800,0.09100,-71.48800,71.75000,-30.29200,-0.19300,0.79200,-0.33500,80.86000,-0.67000
041225_04.18.39.193,-1.00700,-0.10600,-0.03800,-65.45000,82.39000,-42.70000,-0.20000,0.78400,-0.31900,80.97000,0.11000
041225_04.18.39.204,-0.97800,-0.00000,-0.05800,-73.46500,101.02800,-36.54000,-0.21200,0.78100,-0.30700,81.57000,0.60000
041225_04.18.39.216,-1.00700,-0.17700,-0.04400,-89.32000,118.93000,-17.88500,-0.21200,0.78100,-0.30700,81.07000,-0.50000
041225_04.18.39.228,-0.92600,-0.38900,-0.01900,-103.00500,131.18000,-5.18000,-0.22300,0.77000,-0.29000,81.00000,-0.07000
041225_04.18.39.240,-0.97700,-0.49400,-0.07000,-112.63000,133.61300,2.87000,-0.23400,0.76000,-0.26900,80.24000,-0.76000
041225_04.18.39.252,-1.03900,-0.46700,-0.08600,-118.07300,130.11300,4.13000,-0.24600,0.75900,-0.24900,81.52000,1.28000
041225_04.18.39.263,-1.06000,-0.40200,-0.21700,-122.25500,125.16000,2.94000,-0.26100,0.74000,-0.22700,81.34000,-0.18000
041225_04.18.39.275,-1.06500,-0.34600,-0.35100,-120.94200,123.72500,3.16800,-0.26100,0.74000,-0.22700,80.81000,-0.53000
041225_04.18.39.287,-0.83400,-0.28400,-0.44500,-112.91000,129.64000,7.15800,-0.27600,0.72500,-0.21200,80.85000,0.04000
041225_04.18.39.299,-0.71300,-0.51900,-0.31800,-99.62800,140.96200,17.60500,-0.29400,0.70900,-0.20100,81.57000,0.72000
041225_04.18.39.310,-0.70200,-0.67900,-0.37800,-83.68500,162.62800,2.17000,-0.30800,0.70300,-0.19400,82.61000,1.04000
041225_04.18.39.322,-1.23600,-0.30500,-0.81200,-75.68800,175.96200,-28.70000,-0.34000,0.69700,-0.18200,81.24000,-1.37000
041225_04.18.39.334,-1.23400,-0.16900,-0.63400,-61.84500,186.37500,-61.72200,-0.34000,0.69700,-0.18200,80.44000,-0.80000
041225_04.18.39.346,-1.04300,-0.00500,-0.39800,-47.30300,177.04800,-82.28500,-0.37400,0.68900,-0.18500,80.90000,0.46000
041225_04.18.39.357,-0.20100,-0.03300,0.83800,-51.24000,133.40200,-82.93300,-0.41000,0.68600,-0.18400,81.65000,0.75000
041225_04.18.39.369,-0.28800,0.23400,0.19600,-151.42800,51.48500,-27.31800,-0.41800,0.65200,-0.16600,81.15000,-0.50000
041225_04.18.39.381,-1.07300,-0.22000,-0.64200,-220.57000,30.55500,4.77800,-0.43100,0.61700,-0.13800,80.87000,-0.28000
041225_04.18.39.393,-0.71200,-0.49600,-0.62500,-224.66500,51.27500,-14.91000,-0.43100,0.61700,-0.13800,80.96000,0.09000
