t,Ax,Ay,Az,Gx,Gy,Gz,Mx,My,Mz,Alt
2025-09-08 19:49:19.904,-0.007,-0.034,1.001,0.0,-0.0,0.0,-170.2,482.0,-885.1,126.74
2025-09-08 19:49:19.915,-0.007,-0.035,1.006,0.0,-0.0,0.0,-167.7,478.9,-884.8,126.44
2025-09-08 19:49:19.926,-0.008,-0.035,1.007,0.0,-0.0,0.0,-168.8,478.1,-884.1,126.47
2025-09-08 19:49:19.936,-0.009,-0.034,0.996,0.0,-0.0,0.0,-170.8,475.9,-885.6,126.71
2025-09-08 19:49:19.947,-0.008,-0.035,1.001,0.0,-0.0,0.0,-171.6,478.0,-887.9,126.35
2025-09-08 19:49:19.958,-0.008,-0.034,1.012,0.0,-0.0,0.0,-167.3,482.6,-880.9,126.45
2025-09-08 19:49:19.969,-0.008,-0.035,1.003,0.0,-0.0,0.0,-167.3,482.6,-880.9,125.98
2025-09-08 19:49:19.980,-0.007,-0.036,1.001,0.0,-0.0,0.0,-167.6,479.6,-875.3,126.98
2025-09-08 19:49:19.992,-0.008,-0.034,1.007,0.0,-0.0,0.0,-170.0,478.9,-880.2,126.35
2025-09-08 19:49:20.003,-0.007,-0.035,1.011,0.0,-0.0,0.0,-168.7,475.3,-872.9,126.89
2025-09-08 19:49:20.013,-0.007,-0.034,1.007,0.0,-0.0,0.0,-168.1,478.8,-874.7,126.99
2025-09-08 19:49:20.024,-0.008,-0.035,1.004,0.0,-0.0,0.0,-168.6,481.0,-877.9,126.59
2025-09-08 19:49:20.035,-0.009,-0.036,0.992,0.0,-0.0,0.0,-166.7,482.2,-876.5,126.35
2025-09-08 19:49:20.048,-0.008,-0.035,0.997,0.0,-0.0,0.0,-166.7,482.2,-873.9,126.95
2025-09-08 19:49:20.057,-0.008,-0.036,1.008,0.0,-0.0,0.0,-168.3,478.0,-873.9,126.63
2025-09-08 19:49:20.069,-0.009,-0.034,1.01,0.0,-0.0,0.0,-173.9,480.6,-876.7,126.64
2025-09-08 19:49:20.080,-0.007,-0.036,1.0,0.0,-0.0,0.0,-168.6,478.4,-879.3,125.91
2025-09-08 19:49:20.090,-0.007,-0.035,1.0,0.0,-0.0,0.0,-170.5,480.8,-878.2,126.66
2025-09-08 19:49:20.101,-0.009,-0.036,1.001,0.0,-0.0,0.0,-169.4,482.2,-885.2,126.29
2025-09-08 19:49:20.112,-0.007,-0.035,1.006,0.0,-0.0,0.0,-169.8,478.5,-876.1,125.97
2025-09-08 19:49:20.123,-0.007,-0.034,1.007,0.0,-0.0,0.0,-169.8,481.9,-876.8,126.16
2025-09-08 19:49:20.134,-0.008,-0.036,1.003,0.0,-0.0,0.0,-174.7,481.9,-876.8,126.57
2025-09-08 19:49:20.146,-0.008,-0.036,1.0,0.0,-0.0,0.0,-169.4,479.1,-882.4,126.88
2025-09-08 19:49:20.156,-0.007,-0.035,1.002,0.0,-0.0,0.0,-168.8,479.1,-882.1,126.76
2025-09-08 19:49:20.168,-0.007,-0.035,1.006,0.0,-0.0,0.0,-168.6,480.3,-877.2,126.73
2025-09-08 19:49:20.179,-0.008,-0.036,1.005,0.0,-0.0,0.0,-170.9,476.7,-875.7,126.05
2025-09-08 19:49:20.190,-0.009,-0.036,1.004,0.0,-0.0,0.0,-168.1,475.9,-877.0,126.16
2025-09-08 19:49:20.201,-0.008,-0.034,1.004,0.0,-0.0,0.0,-168.1,479.2,-882.0,126.85
2025-09-08 19:49:20.213,-0.008,-0.036,1.005,0.0,-0.0,0.0,-167.6,479.2,-882.0,126.33
2025-09-08 19:49:20.223,-0.007,-0.035,1.004,0.0,-0.0,0.0,-165.3,477.7,-878.6,127.15
2025-09-08 19:49:20.235,-0.008,-0.036,1.003,0.0,-0.0,0.0,-164.4,478.7,-880.9,126.58
2025-09-08 19:49:20.244,-0.008,-0.035,1.004,0.0,-0.0,0.0,-167.6,476.7,-874.2,126.2
2025-09-08 19:49:20.255,-0.007,-0.036,1.003,0.0,-0.0,0.0,-168.4,478.5,-878.5,126.21
2025-09-08 19:49:20.267,-0.007,-0.035,1.004,0.0,-0.0,0.0,-165.5,477.4,-884.1,126.86
2025-09-08 19:49:20.277,-0.009,-0.035,1.004,0.0,-0.0,0.0,-171.9,475.7,-880.5,126.28
2025-09-08 19:49:20.289,-0.008,-0.036,1.003,0.0,-0.0,0.0,-171.9,475.7,-880.5,127.2
2025-09-08 19:49:20.299,-0.008,-0.036,1.002,0.0,-0.0,0.0,-165.3,475.3,-879.1,126.66
2025-09-08 19:49:20.310,-0.009,-0.034,1.004,0.0,-0.0,0.0,-166.5,478.4,-880.0,126.32
2025-09-08 19:49:20.322,-0.008,-0.036,1.005,0.0,-0.0,0.0,-166.7,476.3,-878.4,126.73
2025-09-08 19:49:20.332,-0.008,-0.036,1.005,0.0,-0.0,0.0,-168.8,478.1,-875.3,126.72
2025-09-08 19:49:20.343,-0.009,-0.036,1.004,0.0,-0.0,0.0,-167.0,476.3,-876.1,126.9
2025-09-08 19:49:20.355,-0.008,-0.035,1.004,0.0,-0.0,0.0,-162.8,473.9,-877.7,126.24
2025-09-08 19:49:20.366,-0.007,-0.035,1.003,0.0,-0.0,0.0,-162.8,473.9,-877.7,126.29
2025-09-08 19:49:20.376,-0.008,-0.034,1.003,0.0,-0.0,0.0,-169.0,477.7,-877.8,126.8
2025-09-08 19:49:20.387,-0.008,-0.036,1.005,0.0,-0.0,0.0,-166.3,479.9,-877.7,126.94
2025-09-08 19:49:20.398,-0.007,-0.036,1.004,0.0,-0.0,0.0,-167.0,478.7,-884.0,126.69
2025-09-08 19:49:20.409,-0.007,-0.035,1.003,0.0,-0.0,0.0,-163.5,477.8,-881.3,126.57
2025-09-08 19:49:20.420,-0.007,-0.036,1.004,0.0,-0.0,0.0,-167.6,477.3,-877.8,126.43
2025-09-08 19:49:20.431,-0.007,-0.036,1.003,0.0,-0.0,0.0,-170.7,476.0,-871.1,126.68
2025-09-08 19:49:20.442,-0.008,-0.035,1.005,0.0,-0.0,0.0,-170.7,476.0,-871.1,126.79
2025-09-08 19:49:20.453,-0.007,-0.034,1.004,0.0,-0.0,0.0,-168.4,476.7,-882.3,127.04
2025-09-08 19:49:20.464,-0.007,-0.035,1.004,0.0,-0.0,0.0,-169.3,479.6,-883.4,126.41
2025-09-08 19:49:20.475,-0.007,-0.034,1.004,0.0,-0.0,0.0,-171.2,474.2,-885.9,126.24
2025-09-08 19:49:20.486,-0.008,-0.035,1.003,0.0,-0.0,0.0,-171.9,479.1,-880.9,126.59
2025-09-08 19:49:20.497,-0.009,-0.035,1.004,0.0,-0.0,0.0,-174.7,479.6,-876.0,126.98
2025-09-08 19:49:20.508,-0.008,-0.035,1.004,0.0,-0.0,0.0,-171.6,474.6,-881.9,126.3
2025-09-08 19:49:20.519,-0.008,-0.036,1.003,0.0,-0.0,0.0,-171.6,474.6,-881.9,126.7
2025-09-08 19:49:20.530,-0.008,-0.036,1.004,0.0,-0.0,0.0,-172.6,479.6,-885.6,126.92
2025-09-08 19:49:20.541,-0.009,-0.035,1.002,0.0,-0.0,0.0,-169.5,476.4,-885.8,126.12
2025-09-08 19:49:20.552,-0.007,-0.035,1.006,0.0,-0.0,0.0,-172.1,476.4,-884.1,125.89
2025-09-08 19:49:20.563,-0.007,-0.035,1.004,0.0,-0.0,0.0,-174.7,480.1,-885.5,126.24
2025-09-08 19:49:20.574,-0.008,-0.036,1.004,0.0,-0.0,0.0,-170.7,481.6,-883.4,126.77
2025-09-08 19:49:20.585,-0.007,-0.035,1.002,0.0,-0.0,0.0,-170.8,477.5,-880.5,126.48
2025-09-08 19:49:20.596,-0.008,-0.035,1.005,0.0,-0.0,0.0,-170.8,477.5,-880.5,126.28
2025-09-08 19:49:20.607,-0.008,-0.037,1.004,0.0,-0.0,0.0,-170.1,478.8,-879.3,126.43
2025-09-08 19:49:20.618,-0.007,-0.035,1.003,0.0,-0.0,0.0,-172.5,481.7,-879.9,126.03
2025-09-08 19:49:20.629,-0.008,-0.035,1.004,0.0,-0.0,0.0,-172.1,481.5,-881.6,126.38
2025-09-08 19:49:20.640,-0.007,-0.036,1.003,0.0,-0.0,0.0,-169.5,478.7,-877.5,126.56
2025-09-08 19:49:20.651,-0.007,-0.035,1.004,0.0,-0.0,0.0,-168.8,478.9,-880.7,126.31
2025-09-08 19:49:20.662,-0.007,-0.036,1.004,0.0,-0.0,0.0,-166.9,478.8,-882.1,126.46
2025-09-08 19:49:20.673,-0.008,-0.035,1.004,0.0,-0.0,0.0,-166.9,478.8,-882.1,126.16
2025-09-08 19:49:20.684,-0.008,-0.035,1.003,0.0,-0.0,0.0,-173.3,475.2,-879.8,126.57
2025-09-08 19:49:20.695,-0.008,-0.035,1.003,0.0,-0.0,0.0,-170.8,479.6,-879.3,125.99
2025-09-08 19:49:20.706,-0.007,-0.035,1.004,0.0,-0.0,0.0,-166.2,476.3,-880.2,126.48
2025-09-08 19:49:20.717,-0.008,-0.035,1.004,0.0,-0.0,0.0,-167.4,474.3,-879.6,126.37
2025-09-08 19:49:20.728,-0.008,-0.035,1.003,0.0,-0.0,0.0,-171.4,475.0,-877.7,126.52
2025-09-08 19:49:20.739,-0.009,-0.034,1.005,0.0,-0.0,0.0,-168.1,478.8,-876.3,126.37
2025-09-08 19:49:20.750,-0.008,-0.035,1.004,0.0,-0.0,0.0,-168.1,478.8,-876.3,126.34
2025-09-08 19:49:20.761,-0.009,-0.034,1.004,0.0,-0.0,0.0,-169.0,478.2,-882.6,126.54
2025-09-08 19:49:20.772,-0.007,-0.035,1.005,0.0,-0.0,0.0,-168.3,479.8,-887.5,126.65
2025-09-08 19:49:20.783,-0.008,-0.035,1.002,0.0,-0.0,0.0,-167.3,481.0,-881.0,126.04
2025-09-08 19:49:20.794,-0.009,-0.035,1.004,0.0,-0.0,0.0,-165.6,474.6,-878.1,125.79
2025-09-08 19:49:20.805,-0.009,-0.037,1.003,0.0,-0.0,0.0,-165.3,477.3,-885.6,126.32
2025-09-08 19:49:20.816,-0.008,-0.034,1.003,0.0,-0.0,0.0,-167.6,478.5,-886.2,126.52
2025-09-08 19:49:20.827,-0.008,-0.036,1.004,0.0,-0.0,0.0,-167.6,478.5,-886.2,127.07
2025-09-08 19:49:20.838,-0.008,-0.036,1.003,0.0,-0.0,0.0,-170.0,481.9,-887.3,126.48
2025-09-08 19:49:20.849,-0.008,-0.034,1.004,0.0,-0.0,0.0,-169.5,482.4,-883.3,126.76
2025-09-08 19:49:20.860,-0.008,-0.035,1.003,0.0,-0.0,0.0,-170.7,479.4,-884.4,126.75
2025-09-08 19:49:20.871,-0.007,-0.036,1.005,0.0,-0.0,0.0,-164.9,474.7,-879.9,126.23
2025-09-08 19:49:20.882,-0.008,-0.035,1.003,0.0,-0.0,0.0,-173.3,481.2,-879.8,126.63
2025-09-08 19:49:20.893,-0.008,-0.035,1.004,0.0,-0.0,0.0,-167.2,477.3,-882.0,126.33
2025-09-08 19:49:20.904,-0.008,-0.035,1.004,0.0,-0.0,0.0,-167.2,477.3,-881.2,126.73
2025-09-08 19:49:20.915,-0.008,-0.036,1.004,0.0,-0.0,0.0,-171.2,480.6,-881.2,126.31
2025-09-08 19:49:20.926,-0.008,-0.036,1.004,0.0,-0.0,0.0,-168.7,479.2,-882.7,126.72
2025-09-08 19:49:20.937,-0.008,-0.034,1.004,0.0,-0.0,0.0,-167.7,481.5,-878.8,127.19
2025-09-08 19:49:20.948,-0.008,-0.035,1.004,0.0,-0.0,0.0,-171.4,477.7,-877.7,126.75
2025-09-08 19:49:20.959,-0.007,-0.035,1.004,0.0,-0.0,0.0,-170.4,475.6,-878.1,126.62
2025-09-08 19:49:20.970,-0.008,-0.034,1.004,0.0,-0.0,0.0,-167.3,475.4,-881.0,126.84
2025-09-08 19:49:20.981,-0.008,-0.036,1.003,0.0,-0.0,0.0,-167.3,475.7,-877.8,125.99
2025-09-08 19:49:20.992,-0.008,-0.037,1.004,0.0,-0.0,0.0,-165.2,475.7,-877.8,126.31
2025-09-08 19:49:21.003,-0.009,-0.036,1.005,0.0,-0.0,0.0,-165.8,476.1,-874.3,126.77
2025-09-08 19:49:21.014,-0.008,-0.036,1.004,0.0,-0.0,0.0,-165.1,478.4,-877.8,126.73
2025-09-08 19:49:21.025,-0.008,-0.037,1.002,0.0,-0.0,0.0,-168.7,475.6,-877.2,126.74
2025-09-08 19:49:21.036,-0.008,-0.033,1.002,0.0,-0.0,0.0,-168.6,476.7,-880.0,126.3
2025-09-08 19:49:21.047,-0.008,-0.034,1.004,0.0,-0.0,0.0,-168.7,478.7,-878.8,127.01
2025-09-08 19:49:21.058,-0.008,-0.033,1.005,0.0,-0.0,0.0,-168.3,478.5,-882.0,126.53
2025-09-08 19:49:21.072,-0.009,-0.036,1.005,0.0,-0.0,0.0,-168.3,478.5,-882.0,126.26
2025-09-08 19:49:21.080,-0.008,-0.035,1.0,0.0,-0.0,0.0,-164.4,477.3,-880.7,126.17
2025-09-08 19:49:21.091,-0.008,-0.034,1.003,0.0,-0.0,0.0,-168.7,479.5,-882.0,126.63
2025-09-08 19:49:21.102,-0.008,-0.035,1.005,0.0,-0.0,0.0,-166.5,476.1,-880.7,126.47
2025-09-08 19:49:21.113,-0.008,-0.036,1.005,0.0,-0.0,0.0,-168.6,477.3,-882.6,126.1
2025-09-08 19:49:21.124,-0.007,-0.036,1.002,0.0,-0.0,0.0,-170.7,478.8,-882.4,126.18
2025-09-08 19:49:21.135,-0.007,-0.035,1.003,0.0,-0.0,0.0,-165.6,479.2,-886.1,126.61
2025-09-08 19:49:21.146,-0.008,-0.034,1.006,0.0,-0.0,0.0,-165.6,479.2,-886.1,126.32
2025-09-08 19:49:21.158,-0.006,-0.036,1.005,0.0,-0.0,0.0,-169.7,478.9,-882.6,126.35
2025-09-08 19:49:21.168,-0.006,-0.036,1.002,0.0,-0.0,0.0,-169.3,480.3,-881.3,127.0
2025-09-08 19:49:21.179,-0.008,-0.034,1.003,0.0,-0.0,0.0,-168.3,475.9,-879.2,126.52
2025-09-08 19:49:21.190,-0.008,-0.035,1.002,0.0,-0.0,0.0,-165.8,478.8,-886.8,126.9
2025-09-08 19:49:21.201,-0.008,-0.035,1.004,0.0,-0.0,0.0,-164.9,476.7,-880.2,126.75
2025-09-08 19:49:21.213,-0.008,-0.036,1.004,0.0,-0.0,0.0,-163.8,482.2,-881.7,126.65
2025-09-08 19:49:21.223,-0.007,-0.035,1.001,0.0,-0.0,0.0,-163.8,482.2,-881.7,126.85
2025-09-08 19:49:21.234,-0.008,-0.036,1.004,0.0,-0.0,0.0,-162.5,481.6,-887.3,127.08
2025-09-08 19:49:21.245,-0.007,-0.035,1.004,0.0,-0.0,0.0,-166.3,480.8,-886.3,126.06
2025-09-08 19:49:21.256,-0.008,-0.036,1.005,0.0,-0.0,0.0,-164.9,481.5,-887.5,126.83
2025-09-08 19:49:21.267,-0.008,-0.034,1.004,0.0,-0.0,0.0,-169.8,479.5,-884.2,126.86
2025-09-08 19:49:21.278,-0.008,-0.036,1.005,0.0,-0.0,0.0,-162.3,477.4,-874.6,126.79
2025-09-08 19:49:21.289,-0.008,-0.035,1.003,0.0,-0.0,0.0,-167.6,478.7,-875.1,126.52
2025-09-08 19:49:21.300,-0.009,-0.035,1.004,0.0,-0.0,0.0,-167.6,478.7,-875.1,126.61
2025-09-08 19:49:21.311,-0.007,-0.035,1.003,0.0,-0.0,0.0,-169.0,477.1,-880.3,127.27
2025-09-08 19:49:21.322,-0.009,-0.035,1.004,0.0,-0.0,0.0,-170.0,481.3,-881.9,126.64
2025-09-08 19:49:21.333,-0.008,-0.036,1.003,0.0,-0.0,0.0,-166.5,482.2,-879.9,126.52
2025-09-08 19:49:21.344,-0.008,-0.035,1.004,0.0,-0.0,0.0,-167.7,479.8,-877.8,126.11
2025-09-08 19:49:21.355,-0.007,-0.035,1.004,0.0,-0.0,0.0,-167.7,478.9,-874.3,127.07
2025-09-08 19:49:21.366,-0.008,-0.033,1.004,0.0,-0.0,0.0,-165.6,481.9,-874.7,126.88
2025-09-08 19:49:21.377,-0.007,-0.036,1.005,0.0,-0.0,0.0,-165.6,481.9,-874.7,126.32
2025-09-08 19:49:21.388,-0.007,-0.035,1.004,0.0,-0.0,0.0,-161.4,481.3,-877.9,126.65
2025-09-08 19:49:21.399,-0.008,-0.035,1.003,0.0,-0.0,0.0,-165.3,477.5,-872.9,126.77
2025-09-08 19:49:21.410,-0.008,-0.035,1.003,0.0,-0.0,0.0,-164.9,478.4,-874.4,126.61
2025-09-08 19:49:21.421,-0.008,-0.036,1.004,0.0,-0.0,0.0,-165.1,480.1,-881.9,126.56
2025-09-08 19:49:21.432,-0.007,-0.036,1.004,0.0,-0.0,0.0,-166.7,480.8,-868.3,126.41
2025-09-08 19:49:21.443,-0.008,-0.035,1.005,0.0,-0.0,0.0,-167.9,479.1,-876.3,126.59
2025-09-08 19:49:21.454,-0.008,-0.035,1.005,0.0,-0.0,0.0,-167.9,479.1,-876.3,126.59
2025-09-08 19:49:21.465,-0.007,-0.036,1.003,0.0,-0.0,0.0,-165.8,481.3,-873.5,127.17
2025-09-08 19:49:21.476,-0.008,-0.036,1.004,0.0,-0.0,0.0,-168.6,475.4,-878.9,127.01
2025-09-08 19:49:21.487,-0.008,-0.036,1.003,0.0,-0.0,0.0,-170.0,479.9,-882.1,126.31
2025-09-08 19:49:21.498,-0.007,-0.035,1.004,0.0,-0.0,0.0,-166.2,480.6,-881.3,126.33
2025-09-08 19:49:21.509,-0.008,-0.035,1.004,0.0,-0.0,0.0,-165.9,482.4,-882.1,126.69
2025-09-08 19:49:21.520,-0.008,-0.035,1.004,0.0,-0.0,0.0,-164.2,477.7,-880.5,126.84
2025-09-08 19:49:21.531,-0.007,-0.035,1.004,0.0,-0.0,0.0,-164.2,477.7,-880.5,126.7
2025-09-08 19:49:21.542,-0.008,-0.034,1.003,0.0,-0.0,0.0,-160.2,479.1,-878.4,126.14
2025-09-08 19:49:21.553,-0.008,-0.035,1.004,0.0,-0.0,0.0,-166.3,478.2,-872.3,126.52
2025-09-08 19:49:21.564,-0.008,-0.035,1.003,0.0,-0.0,0.0,-165.6,475.6,-870.7,126.86
2025-09-08 19:49:21.575,-0.007,-0.035,1.004,0.0,-0.0,0.0,-166.5,474.3,-873.0,126.86
2025-09-08 19:49:21.586,-0.008,-0.035,1.005,0.0,-0.0,0.0,-167.9,477.1,-876.5,126.73
2025-09-08 19:49:21.597,-0.007,-0.036,1.006,0.0,-0.0,0.0,-162.7,478.9,-876.7,126.44
2025-09-08 19:49:21.608,-0.008,-0.035,1.004,0.0,-0.0,0.0,-162.7,478.9,-876.7,125.97
2025-09-08 19:49:21.619,-0.007,-0.034,1.004,0.0,-0.0,0.0,-165.2,479.1,-875.1,126.9
2025-09-08 19:49:21.630,-0.008,-0.035,1.003,0.0,-0.0,0.0,-163.1,477.4,-877.8,127.23
2025-09-08 19:49:21.641,-0.008,-0.036,1.004,0.0,-0.0,0.0,-168.7,479.1,-872.1,126.22
2025-09-08 19:49:21.652,-0.007,-0.036,1.005,0.0,-0.0,0.0,-164.8,476.7,-879.5,125.98
2025-09-08 19:49:21.663,-0.008,-0.036,1.004,0.0,-0.0,0.0,-160.9,476.4,-871.9,126.12
2025-09-08 19:49:21.674,-0.009,-0.036,1.003,0.0,-0.0,0.0,-162.4,475.6,-873.2,126.78
2025-09-08 19:49:21.685,-0.009,-0.034,1.004,0.0,-0.0,0.0,-162.4,475.6,-873.2,126.66
2025-09-08 19:49:21.696,-0.008,-0.035,1.004,0.0,-0.0,0.0,-164.4,477.4,-869.5,126.5
2025-09-08 19:49:21.707,-0.009,-0.035,1.004,0.0,-0.0,0.0,-165.9,478.7,-871.6,126.59
2025-09-08 19:49:21.718,-0.008,-0.035,1.004,0.0,-0.0,0.0,-164.8,475.9,-874.3,126.27
2025-09-08 19:49:21.729,-0.008,-0.035,1.004,0.0,-0.0,0.0,-163.7,479.5,-875.3,126.8
2025-09-08 19:49:21.740,-0.007,-0.035,1.005,0.0,-0.0,0.0,-164.5,479.4,-877.4,125.99
2025-09-08 19:49:21.751,-0.008,-0.036,1.003,0.0,-0.0,0.0,-162.5,476.3,-876.3,126.42
2025-09-08 19:49:21.762,-0.008,-0.036,1.005,0.0,-0.0,0.0,-162.5,476.3,-874.9,126.9
2025-09-08 19:49:21.773,-0.009,-0.036,1.004,0.0,-0.0,0.0,-157.1,478.1,-874.9,126.87
2025-09-08 19:49:21.784,-0.007,-0.036,1.003,0.0,-0.0,0.0,-165.5,477.7,-870.4,126.54
2025-09-08 19:49:21.795,-0.007,-0.035,1.004,0.0,-0.0,0.0,-164.4,471.7,-880.7,126.73
2025-09-08 19:49:21.806,-0.008,-0.036,1.004,0.0,-0.0,0.0,-166.5,477.1,-876.3,126.6
2025-09-08 19:49:21.817,-0.007,-0.034,1.005,0.0,-0.0,0.0,-163.8,477.0,-877.0,126.15
2025-09-08 19:49:21.828,-0.007,-0.036,1.004,0.0,-0.0,0.0,-162.3,476.4,-882.4,126.18
2025-09-08 19:49:21.839,-0.008,-0.037,1.004,0.0,-0.0,0.0,-162.3,476.7,-882.0,127.05
2025-09-08 19:49:21.850,-0.009,-0.036,1.005,0.0,-0.0,0.0,-169.7,476.7,-882.0,125.9
2025-09-08 19:49:21.861,-0.007,-0.035,1.005,0.0,-0.0,0.0,-166.0,476.4,-877.8,126.35
2025-09-08 19:49:21.872,-0.007,-0.035,1.003,0.0,-0.0,0.0,-163.4,476.3,-879.2,125.82
2025-09-08 19:49:21.883,-0.008,-0.034,1.005,0.0,-0.0,0.0,-166.7,475.7,-876.3,126.81
2025-09-08 19:49:21.894,-0.007,-0.036,1.004,0.0,-0.0,0.0,-168.0,477.3,-878.6,126.53
2025-09-08 19:49:21.905,-0.009,-0.036,1.004,0.0,-0.0,0.0,-168.7,475.2,-876.5,126.47
2025-09-08 19:49:21.916,-0.008,-0.035,1.005,0.0,-0.0,0.0,-165.8,473.1,-881.2,126.62
2025-09-08 19:49:21.927,-0.009,-0.036,1.003,0.0,-0.0,0.0,-165.8,473.1,-881.2,126.32
2025-09-08 19:49:21.938,-0.008,-0.035,1.005,0.0,-0.0,0.0,-160.0,473.9,-883.5,125.84
2025-09-08 19:49:21.949,-0.007,-0.035,1.003,0.0,-0.0,0.0,-163.7,478.9,-881.9,126.78
2025-09-08 19:49:21.960,-0.009,-0.035,1.003,0.0,-0.0,0.0,-158.1,478.4,-879.3,127.19
2025-09-08 19:49:21.971,-0.008,-0.034,1.004,0.0,-0.0,0.0,-162.0,475.9,-879.6,126.21
2025-09-08 19:49:21.982,-0.007,-0.036,1.004,0.0,-0.0,0.0,-164.6,475.2,-876.3,126.47
2025-09-08 19:49:21.993,-0.007,-0.034,1.004,0.0,-0.0,0.0,-162.4,472.8,-883.3,126.3
2025-09-08 19:49:22.004,-0.009,-0.035,1.004,0.0,-0.0,0.0,-162.4,472.8,-883.3,126.58
2025-09-08 19:49:22.015,-0.007,-0.035,1.002,0.0,-0.0,0.0,-161.8,478.4,-885.5,126.66
2025-09-08 19:49:22.026,-0.008,-0.035,1.004,0.0,-0.0,0.0,-163.2,477.3,-879.8,126.25
2025-09-08 19:49:22.037,-0.008,-0.035,1.003,0.0,-0.0,0.0,-165.3,474.3,-879.2,126.37
2025-09-08 19:49:22.048,-0.008,-0.034,1.003,0.0,-0.0,0.0,-165.9,479.2,-868.1,125.88
2025-09-08 19:49:22.059,-0.008,-0.036,1.004,0.0,-0.0,0.0,-165.1,478.4,-875.8,126.05
2025-09-08 19:49:22.070,-0.008,-0.034,1.004,0.0,-0.0,0.0,-163.7,477.8,-877.9,125.76
2025-09-08 19:49:22.081,-0.008,-0.035,1.003,0.0,-0.0,0.0,-163.7,477.8,-877.9,126.84
2025-09-08 19:49:22.092,-0.007,-0.035,1.004,0.0,-0.0,0.0,-169.5,478.4,-877.8,126.31
2025-09-08 19:49:22.103,-0.008,-0.035,1.004,0.0,-0.0,0.0,-164.5,478.2,-877.1,126.19
2025-09-08 19:49:22.114,-0.008,-0.036,1.004,0.0,-0.0,0.0,-165.6,475.9,-877.0,126.37
2025-09-08 19:49:22.125,-0.009,-0.036,1.004,0.0,-0.0,0.0,-167.0,475.0,-871.6,126.62
2025-09-08 19:49:22.136,-0.008,-0.035,1.004,0.0,-0.0,0.0,-164.8,474.7,-874.2,126.6
2025-09-08 19:49:22.147,-0.007,-0.035,1.003,0.0,-0.0,0.0,-167.0,475.3,-876.3,126.01
2025-09-08 19:49:22.158,-0.008,-0.034,1.005,0.0,-0.0,0.0,-167.0,475.3,-876.3,125.97
2025-09-08 19:49:22.169,-0.008,-0.036,1.005,0.0,-0.0,0.0,-167.2,473.6,-873.3,126.78
2025-09-08 19:49:22.180,-0.008,-0.036,1.004,0.0,-0.0,0.0,-165.1,472.2,-876.0,126.21
2025-09-08 19:49:22.191,-0.008,-0.035,1.003,0.0,-0.0,0.0,-162.3,475.0,-872.8,127.02
2025-09-08 19:49:22.202,-0.007,-0.035,1.004,0.0,-0.0,0.0,-172.1,476.6,-874.6,126.2
2025-09-08 19:49:22.213,-0.008,-0.035,1.004,0.0,-0.0,0.0,-169.7,482.3,-876.8,125.91
2025-09-08 19:49:22.224,-0.008,-0.035,1.004,0.0,-0.0,0.0,-165.5,479.4,-876.1,125.88
2025-09-08 19:49:22.235,-0.008,-0.035,1.005,0.0,-0.0,0.0,-165.5,479.4,-876.1,126.55
2025-09-08 19:49:22.246,-0.007,-0.034,1.003,0.0,-0.0,0.0,-167.0,475.9,-878.4,127.0
2025-09-08 19:49:22.257,-0.006,-0.035,1.005,0.0,-0.0,0.0,-168.3,480.8,-870.5,126.99
2025-09-08 19:49:22.268,-0.008,-0.036,1.004,0.0,-0.0,0.0,-166.5,478.2,-873.7,126.96
2025-09-08 19:49:22.279,-0.007,-0.036,1.002,0.0,-0.0,0.0,-169.1,479.2,-873.6,126.68
2025-09-08 19:49:22.290,-0.008,-0.035,1.003,0.0,-0.0,0.0,-164.8,474.7,-874.6,126.82
2025-09-08 19:49:22.301,-0.008,-0.036,1.004,0.0,-0.0,0.0,-166.2,473.9,-865.1,126.54
2025-09-08 19:49:22.312,-0.008,-0.036,1.004,0.0,-0.0,0.0,-166.2,473.9,-865.1,127.31
2025-09-08 19:49:22.323,-0.007,-0.035,1.004,0.0,-0.0,0.0,-169.4,479.2,-874.9,126.57
2025-09-08 19:49:22.334,-0.008,-0.035,1.004,0.0,-0.0,0.0,-169.5,476.6,-874.0,126.65
2025-09-08 19:49:22.345,-0.008,-0.035,1.003,0.0,-0.0,0.0,-168.0,478.1,-876.5,126.14
2025-09-08 19:49:22.356,-0.008,-0.035,1.004,0.0,-0.0,0.0,-170.0,476.0,-870.9,126.69
2025-09-08 19:49:22.367,-0.008,-0.036,1.005,0.0,-0.0,0.0,-167.3,476.6,-877.5,126.47
2025-09-08 19:49:22.378,-0.008,-0.036,1.005,0.0,-0.0,0.0,-166.5,473.9,-873.6,126.53
2025-09-08 19:49:22.389,-0.008,-0.036,1.003,0.0,-0.0,0.0,-166.5,473.9,-873.6,126.51
2025-09-08 19:49:22.400,-0.007,-0.036,1.003,0.0,-0.0,0.0,-167.7,481.9,-873.2,126.5
2025-09-08 19:49:22.411,-0.006,-0.036,1.003,0.0,-0.0,0.0,-170.4,477.7,-875.3,126.2
2025-09-08 19:49:22.422,-0.008,-0.035,1.004,0.0,-0.0,0.0,-170.5,475.2,-878.2,126.84
2025-09-08 19:49:22.433,-0.008,-0.035,1.005,0.0,-0.0,0.0,-164.5,476.1,-877.9,125.99
2025-09-08 19:49:22.444,-0.007,-0.035,1.004,0.0,-0.0,0.0,-165.2,476.1,-881.6,125.96
2025-09-08 19:49:22.455,-0.007,-0.034,1.003,0.0,-0.0,0.0,-166.9,476.4,-879.3,127.03
2025-09-08 19:49:22.466,-0.008,-0.035,1.004,0.0,-0.0,0.0,-166.9,476.4,-879.3,126.92
2025-09-08 19:49:22.477,-0.008,-0.034,1.004,0.0,-0.0,0.0,-164.1,475.9,-873.0,126.33
2025-09-08 19:49:22.488,-0.008,-0.034,1.004,0.0,-0.0,0.0,-166.6,474.3,-874.3,126.37
2025-09-08 19:49:22.499,-0.007,-0.036,1.004,0.0,-0.0,0.0,-163.0,475.7,-876.5,126.01
2025-09-08 19:49:22.510,-0.007,-0.035,1.005,0.0,-0.0,0.0,-162.7,477.7,-880.5,126.45
2025-09-08 19:49:22.521,-0.008,-0.034,1.004,0.0,-0.0,0.0,-162.3,478.2,-873.3,126.59
2025-09-08 19:49:22.532,-0.009,-0.035,1.003,0.0,-0.0,0.0,-164.1,474.2,-879.8,126.03
2025-09-08 19:49:22.543,-0.007,-0.036,1.004,0.0,-0.0,0.0,-164.1,474.2,-878.5,126.27
2025-09-08 19:49:22.554,-0.008,-0.035,1.002,0.0,-0.0,0.0,-163.2,477.5,-878.5,126.41
2025-09-08 19:49:22.565,-0.007,-0.035,1.003,0.0,-0.0,0.0,-163.4,476.0,-879.1,126.58
2025-09-08 19:49:22.576,-0.008,-0.036,1.003,0.0,-0.0,0.0,-158.2,475.2,-884.9,126.68
2025-09-08 19:49:22.587,-0.008,-0.035,1.005,0.0,-0.0,0.0,-163.4,474.0,-881.9,126.8
2025-09-08 19:49:22.598,-0.007,-0.035,1.004,0.0,-0.0,0.0,-162.8,478.9,-877.8,126.63
2025-09-08 19:49:22.609,-0.008,-0.035,1.004,0.0,-0.0,0.0,-168.3,471.8,-881.4,126.64
2025-09-08 19:49:22.620,-0.008,-0.035,1.003,0.0,-0.0,0.0,-168.3,472.2,-876.3,126.14
2025-09-08 19:49:22.631,-0.009,-0.035,1.003,0.0,-0.0,0.0,-166.3,472.2,-876.3,126.11
2025-09-08 19:49:22.642,-0.008,-0.035,1.004,0.0,-0.0,0.0,-165.1,477.7,-874.2,127.33
2025-09-08 19:49:22.653,-0.008,-0.036,1.004,0.0,-0.0,0.0,-167.0,475.4,-879.5,127.24
2025-09-08 19:49:22.664,-0.007,-0.035,1.004,0.0,-0.0,0.0,-168.3,471.2,-882.0,126.9
2025-09-08 19:49:22.675,-0.008,-0.035,1.003,0.0,-0.0,0.0,-164.8,474.3,-884.0,126.16
2025-09-08 19:49:22.686,-0.007,-0.034,1.004,0.0,-0.0,0.0,-164.9,469.7,-879.3,126.04
2025-09-08 19:49:22.697,-0.008,-0.035,1.005,0.0,-0.0,0.0,-166.5,472.6,-877.7,127.15
2025-09-08 19:49:22.708,-0.007,-0.036,1.003,0.0,-0.0,0.0,-166.5,472.6,-877.7,126.78
2025-09-08 19:49:22.719,-0.008,-0.035,1.004,0.0,-0.0,0.0,-167.4,478.5,-881.3,127.26
2025-09-08 19:49:22.730,-0.008,-0.035,1.004,0.0,-0.0,0.0,-167.0,472.5,-878.2,126.2
2025-09-08 19:49:22.741,-0.008,-0.035,1.004,0.0,-0.0,0.0,-167.9,477.0,-869.3,126.87
2025-09-08 19:49:22.752,-0.007,-0.035,1.004,0.0,-0.0,0.0,-169.7,472.4,-877.4,126.4
2025-09-08 19:49:22.763,-0.006,-0.034,1.003,0.0,-0.0,0.0,-167.7,478.8,-875.7,126.65
2025-09-08 19:49:22.774,-0.008,-0.035,1.003,0.0,-0.0,0.0,-169.0,481.9,-879.6,126.19
2025-09-08 19:49:22.785,-0.008,-0.036,1.004,0.0,-0.0,0.0,-169.0,481.9,-879.6,126.21
2025-09-08 19:49:22.796,-0.007,-0.035,1.005,0.0,-0.0,0.0,-166.7,476.0,-878.9,126.11
2025-09-08 19:49:22.807,-0.007,-0.036,1.004,0.0,-0.0,0.0,-163.9,472.9,-879.2,126.43
2025-09-08 19:49:22.818,-0.008,-0.035,1.003,0.0,-0.0,0.0,-167.6,473.3,-879.9,126.86
2025-09-08 19:49:22.829,-0.007,-0.036,1.003,0.0,-0.0,0.0,-162.0,479.6,-878.9,125.97
2025-09-08 19:49:22.840,-0.008,-0.036,1.004,0.0,-0.0,0.0,-166.7,478.2,-876.4,126.26
2025-09-08 19:49:22.851,-0.008,-0.036,1.003,0.0,-0.0,0.0,-166.3,475.0,-879.5,126.96
2025-09-08 19:49:22.862,-0.007,-0.036,1.004,0.0,-0.0,0.0,-166.3,475.0,-879.5,126.3
2025-09-08 19:49:22.873,-0.007,-0.034,1.003,0.0,-0.0,0.0,-166.6,474.6,-876.7,126.49
2025-09-08 19:49:22.884,-0.007,-0.036,1.004,0.0,-0.0,0.0,-164.6,476.7,-872.9,126.21
2025-09-08 19:49:22.895,-0.009,-0.035,1.003,0.0,-0.0,0.0,-166.2,475.4,-875.3,126.85
2025-09-08 19:49:22.906,-0.008,-0.035,1.004,0.0,-0.0,0.0,-165.3,479.9,-872.9,126.41
2025-09-08 19:49:22.917,-0.008,-0.034,1.004,0.0,-0.0,0.0,-166.6,477.3,-870.1,126.51
2025-09-08 19:49:22.928,-0.007,-0.034,1.004,0.0,-0.0,0.0,-168.8,478.1,-881.0,126.28
2025-09-08 19:49:22.939,-0.007,-0.036,1.004,0.0,-0.0,0.0,-168.8,478.1,-881.0,127.12
2025-09-08 19:49:22.950,-0.007,-0.035,1.004,0.0,-0.0,0.0,-166.9,476.1,-882.0,126.17
2025-09-08 19:49:22.961,-0.008,-0.036,1.004,0.0,-0.0,0.0,-163.1,478.1,-880.5,126.84
2025-09-08 19:49:22.972,-0.008,-0.035,1.003,0.0,-0.0,0.0,-166.9,475.4,-879.8,126.29
2025-09-08 19:49:22.983,-0.007,-0.035,1.004,0.0,-0.0,0.0,-167.6,473.1,-877.7,126.69
2025-09-08 19:49:22.994,-0.009,-0.035,1.003,0.0,-0.0,0.0,-164.1,475.0,-880.3,126.45
2025-09-08 19:49:23.005,-0.008,-0.036,1.005,0.0,-0.0,0.0,-170.8,475.0,-875.3,126.74
2025-09-08 19:49:23.016,-0.009,-0.035,1.004,0.0,-0.0,0.0,-170.8,475.0,-875.3,126.13
2025-09-08 19:49:23.027,-0.007,-0.035,1.004,0.0,-0.0,0.0,-169.4,470.7,-878.4,126.88
2025-09-08 19:49:23.038,-0.008,-0.034,1.003,0.0,-0.0,0.0,-169.3,470.0,-879.8,126.48
2025-09-08 19:49:23.049,-0.009,-0.035,1.005,0.0,-0.0,0.0,-164.9,475.3,-871.5,125.96
2025-09-08 19:49:23.060,-0.008,-0.035,1.005,0.0,-0.0,0.0,-163.7,476.4,-876.0,126.99
2025-09-08 19:49:23.071,-0.007,-0.035,1.003,0.0,-0.0,0.0,-165.3,472.8,-878.4,126.07
2025-09-08 19:49:23.082,-0.007,-0.035,1.004,0.0,-0.0,0.0,-165.8,471.5,-871.6,126.77
2025-09-08 19:49:23.093,-0.009,-0.034,1.003,0.0,-0.0,0.0,-165.8,471.5,-871.6,126.14
2025-09-08 19:49:23.104,-0.008,-0.034,1.003,0.0,-0.0,0.0,-170.2,476.8,-881.4,126.0
2025-09-08 19:49:23.115,-0.008,-0.036,1.004,0.0,-0.0,0.0,-166.9,474.9,-880.6,125.7
2025-09-08 19:49:23.126,-0.009,-0.035,1.004,0.0,-0.0,0.0,-167.6,475.6,-883.0,126.58
2025-09-08 19:49:23.137,-0.008,-0.035,1.003,0.0,-0.0,0.0,-169.5,478.5,-880.7,126.56
2025-09-08 19:49:23.148,-0.008,-0.035,1.004,0.0,-0.0,0.0,-162.5,476.0,-882.0,125.82
2025-09-08 19:49:23.159,-0.008,-0.036,1.003,0.0,-0.0,0.0,-164.8,478.5,-873.7,126.42
2025-09-08 19:49:23.170,-0.008,-0.035,1.003,0.0,-0.0,0.0,-164.8,478.5,-873.7,126.74
2025-09-08 19:49:23.181,-0.008,-0.034,1.003,0.0,-0.0,0.0,-166.0,473.5,-875.4,126.13
2025-09-08 19:49:23.192,-0.008,-0.036,1.003,0.0,-0.0,0.0,-164.5,478.8,-878.4,126.46
2025-09-08 19:49:23.203,-0.008,-0.035,1.004,0.0,-0.0,0.0,-159.0,474.7,-881.9,126.85
2025-09-08 19:49:23.214,-0.008,-0.035,1.004,0.0,-0.0,0.0,-164.4,474.7,-873.2,126.54
2025-09-08 19:49:23.225,-0.008,-0.035,1.004,0.0,-0.0,0.0,-165.3,473.5,-874.2,127.21
2025-09-08 19:49:23.236,-0.005,-0.035,1.004,0.0,-0.0,0.0,-166.7,476.3,-871.6,125.79
2025-09-08 19:49:23.247,-0.007,-0.035,1.004,0.0,-0.0,0.0,-166.7,476.3,-871.6,126.53
2025-09-08 19:49:23.258,-0.007,-0.035,1.003,0.0,-0.0,0.0,-165.6,471.9,-875.3,127.17
2025-09-08 19:49:23.269,-0.008,-0.035,1.003,0.0,-0.0,0.0,-165.1,470.5,-879.8,126.77
2025-09-08 19:49:23.280,-0.008,-0.036,1.003,0.0,-0.0,0.0,-170.2,469.3,-881.4,126.17
2025-09-08 19:49:23.291,-0.008,-0.036,1.004,0.0,-0.0,0.0,-171.8,475.0,-880.5,126.05
2025-09-08 19:49:23.302,-0.008,-0.036,1.003,0.0,-0.0,0.0,-170.5,475.0,-879.1,126.76
2025-09-08 19:49:23.313,-0.008,-0.034,1.004,0.0,-0.0,0.0,-170.7,475.6,-873.6,126.44
2025-09-08 19:49:23.324,-0.008,-0.035,1.004,0.0,-0.0,0.0,-170.7,475.6,-873.6,126.56
2025-09-08 19:49:23.335,-0.007,-0.035,1.004,0.0,-0.0,0.0,-165.6,472.4,-882.7,126.39
2025-09-08 19:49:23.346,-0.007,-0.035,1.005,0.0,-0.0,0.0,-169.8,474.0,-877.2,126.36
2025-09-08 19:49:23.357,-0.009,-0.036,1.003,0.0,-0.0,0.0,-172.5,472.2,-875.6,126.31
2025-09-08 19:49:23.368,-0.008,-0.036,1.004,0.0,-0.0,0.0,-168.1,471.4,-877.9,126.67
2025-09-08 19:49:23.379,-0.007,-0.035,1.004,0.0,-0.0,0.0,-164.9,473.8,-879.2,126.42
2025-09-08 19:49:23.390,-0.008,-0.034,1.004,0.0,-0.0,0.0,-167.3,474.6,-877.8,126.43
2025-09-08 19:49:23.401,-0.008,-0.035,1.004,0.0,-0.0,0.0,-167.3,474.6,-874.4,126.6
2025-09-08 19:49:23.412,-0.008,-0.036,1.003,0.0,-0.0,0.0,-169.4,474.7,-874.4,126.51
2025-09-08 19:49:23.423,-0.008,-0.035,1.005,0.0,-0.0,0.0,-164.6,471.7,-876.3,125.89
2025-09-08 19:49:23.434,-0.007,-0.036,1.004,0.0,-0.0,0.0,-170.7,473.9,-878.9,126.77
2025-09-08 19:49:23.445,-0.007,-0.034,1.002,0.0,-0.0,0.0,-166.3,476.4,-872.9,126.97
2025-09-08 19:49:23.456,-0.009,-0.035,1.005,0.0,-0.0,0.0,-166.5,476.1,-876.4,127.14
2025-09-08 19:49:23.467,-0.008,-0.034,1.005,0.0,-0.0,0.0,-167.3,473.9,-875.6,126.21
2025-09-08 19:49:23.478,-0.008,-0.035,1.004,0.0,-0.0,0.0,-167.3,478.0,-879.8,125.86
2025-09-08 19:49:23.489,-0.008,-0.035,1.004,0.0,-0.0,0.0,-165.2,478.0,-879.8,126.37
2025-09-08 19:49:23.500,-0.009,-0.035,1.003,0.0,-0.0,0.0,-164.2,478.2,-882.4,126.78
2025-09-08 19:49:23.511,-0.008,-0.036,1.002,0.0,-0.0,0.0,-164.4,477.3,-883.3,127.01
2025-09-08 19:49:23.522,-0.007,-0.036,1.004,0.0,-0.0,0.0,-166.2,476.7,-877.7,125.9
2025-09-08 19:49:23.533,-0.009,-0.036,1.003,0.0,-0.0,0.0,-164.4,477.7,-875.4,126.22
2025-09-08 19:49:23.544,-0.007,-0.035,1.003,0.0,-0.0,0.0,-164.1,479.6,-877.7,126.52
2025-09-08 19:49:23.555,-0.007,-0.034,1.005,0.0,-0.0,0.0,-165.2,475.9,-881.0,126.62
2025-09-08 19:49:23.566,-0.007,-0.036,1.006,0.0,-0.0,0.0,-165.2,475.9,-881.0,126.14
2025-09-08 19:49:23.577,-0.008,-0.035,1.004,0.0,-0.0,0.0,-167.7,478.9,-881.9,126.63
2025-09-08 19:49:23.588,-0.008,-0.035,1.004,0.0,-0.0,0.0,-170.0,474.6,-877.1,126.66
2025-09-08 19:49:23.599,-0.009,-0.034,1.004,0.0,-0.0,0.0,-165.9,479.1,-879.9,126.55
2025-09-08 19:49:23.610,-0.008,-0.035,1.004,0.0,-0.0,0.0,-162.7,475.2,-876.7,126.27
2025-09-08 19:49:23.621,-0.008,-0.035,1.004,0.0,-0.0,0.0,-168.6,477.3,-873.9,126.42
2025-09-08 19:49:23.632,-0.009,-0.036,1.004,0.0,-0.0,0.0,-167.2,478.4,-881.2,126.27
2025-09-08 19:49:23.643,-0.007,-0.036,1.004,0.0,-0.0,0.0,-167.2,478.4,-881.2,126.61
2025-09-08 19:49:23.654,-0.007,-0.034,1.005,0.0,-0.0,0.0,-165.1,476.3,-877.0,126.34
2025-09-08 19:49:23.665,-0.007,-0.035,1.005,0.0,-0.0,0.0,-161.7,481.2,-872.9,126.76
2025-09-08 19:49:23.676,-0.009,-0.035,1.004,0.0,-0.0,0.0,-164.5,478.4,-876.5,126.65
2025-09-08 19:49:23.687,-0.008,-0.035,1.005,0.0,-0.0,0.0,-169.3,478.0,-881.0,126.45
2025-09-08 19:49:23.698,-0.008,-0.036,1.003,0.0,-0.0,0.0,-165.8,473.8,-877.5,126.34
2025-09-08 19:49:23.709,-0.007,-0.035,1.003,0.0,-0.0,0.0,-166.3,476.1,-877.8,126.62
2025-09-08 19:49:23.720,-0.009,-0.037,1.003,0.0,-0.0,0.0,-166.3,476.1,-877.8,126.3
2025-09-08 19:49:23.731,-0.009,-0.034,1.004,0.0,-0.0,0.0,-168.8,479.5,-874.4,127.07
2025-09-08 19:49:23.744,-0.007,-0.035,1.003,0.0,-0.0,0.0,-167.2,475.2,-875.1,126.68
2025-09-08 19:49:23.753,-0.006,-0.035,1.004,0.0,-0.0,0.0,-168.4,472.8,-876.3,126.11
2025-09-08 19:49:23.764,-0.008,-0.034,1.003,0.0,-0.0,0.0,-164.5,473.5,-871.6,126.68
2025-09-08 19:49:23.775,-0.008,-0.036,1.004,0.0,-0.0,0.0,-163.2,478.1,-875.8,126.93
2025-09-08 19:49:23.786,-0.007,-0.036,1.005,0.0,-0.0,0.0,-165.2,481.0,-876.0,126.8
2025-09-08 19:49:23.797,-0.008,-0.035,1.004,0.0,-0.0,0.0,-165.2,481.0,-876.0,127.11
2025-09-08 19:49:23.808,-0.008,-0.035,1.005,0.0,-0.0,0.0,-168.0,480.6,-880.2,126.27
2025-09-08 19:49:23.819,-0.008,-0.036,1.003,0.0,-0.0,0.0,-164.6,479.4,-875.0,126.44
2025-09-08 19:49:23.830,-0.007,-0.035,1.004,0.0,-0.0,0.0,-164.5,476.3,-871.1,126.4
2025-09-08 19:49:23.842,-0.008,-0.035,1.004,0.0,-0.0,0.0,-167.0,478.0,-876.1,127.17
2025-09-08 19:49:23.856,-0.008,-0.034,1.004,0.0,-0.0,0.0,-167.0,481.6,-875.1,126.69
2025-09-08 19:49:23.863,-0.008,-0.035,1.004,0.0,-0.0,0.0,-167.6,478.9,-874.9,126.53
2025-09-08 19:49:23.876,-0.008,-0.036,1.003,0.0,-0.0,0.0,-167.6,478.9,-874.9,126.53
2025-09-08 19:49:23.885,-0.007,-0.035,1.005,0.0,-0.0,0.0,-168.0,475.2,-870.0,126.16
2025-09-08 19:49:23.897,-0.008,-0.035,1.003,0.0,-0.0,0.0,-167.2,473.8,-873.5,126.51
2025-09-08 19:49:23.907,-0.007,-0.035,1.004,0.0,-0.0,0.0,-169.1,471.5,-870.9,126.31
2025-09-08 19:49:23.918,-0.007,-0.034,1.003,0.0,-0.0,0.0,-167.7,477.7,-869.7,125.98
2025-09-08 19:49:23.929,-0.008,-0.034,1.004,0.0,-0.0,0.0,-163.9,476.3,-872.6,127.13
2025-09-08 19:49:23.941,-0.008,-0.035,1.004,0.0,-0.0,0.0,-166.0,477.3,-871.2,126.92
2025-09-08 19:49:23.953,-0.009,-0.034,1.004,0.0,-0.0,0.0,-166.0,477.3,-871.2,126.37
2025-09-08 19:49:23.962,-0.007,-0.036,1.003,0.0,-0.0,0.0,-166.2,475.7,-877.4,127.26
2025-09-08 19:49:23.973,-0.007,-0.035,1.004,0.0,-0.0,0.0,-164.4,480.1,-873.5,126.51
2025-09-08 19:49:23.988,-0.007,-0.036,1.003,0.0,-0.0,0.0,-162.8,477.4,-873.7,126.54
2025-09-08 19:49:23.995,-0.008,-0.036,1.003,0.0,-0.0,0.0,-166.3,480.6,-874.4,126.26
2025-09-08 19:49:24.006,-0.008,-0.034,1.004,0.0,-0.0,0.0,-164.9,477.8,-876.5,126.3
2025-09-08 19:49:24.017,-0.008,-0.035,1.003,0.0,-0.0,0.0,-163.4,479.2,-876.4,125.9
2025-09-08 19:49:24.028,-0.008,-0.034,1.004,0.0,-0.0,0.0,-163.4,479.2,-876.4,126.47
2025-09-08 19:49:24.039,-0.008,-0.035,1.004,0.0,-0.0,0.0,-170.4,476.6,-875.6,126.08
2025-09-08 19:49:24.050,-0.007,-0.034,1.003,0.0,-0.0,0.0,-166.5,474.6,-869.5,127.01
2025-09-08 19:49:24.064,-0.008,-0.035,1.004,0.0,-0.0,0.0,-167.9,475.2,-870.0,127.02
2025-09-08 19:49:24.076,-0.009,-0.034,1.005,0.0,-0.0,0.0,-165.2,479.6,-872.5,125.87
2025-09-08 19:49:24.083,-0.008,-0.035,1.004,0.0,-0.0,0.0,-167.9,479.1,-870.4,127.07
2025-09-08 19:49:24.094,-0.008,-0.035,1.004,0.0,-0.0,0.0,-166.3,481.3,-868.8,126.75
2025-09-08 19:49:24.105,-0.008,-0.035,1.005,0.0,-0.0,0.0,-166.3,481.3,-868.8,127.21
2025-09-08 19:49:24.116,-0.008,-0.035,1.004,0.0,-0.0,0.0,-164.4,477.3,-873.9,126.84
2025-09-08 19:49:24.130,-0.008,-0.035,1.004,0.0,-0.0,0.0,-165.6,477.3,-875.1,126.47
2025-09-08 19:49:24.138,-0.008,-0.035,1.004,0.0,-0.0,0.0,-165.9,478.8,-872.2,126.41
2025-09-08 19:49:24.149,-0.008,-0.035,1.004,0.0,-0.0,0.0,-166.3,478.8,-871.8,126.4
2025-09-08 19:49:24.162,-0.008,-0.035,1.004,0.0,-0.0,0.0,-166.2,480.1,-873.5,126.04
2025-09-08 19:49:24.171,-0.008,-0.035,1.005,0.0,-0.0,0.0,-165.9,476.0,-872.9,126.3
2025-09-08 19:49:24.182,-0.007,-0.036,1.005,0.0,-0.0,0.0,-165.9,476.0,-867.0,126.53
2025-09-08 19:49:24.194,-0.009,-0.036,1.004,0.0,-0.0,0.0,-163.2,476.0,-867.0,126.67
2025-09-08 19:49:24.209,-0.008,-0.036,1.005,0.0,-0.0,0.0,-165.2,479.2,-868.7,126.77
2025-09-08 19:49:24.220,-0.007,-0.035,1.004,0.0,-0.0,0.0,-165.8,478.5,-867.4,126.5
2025-09-08 19:49:24.229,-0.008,-0.035,1.003,0.0,-0.0,0.0,-168.0,478.5,-870.1,126.43
2025-09-08 19:49:24.238,-0.007,-0.035,1.003,0.0,-0.0,0.0,-164.4,479.1,-867.2,127.31
2025-09-08 19:49:24.249,-0.008,-0.035,1.004,0.0,-0.0,0.0,-168.1,478.2,-869.7,126.16
2025-09-08 19:49:24.259,-0.008,-0.034,1.003,0.0,-0.0,0.0,-168.1,477.1,-874.2,126.68
2025-09-08 19:49:24.270,-0.008,-0.035,1.005,0.0,-0.0,0.0,-167.4,477.1,-874.2,126.76
2025-09-08 19:49:24.281,-0.008,-0.036,1.003,0.0,-0.0,0.0,-167.9,484.5,-874.4,126.09
2025-09-08 19:49:24.292,-0.008,-0.034,1.003,0.0,-0.0,0.0,-165.2,478.8,-867.3,126.36
2025-09-08 19:49:24.303,-0.008,-0.034,1.004,0.0,-0.0,0.0,-167.6,480.6,-870.1,127.55
2025-09-08 19:49:24.314,-0.007,-0.034,1.004,0.0,-0.0,0.0,-165.1,480.9,-872.5,126.61
2025-09-08 19:49:24.325,-0.008,-0.034,1.002,0.0,-0.0,0.0,-167.2,476.1,-869.8,126.45
2025-09-08 19:49:24.336,-0.008,-0.035,1.004,0.0,-0.0,0.0,-166.2,478.8,-866.2,126.35
2025-09-08 19:49:24.347,-0.008,-0.035,1.004,0.0,-0.0,0.0,-166.2,478.8,-866.2,126.48
2025-09-08 19:49:24.359,-0.007,-0.035,1.003,0.0,-0.0,0.0,-167.3,477.8,-879.1,126.39
2025-09-08 19:49:24.369,-0.008,-0.036,1.005,0.0,-0.0,0.0,-164.1,477.8,-876.7,126.61
2025-09-08 19:49:24.380,-0.008,-0.036,1.003,0.0,-0.0,0.0,-166.0,477.4,-877.0,126.46
2025-09-08 19:49:24.391,-0.006,-0.036,1.002,0.0,-0.0,0.0,-163.5,480.8,-877.7,126.84
2025-09-08 19:49:24.408,-0.008,-0.036,1.003,0.0,-0.0,0.0,-167.3,478.1,-875.6,126.62
2025-09-08 19:49:24.419,-0.008,-0.035,1.005,0.0,-0.0,0.0,-172.1,479.2,-874.0,126.24
2025-09-08 19:49:24.430,-0.008,-0.035,1.003,0.0,-0.0,0.0,-172.1,479.2,-874.0,126.48
2025-09-08 19:49:24.440,-0.007,-0.035,1.004,0.0,-0.0,0.0,-168.4,481.2,-873.3,126.82
2025-09-08 19:49:24.447,-0.007,-0.035,1.005,0.0,-0.0,0.0,-164.5,480.5,-878.1,126.7
2025-09-08 19:49:24.457,-0.008,-0.035,1.003,0.0,-0.0,0.0,-164.2,480.2,-875.6,126.75
2025-09-08 19:49:24.469,-0.007,-0.034,1.003,0.0,-0.0,0.0,-166.3,480.3,-876.3,126.19
2025-09-08 19:49:24.484,-0.007,-0.035,1.006,0.0,-0.0,0.0,-164.5,477.4,-871.8,126.44
2025-09-08 19:49:24.490,-0.007,-0.036,1.004,0.0,-0.0,0.0,-168.7,479.6,-873.0,126.09
2025-09-08 19:49:24.502,-0.008,-0.035,1.004,0.0,-0.0,0.0,-168.7,479.6,-873.0,126.6
2025-09-08 19:49:24.514,-0.009,-0.036,1.005,0.0,-0.0,0.0,-167.3,479.2,-873.7,126.96
2025-09-08 19:49:24.523,-0.008,-0.036,1.005,0.0,-0.0,0.0,-167.9,481.0,-871.2,126.32
2025-09-08 19:49:24.535,-0.006,-0.034,1.003,0.0,-0.0,0.0,-165.5,478.8,-877.5,126.51
2025-09-08 19:49:24.546,-0.008,-0.034,1.004,0.0,-0.0,0.0,-164.6,477.4,-876.4,126.3
2025-09-08 19:49:24.557,-0.008,-0.034,1.004,0.0,-0.0,0.0,-164.6,475.4,-869.0,126.69
2025-09-08 19:49:24.569,-0.008,-0.035,1.002,0.0,-0.0,0.0,-163.7,474.5,-880.0,126.7
2025-09-08 19:49:24.596,-0.009,-0.035,1.003,0.0,-0.0,0.0,-163.7,474.5,-880.0,126.34
2025-09-08 19:49:24.606,-0.007,-0.035,1.005,0.0,-0.0,0.0,-160.9,476.7,-880.7,126.47
2025-09-08 19:49:24.610,-0.007,-0.036,1.005,0.0,-0.0,0.0,-165.6,474.5,-877.1,126.47
2025-09-08 19:49:24.618,-0.008,-0.034,1.004,0.0,-0.0,0.0,-163.1,479.6,-875.4,126.14
2025-09-08 19:49:24.623,-0.007,-0.034,1.005,0.0,-0.0,0.0,-162.5,477.3,-875.3,126.09
2025-09-08 19:49:24.634,-0.008,-0.036,1.004,0.0,-0.0,0.0,-167.0,477.8,-879.2,126.58
2025-09-08 19:49:24.645,-0.008,-0.035,1.002,0.0,-0.0,0.0,-164.8,480.6,-876.3,126.78
2025-09-08 19:49:24.656,-0.008,-0.036,1.004,0.0,-0.0,0.0,-164.8,480.6,-876.3,126.59
2025-09-08 19:49:24.667,-0.008,-0.035,1.004,0.0,-0.0,0.0,-164.4,478.1,-875.3,126.99
2025-09-08 19:49:24.678,-0.008,-0.035,1.004,0.0,-0.0,0.0,-162.5,476.4,-877.1,126.69
2025-09-08 19:49:24.688,-0.007,-0.033,1.004,0.0,-0.0,0.0,-167.9,477.1,-871.6,126.41
2025-09-08 19:49:24.699,-0.009,-0.035,1.004,0.0,-0.0,0.0,-166.2,478.5,-875.8,126.37
2025-09-08 19:49:24.710,-0.007,-0.034,1.004,0.0,-0.0,0.0,-164.6,483.7,-873.7,126.77
2025-09-08 19:49:24.721,-0.008,-0.035,1.005,0.0,-0.0,0.0,-171.1,478.0,-873.5,126.46
2025-09-08 19:49:24.732,-0.007,-0.034,1.003,0.0,-0.0,0.0,-171.1,478.0,-873.5,126.75
2025-09-08 19:49:24.744,-0.008,-0.035,1.003,0.0,-0.0,0.0,-168.7,478.1,-877.4,126.89
2025-09-08 19:49:24.754,-0.007,-0.034,1.005,0.0,-0.0,0.0,-168.7,479.4,-881.4,126.69
2025-09-08 19:49:24.766,-0.008,-0.036,1.004,0.0,-0.0,0.0,-165.2,474.3,-879.2,126.54
2025-09-08 19:49:24.778,-0.008,-0.036,1.005,0.0,-0.0,0.0,-165.9,479.6,-874.7,126.29
2025-09-08 19:49:24.787,-0.009,-0.036,1.003,0.0,-0.0,0.0,-170.4,477.3,-876.7,126.98
2025-09-08 19:49:24.799,-0.008,-0.035,1.002,0.0,-0.0,0.0,-168.6,480.8,-879.1,126.48
2025-09-08 19:49:24.809,-0.007,-0.034,1.004,0.0,-0.0,0.0,-168.6,480.8,-879.1,126.6
2025-09-08 19:49:24.820,-0.007,-0.035,1.004,0.0,-0.0,0.0,-164.5,479.6,-876.0,127.14
2025-09-08 19:49:24.832,-0.007,-0.035,1.003,0.0,-0.0,0.0,-168.0,478.0,-876.8,126.49
2025-09-08 19:49:24.843,-0.008,-0.035,1.003,0.0,-0.0,0.0,-166.3,478.2,-879.3,125.99
2025-09-08 19:49:24.854,-0.007,-0.035,1.005,0.0,-0.0,0.0,-167.3,477.4,-876.5,126.66
2025-09-08 19:49:24.864,-0.006,-0.036,1.004,0.0,-0.0,0.0,-164.4,477.8,-877.9,126.58
2025-09-08 19:49:24.875,-0.009,-0.035,1.003,0.0,-0.0,0.0,-164.9,479.5,-875.7,127.06
2025-09-08 19:49:24.886,-0.008,-0.037,1.003,0.0,-0.0,0.0,-164.9,479.5,-875.7,126.77
2025-09-08 19:49:24.897,-0.008,-0.035,1.004,0.0,-0.0,0.0,-163.7,478.0,-871.5,126.21
2025-09-08 19:49:24.908,-0.008,-0.035,1.003,0.0,-0.0,0.0,-166.9,479.2,-867.7,126.42
2025-09-08 19:49:24.920,-0.008,-0.036,1.004,0.0,-0.0,0.0,-166.3,479.9,-875.1,126.45
2025-09-08 19:49:24.931,-0.008,-0.035,1.004,0.0,-0.0,0.0,-161.3,477.1,-877.5,126.94
2025-09-08 19:49:24.941,-0.008,-0.036,1.002,0.0,-0.0,0.0,-167.6,473.9,-883.5,126.95
2025-09-08 19:49:24.952,-0.007,-0.035,1.004,0.0,-0.0,0.0,-168.4,476.6,-876.4,126.76
2025-09-08 19:49:24.963,-0.007,-0.035,1.005,0.0,-0.0,0.0,-168.4,476.6,-873.0,125.87
2025-09-08 19:49:24.974,-0.007,-0.036,1.003,0.0,-0.0,0.0,-168.1,473.1,-873.0,126.66
2025-09-08 19:49:24.985,-0.008,-0.035,1.003,0.0,-0.0,0.0,-167.2,478.4,-867.4,126.32
2025-09-08 19:49:24.997,-0.006,-0.035,1.004,0.0,-0.0,0.0,-170.8,476.4,-877.0,126.46
2025-09-08 19:49:25.007,-0.008,-0.034,1.004,0.0,-0.0,0.0,-165.9,473.1,-878.6,126.19
2025-09-08 19:49:25.018,-0.008,-0.035,1.003,0.0,-0.0,0.0,-166.6,474.0,-880.5,126.13
2025-09-08 19:49:25.029,-0.008,-0.036,1.004,0.0,-0.0,0.0,-168.3,476.1,-876.4,126.46
2025-09-08 19:49:25.040,-0.008,-0.035,1.004,0.0,-0.0,0.0,-168.3,475.3,-875.8,126.89
2025-09-08 19:49:25.051,-0.007,-0.034,1.004,0.0,-0.0,0.0,-170.8,475.3,-875.8,126.5
2025-09-08 19:49:25.062,-0.008,-0.035,1.004,0.0,-0.0,0.0,-166.2,484.0,-870.9,126.92
2025-09-08 19:49:25.073,-0.007,-0.036,1.004,0.0,-0.0,0.0,-166.9,474.7,-875.7,126.44
2025-09-08 19:49:25.084,-0.008,-0.035,1.003,0.0,-0.0,0.0,-163.8,478.4,-864.6,126.14
2025-09-08 19:49:25.095,-0.008,-0.033,1.003,0.0,-0.0,0.0,-167.0,477.7,-872.8,126.87
2025-09-08 19:49:25.106,-0.008,-0.036,1.003,0.0,-0.0,0.0,-166.0,473.5,-877.1,126.45
2025-09-08 19:49:25.117,-0.007,-0.035,1.003,0.0,-0.0,0.0,-166.0,478.5,-878.9,126.68
2025-09-08 19:49:25.128,-0.008,-0.035,1.005,0.0,-0.0,0.0,-167.3,478.5,-878.9,126.76
2025-09-08 19:49:25.139,-0.008,-0.035,1.004,0.0,-0.0,0.0,-161.8,475.2,-872.9,126.71
2025-09-08 19:49:25.150,-0.008,-0.036,1.003,0.0,-0.0,0.0,-163.5,476.3,-879.9,126.08
2025-09-08 19:49:25.161,-0.008,-0.035,1.003,0.0,-0.0,0.0,-162.7,479.9,-884.0,126.51
2025-09-08 19:49:25.172,-0.006,-0.034,1.003,0.0,-0.0,0.0,-159.5,477.1,-884.4,127.0
2025-09-08 19:49:25.183,-0.008,-0.034,1.004,0.0,-0.0,0.0,-160.9,480.2,-880.2,126.57
2025-09-08 19:49:25.194,-0.008,-0.035,1.005,0.0,-0.0,0.0,-163.8,478.1,-878.6,126.97
2025-09-08 19:49:25.205,-0.008,-0.035,1.002,0.0,-0.0,0.0,-163.8,478.1,-878.6,126.35
2025-09-08 19:49:25.216,-0.008,-0.035,1.003,0.0,-0.0,0.0,-161.3,479.2,-877.8,126.29
2025-09-08 19:49:25.227,-0.008,-0.036,1.004,0.0,-0.0,0.0,-160.9,477.7,-883.3,126.78
2025-09-08 19:49:25.238,-0.008,-0.035,1.006,0.0,-0.0,0.0,-166.9,481.9,-880.6,126.42
2025-09-08 19:49:25.249,-0.007,-0.034,1.004,0.0,-0.0,0.0,-168.7,482.6,-878.5,126.83
2025-09-08 19:49:25.260,-0.007,-0.036,1.003,0.0,-0.0,0.0,-166.5,482.3,-879.8,126.76
2025-09-08 19:49:25.271,-0.009,-0.036,1.003,0.0,-0.0,0.0,-155.8,485.4,-881.2,127.04
2025-09-08 19:49:25.282,-0.008,-0.036,1.004,0.0,-0.0,0.0,-155.8,485.4,-881.2,126.48
2025-09-08 19:49:25.294,-0.007,-0.036,1.006,0.0,-0.0,0.0,-169.3,480.1,-877.2,127.22
2025-09-08 19:49:25.305,-0.007,-0.035,1.004,0.0,-0.0,0.0,-167.6,481.2,-874.2,126.24
2025-09-08 19:49:25.315,-0.008,-0.035,1.004,0.0,-0.0,0.0,-167.6,479.1,-873.9,126.12
2025-09-08 19:49:25.326,-0.009,-0.036,1.004,0.0,-0.0,0.0,-167.0,477.7,-882.4,126.11
2025-09-08 19:49:25.338,-0.007,-0.035,1.005,0.0,-0.0,0.0,-169.7,481.2,-879.2,125.83
2025-09-08 19:49:25.348,-0.009,-0.035,1.003,0.0,-0.0,0.0,-168.7,479.2,-876.1,125.78
2025-09-08 19:49:25.359,-0.007,-0.035,1.005,0.0,-0.0,0.0,-168.7,479.2,-876.1,126.41
2025-09-08 19:49:25.370,-0.007,-0.036,1.005,0.0,-0.0,0.0,-167.4,476.4,-875.7,126.85
2025-09-08 19:49:25.383,-0.008,-0.035,1.004,0.0,-0.0,0.0,-165.1,475.6,-871.2,126.62
2025-09-08 19:49:25.393,-0.007,-0.035,1.003,0.0,-0.0,0.0,-167.7,479.9,-879.6,126.59
2025-09-08 19:49:25.403,-0.008,-0.036,1.005,0.0,-0.0,0.0,-168.4,478.4,-878.1,126.58
2025-09-08 19:49:25.415,-0.007,-0.035,1.004,0.0,-0.0,0.0,-163.8,477.1,-876.3,126.5
2025-09-08 19:49:25.427,-0.007,-0.035,1.003,0.0,-0.0,0.0,-164.4,477.3,-880.5,126.8
2025-09-08 19:49:25.437,-0.007,-0.035,1.004,0.0,-0.0,0.0,-164.4,477.3,-880.5,126.77
2025-09-08 19:49:25.448,-0.009,-0.035,1.005,0.0,-0.0,0.0,-164.2,482.0,-876.4,126.46
2025-09-08 19:49:25.458,-0.009,-0.036,1.003,0.0,-0.0,0.0,-166.2,481.5,-878.6,126.32
2025-09-08 19:49:25.469,-0.008,-0.036,1.004,0.0,-0.0,0.0,-165.1,478.8,-873.6,125.74
2025-09-08 19:49:25.481,-0.009,-0.035,1.004,0.0,-0.0,0.0,-165.6,478.4,-876.5,126.11
2025-09-08 19:49:25.491,-0.009,-0.034,1.002,0.0,-0.0,0.0,-169.3,478.8,-881.0,126.56
2025-09-08 19:49:25.502,-0.006,-0.035,1.004,0.0,-0.0,0.0,-167.4,478.5,-886.5,126.99
2025-09-08 19:49:25.513,-0.007,-0.035,1.005,0.0,-0.0,0.0,-167.4,478.5,-886.5,126.49
2025-09-08 19:49:25.524,-0.007,-0.035,1.003,0.0,-0.0,0.0,-171.2,476.3,-881.4,126.33
2025-09-08 19:49:25.535,-0.007,-0.035,1.004,0.0,-0.0,0.0,-165.5,477.5,-880.0,126.6
2025-09-08 19:49:25.546,-0.008,-0.035,1.003,0.0,-0.0,0.0,-171.2,477.1,-887.0,126.59
2025-09-08 19:49:25.557,-0.008,-0.035,1.003,0.0,-0.0,0.0,-167.0,477.0,-883.5,126.28
2025-09-08 19:49:25.568,-0.008,-0.036,1.004,0.0,-0.0,0.0,-163.9,476.3,-884.5,126.08
2025-09-08 19:49:25.579,-0.008,-0.036,1.004,0.0,-0.0,0.0,-165.2,473.6,-876.3,126.16
2025-09-08 19:49:25.590,-0.007,-0.035,1.003,0.0,-0.0,0.0,-165.2,473.6,-876.3,126.69
2025-09-08 19:49:25.601,-0.007,-0.034,1.005,0.0,-0.0,0.0,-166.0,475.9,-885.8,126.36
2025-09-08 19:49:25.612,-0.007,-0.036,1.004,0.0,-0.0,0.0,-165.6,477.3,-885.1,126.03
2025-09-08 19:49:25.623,-0.008,-0.035,1.003,0.0,-0.0,0.0,-163.9,479.2,-880.9,126.66
2025-09-08 19:49:25.634,-0.007,-0.036,1.003,0.0,-0.0,0.0,-164.8,479.4,-880.0,125.96
2025-09-08 19:49:25.645,-0.008,-0.035,1.004,0.0,-0.0,0.0,-164.8,477.7,-882.8,125.86
2025-09-08 19:49:25.656,-0.007,-0.034,1.005,0.0,-0.0,0.0,-165.3,481.9,-883.5,126.52
2025-09-08 19:49:25.669,-0.008,-0.035,1.002,0.0,-0.0,0.0,-165.3,481.9,-883.5,126.66
2025-09-08 19:49:25.678,-0.008,-0.035,1.004,0.0,-0.0,0.0,-164.9,484.7,-882.3,125.97
2025-09-08 19:49:25.689,-0.007,-0.036,1.005,0.0,-0.0,0.0,-164.9,480.8,-880.7,126.37
2025-09-08 19:49:25.700,-0.007,-0.035,1.004,0.0,-0.0,0.0,-169.1,481.5,-879.8,126.34
2025-09-08 19:49:25.712,-0.008,-0.035,1.002,0.0,-0.0,0.0,-166.0,483.0,-885.6,126.46
2025-09-08 19:49:25.722,-0.007,-0.035,1.005,0.0,-0.0,0.0,-165.1,482.3,-883.3,127.1
2025-09-08 19:49:25.733,-0.009,-0.034,1.005,0.0,-0.0,0.0,-165.2,480.2,-881.0,126.14
2025-09-08 19:49:25.744,-0.007,-0.035,1.004,0.0,-0.0,0.0,-165.2,480.2,-879.1,126.82
2025-09-08 19:49:25.755,-0.007,-0.035,1.002,0.0,-0.0,0.0,-166.5,479.4,-879.1,126.45
2025-09-08 19:49:25.766,-0.008,-0.035,1.003,0.0,-0.0,0.0,-165.1,483.0,-874.6,126.95
2025-09-08 19:49:25.777,-0.007,-0.036,1.003,0.0,-0.0,0.0,-162.5,479.1,-879.5,126.55
2025-09-08 19:49:25.788,-0.007,-0.034,1.003,0.0,-0.0,0.0,-166.7,476.8,-877.2,126.09
2025-09-08 19:49:25.799,-0.009,-0.035,1.005,0.0,-0.0,0.0,-168.6,482.0,-875.7,126.07
2025-09-08 19:49:25.810,-0.008,-0.035,1.005,0.0,-0.0,0.0,-166.5,477.5,-880.7,126.4
2025-09-08 19:49:25.821,-0.007,-0.036,1.002,0.0,-0.0,0.0,-166.5,473.9,-882.7,126.14
2025-09-08 19:49:25.832,-0.007,-0.035,1.004,0.0,-0.0,0.0,-168.0,473.9,-882.7,125.79
2025-09-08 19:49:25.843,-0.007,-0.036,1.005,0.0,-0.0,0.0,-164.8,479.2,-882.4,126.74
2025-09-08 19:49:25.854,-0.008,-0.036,1.004,0.0,-0.0,0.0,-164.8,480.8,-880.7,126.88
2025-09-08 19:49:25.865,-0.008,-0.036,1.003,0.0,-0.0,0.0,-166.9,479.2,-877.9,126.77
2025-09-08 19:49:25.876,-0.008,-0.036,1.004,0.0,-0.0,0.0,-166.5,479.5,-885.4,126.43
2025-09-08 19:49:25.887,-0.007,-0.035,1.003,0.0,-0.0,0.0,-169.0,480.9,-877.5,126.37
2025-09-08 19:49:25.898,-0.008,-0.035,1.004,0.0,-0.0,0.0,-162.8,478.5,-880.0,126.61
2025-09-08 19:49:25.909,-0.009,-0.036,1.003,0.0,-0.0,0.0,-162.8,478.5,-880.0,125.9
2025-09-08 19:49:25.920,-0.008,-0.035,1.004,0.0,-0.0,0.0,-162.8,482.4,-880.7,127.01
2025-09-08 19:49:25.931,-0.008,-0.035,1.003,0.0,-0.0,0.0,-164.1,479.9,-877.5,126.42
2025-09-08 19:49:25.942,-0.007,-0.035,1.004,0.0,-0.0,0.0,-170.7,481.6,-875.0,126.08
2025-09-08 19:49:25.953,-0.007,-0.035,1.004,0.0,-0.0,0.0,-165.8,480.6,-875.4,126.7
2025-09-08 19:49:25.964,-0.007,-0.034,1.003,0.0,-0.0,0.0,-165.2,478.0,-885.5,126.33
2025-09-08 19:49:25.975,-0.008,-0.036,1.003,0.0,-0.0,0.0,-161.6,475.3,-881.9,126.47
2025-09-08 19:49:25.986,-0.008,-0.036,1.003,0.0,-0.0,0.0,-161.6,475.3,-881.9,126.91
2025-09-08 19:49:25.997,-0.007,-0.036,1.005,0.0,-0.0,0.0,-166.2,478.2,-881.7,126.66
2025-09-08 19:49:26.008,-0.008,-0.034,1.002,0.0,-0.0,0.0,-164.2,478.1,-878.5,126.17
2025-09-08 19:49:26.019,-0.008,-0.035,1.004,0.0,-0.0,0.0,-162.1,480.5,-882.4,125.99
2025-09-08 19:49:26.030,-0.009,-0.035,1.004,0.0,-0.0,0.0,-163.9,480.6,-882.4,127.5
2025-09-08 19:49:26.041,-0.007,-0.035,1.004,0.0,-0.0,0.0,-170.2,483.7,-881.3,126.57
2025-09-08 19:49:26.052,-0.007,-0.035,1.004,0.0,-0.0,0.0,-165.3,484.3,-880.5,126.55
2025-09-08 19:49:26.063,-0.007,-0.035,1.003,0.0,-0.0,0.0,-165.3,484.3,-880.5,127.05
2025-09-08 19:49:26.074,-0.009,-0.035,1.002,0.0,-0.0,0.0,-166.9,481.3,-883.0,126.63
2025-09-08 19:49:26.085,-0.008,-0.036,1.003,0.0,-0.0,0.0,-163.5,488.6,-878.6,125.82
2025-09-08 19:49:26.096,-0.007,-0.035,1.004,0.0,-0.0,0.0,-169.1,484.8,-878.6,126.32
2025-09-08 19:49:26.107,-0.008,-0.035,1.003,0.0,-0.0,0.0,-167.9,484.5,-881.6,127.22
2025-09-08 19:49:26.118,-0.007,-0.035,1.006,0.0,-0.0,0.0,-166.7,483.6,-880.9,126.44
2025-09-08 19:49:26.129,-0.008,-0.035,1.003,0.0,-0.0,0.0,-165.5,484.3,-886.8,126.8
2025-09-08 19:49:26.140,-0.007,-0.036,1.002,0.0,-0.0,0.0,-165.5,484.3,-886.8,126.8
2025-09-08 19:49:26.151,-0.008,-0.035,1.003,0.0,-0.0,0.0,-165.2,484.3,-877.5,126.53
2025-09-08 19:49:26.162,-0.007,-0.034,1.004,0.0,-0.0,0.0,-168.4,483.3,-873.0,126.27
2025-09-08 19:49:26.173,-0.008,-0.035,1.003,0.0,-0.0,0.0,-170.7,484.7,-879.5,126.87
2025-09-08 19:49:26.184,-0.007,-0.036,1.005,0.0,-0.0,0.0,-170.8,481.3,-876.4,126.32
2025-09-08 19:49:26.195,-0.007,-0.035,1.003,0.0,-0.0,0.0,-170.9,481.9,-881.0,126.48
2025-09-08 19:49:26.206,-0.008,-0.036,1.001,0.0,-0.0,0.0,-167.7,481.6,-885.2,126.3
2025-09-08 19:49:26.217,-0.007,-0.034,1.008,0.0,-0.0,0.0,-167.7,481.6,-885.2,126.48
2025-09-08 19:49:26.228,-0.008,-0.036,1.004,0.0,-0.0,0.0,-168.8,479.8,-885.5,126.99
2025-09-08 19:49:26.240,-0.008,-0.034,1.003,0.0,-0.0,0.0,-168.0,482.0,-880.5,126.1
2025-09-08 19:49:26.250,-0.007,-0.035,1.002,0.0,-0.0,0.0,-166.5,482.3,-881.4,126.81
2025-09-08 19:49:26.261,-0.007,-0.034,1.005,0.0,-0.0,0.0,-167.4,480.3,-880.6,126.44
2025-09-08 19:49:26.272,-0.008,-0.034,1.005,0.0,-0.0,0.0,-169.8,476.8,-875.7,126.96
2025-09-08 19:49:26.283,-0.007,-0.034,1.004,0.0,-0.0,0.0,-168.8,477.7,-880.9,126.67
2025-09-08 19:49:26.294,-0.007,-0.035,1.004,0.0,-0.0,0.0,-168.8,477.7,-880.9,126.52
2025-09-08 19:49:26.305,-0.008,-0.035,1.003,0.0,-0.0,0.0,-167.4,481.7,-880.6,127.41
2025-09-08 19:49:26.316,-0.008,-0.036,1.003,0.0,-0.0,0.0,-165.6,481.9,-885.6,127.14
2025-09-08 19:49:26.327,-0.008,-0.035,1.005,0.0,-0.0,0.0,-166.9,478.0,-878.4,126.13
2025-09-08 19:49:26.338,-0.008,-0.035,1.003,0.0,-0.0,0.0,-169.1,479.5,-873.9,127.06
2025-09-08 19:49:26.349,-0.01,-0.036,1.003,0.0,-0.0,0.0,-165.6,477.4,-871.9,126.51
2025-09-08 19:49:26.360,-0.009,-0.036,1.003,0.0,-0.0,0.0,-164.6,475.4,-879.3,126.32
2025-09-08 19:49:26.371,-0.008,-0.035,1.004,0.0,-0.0,0.0,-164.6,475.4,-879.3,126.87
2025-09-08 19:49:26.382,-0.008,-0.034,1.006,0.0,-0.0,0.0,-166.9,479.2,-878.5,126.57
2025-09-08 19:49:26.393,-0.006,-0.034,1.004,0.0,-0.0,0.0,-171.8,480.2,-881.9,126.94
2025-09-08 19:49:26.404,-0.009,-0.035,1.004,0.0,-0.0,0.0,-168.4,475.6,-876.1,126.01
2025-09-08 19:49:26.415,-0.006,-0.035,1.003,0.0,-0.0,0.0,-172.2,479.8,-878.9,125.89
2025-09-08 19:49:26.426,-0.008,-0.035,1.004,0.0,-0.0,0.0,-166.6,481.9,-877.0,126.76
2025-09-08 19:49:26.437,-0.007,-0.035,1.004,0.0,-0.0,0.0,-173.6,479.8,-876.1,126.45
2025-09-08 19:49:26.448,-0.008,-0.035,1.004,0.0,-0.0,0.0,-173.6,479.8,-876.1,126.76
2025-09-08 19:49:26.459,-0.008,-0.035,1.003,0.0,-0.0,0.0,-169.8,477.7,-873.2,126.69
2025-09-08 19:49:26.470,-0.008,-0.035,1.004,0.0,-0.0,0.0,-170.1,474.6,-875.6,126.24
2025-09-08 19:49:26.481,-0.007,-0.034,1.005,0.0,-0.0,0.0,-170.4,475.2,-877.8,126.2
2025-09-08 19:49:26.492,-0.008,-0.036,1.005,0.0,-0.0,0.0,-167.4,476.8,-869.3,126.99
2025-09-08 19:49:26.503,-0.007,-0.035,1.003,0.0,-0.0,0.0,-168.0,476.1,-867.9,126.99
2025-09-08 19:49:26.514,-0.009,-0.035,1.002,0.0,-0.0,0.0,-172.8,474.2,-877.4,126.61
2025-09-08 19:49:26.525,-0.007,-0.035,1.003,0.0,-0.0,0.0,-172.8,474.2,-878.1,126.79
2025-09-08 19:49:26.536,-0.008,-0.036,1.004,0.0,-0.0,0.0,-165.2,475.2,-878.1,126.31
2025-09-08 19:49:26.547,-0.008,-0.035,1.005,0.0,-0.0,0.0,-168.6,473.1,-872.8,126.91
2025-09-08 19:49:26.558,-0.007,-0.036,1.005,0.0,-0.0,0.0,-167.3,478.1,-870.7,126.89
2025-09-08 19:49:26.569,-0.007,-0.035,1.003,0.0,-0.0,0.0,-167.3,479.1,-868.6,126.16
2025-09-08 19:49:26.580,-0.007,-0.034,1.004,0.0,-0.0,0.0,-163.4,478.1,-868.7,125.52
2025-09-08 19:49:26.591,-0.008,-0.034,1.004,0.0,-0.0,0.0,-166.3,477.8,-872.2,126.58
2025-09-08 19:49:26.602,-0.006,-0.036,1.005,0.0,-0.0,0.0,-166.3,475.2,-871.9,127.24
2025-09-08 19:49:26.613,-0.008,-0.036,1.003,0.0,-0.0,0.0,-165.8,475.2,-871.9,126.79
2025-09-08 19:49:26.624,-0.008,-0.034,1.004,0.0,-0.0,0.0,-164.9,476.3,-875.6,126.3
2025-09-08 19:49:26.635,-0.008,-0.035,1.003,0.0,-0.0,0.0,-164.4,478.5,-872.5,126.72
2025-09-08 19:49:26.646,-0.007,-0.035,1.004,0.0,-0.0,0.0,-166.7,481.0,-874.9,126.9
2025-09-08 19:49:26.657,-0.006,-0.034,1.004,0.0,-0.0,0.0,-165.1,475.9,-875.7,126.61
2025-09-08 19:49:26.668,-0.008,-0.034,1.003,0.0,-0.0,0.0,-163.4,474.9,-874.9,126.39
2025-09-08 19:49:26.679,-0.008,-0.034,1.002,0.0,-0.0,0.0,-168.6,474.0,-876.4,126.17
2025-09-08 19:49:26.690,-0.008,-0.036,1.004,0.0,-0.0,0.0,-168.6,474.0,-876.4,126.64
2025-09-08 19:49:26.701,-0.007,-0.035,1.005,0.0,-0.0,0.0,-166.6,478.2,-870.2,126.98
2025-09-08 19:49:26.712,-0.008,-0.037,1.004,0.0,-0.0,0.0,-166.7,478.5,-872.9,126.45
2025-09-08 19:49:26.723,-0.007,-0.034,1.004,0.0,-0.0,0.0,-165.8,477.8,-874.6,126.75
2025-09-08 19:49:26.735,-0.008,-0.035,1.003,0.0,-0.0,0.0,-165.6,481.6,-878.1,127.21
2025-09-08 19:49:26.745,-0.007,-0.035,1.004,0.0,-0.0,0.0,-168.0,477.5,-877.0,127.09
2025-09-08 19:49:26.756,-0.008,-0.035,1.004,0.0,-0.0,0.0,-164.2,480.5,-874.7,126.69
2025-09-08 19:49:26.767,-0.008,-0.036,1.004,0.0,-0.0,0.0,-164.2,480.5,-874.7,127.17
2025-09-08 19:49:26.778,-0.009,-0.034,1.003,0.0,-0.0,0.0,-165.1,482.9,-879.3,126.43
2025-09-08 19:49:26.789,-0.007,-0.035,1.005,0.0,-0.0,0.0,-168.3,478.4,-875.3,126.48
2025-09-08 19:49:26.800,-0.008,-0.036,1.005,0.0,-0.0,0.0,-163.9,479.2,-881.7,125.88
2025-09-08 19:49:26.811,-0.008,-0.035,1.004,0.0,-0.0,0.0,-160.4,477.8,-879.6,126.76
2025-09-08 19:49:26.822,-0.008,-0.035,1.003,0.0,-0.0,0.0,-162.3,479.1,-875.8,126.29
2025-09-08 19:49:26.833,-0.01,-0.035,1.004,0.0,-0.0,0.0,-165.1,480.5,-875.3,126.24
2025-09-08 19:49:26.844,-0.008,-0.035,1.004,0.0,-0.0,0.0,-165.1,480.5,-875.3,126.99
2025-09-08 19:49:26.855,-0.007,-0.035,1.004,0.0,-0.0,0.0,-162.5,481.9,-874.9,126.41
2025-09-08 19:49:26.866,-0.007,-0.035,1.005,0.0,-0.0,0.0,-164.5,477.7,-876.5,126.2
2025-09-08 19:49:26.877,-0.008,-0.036,1.004,0.0,-0.0,0.0,-163.4,478.4,-878.2,125.81
2025-09-08 19:49:26.888,-0.008,-0.034,1.004,0.0,-0.0,0.0,-162.8,481.0,-873.7,126.36
2025-09-08 19:49:26.899,-0.007,-0.035,1.005,0.0,-0.0,0.0,-162.0,478.5,-872.1,125.93
2025-09-08 19:49:26.910,-0.008,-0.035,1.005,0.0,-0.0,0.0,-167.2,478.8,-872.5,126.64
2025-09-08 19:49:26.921,-0.007,-0.035,1.004,0.0,-0.0,0.0,-167.2,478.8,-872.5,125.79
2025-09-08 19:49:26.932,-0.007,-0.036,1.003,0.0,-0.0,0.0,-166.0,478.0,-875.7,127.06
2025-09-08 19:49:26.943,-0.007,-0.034,1.005,0.0,-0.0,0.0,-166.6,480.2,-873.2,126.24
2025-09-08 19:49:26.954,-0.008,-0.036,1.003,0.0,-0.0,0.0,-166.9,479.2,-877.2,126.32
2025-09-08 19:49:26.965,-0.008,-0.035,1.005,0.0,-0.0,0.0,-168.4,478.8,-878.4,126.04
2025-09-08 19:49:26.976,-0.008,-0.035,1.004,0.0,-0.0,0.0,-169.0,478.2,-875.1,126.74
2025-09-08 19:49:26.987,-0.008,-0.035,1.005,0.0,-0.0,0.0,-163.4,479.8,-879.9,126.23
2025-09-08 19:49:26.998,-0.008,-0.034,1.003,0.0,-0.0,0.0,-163.4,479.8,-879.9,126.31
2025-09-08 19:49:27.009,-0.008,-0.036,1.003,0.0,-0.0,0.0,-164.5,477.3,-877.7,126.58
2025-09-08 19:49:27.020,-0.008,-0.034,1.004,0.0,-0.0,0.0,-166.7,479.5,-884.4,126.29
2025-09-08 19:49:27.031,-0.007,-0.034,1.004,0.0,-0.0,0.0,-163.4,479.2,-885.9,126.47
2025-09-08 19:49:27.042,-0.007,-0.035,1.003,0.0,-0.0,0.0,-167.4,476.4,-880.3,126.9
2025-09-08 19:49:27.053,-0.008,-0.034,1.003,0.0,-0.0,0.0,-165.6,479.6,-879.6,127.3
2025-09-08 19:49:27.064,-0.007,-0.035,1.004,0.0,-0.0,0.0,-168.4,479.9,-881.4,126.41
2025-09-08 19:49:27.075,-0.008,-0.036,1.004,0.0,-0.0,0.0,-168.4,479.9,-881.4,126.22
2025-09-08 19:49:27.086,-0.008,-0.035,1.005,0.0,-0.0,0.0,-165.8,477.5,-884.5,126.66
2025-09-08 19:49:27.097,-0.008,-0.036,1.003,0.0,-0.0,0.0,-166.5,479.5,-886.1,126.12
2025-09-08 19:49:27.108,-0.007,-0.035,1.004,0.0,-0.0,0.0,-167.4,478.7,-875.0,126.1
2025-09-08 19:49:27.119,-0.008,-0.035,1.004,0.0,-0.0,0.0,-168.8,479.8,-884.5,126.08
2025-09-08 19:49:27.130,-0.008,-0.035,1.004,0.0,-0.0,0.0,-167.4,478.5,-877.9,126.2
2025-09-08 19:49:27.141,-0.007,-0.036,1.004,0.0,-0.0,0.0,-162.4,478.1,-874.2,126.85
2025-09-08 19:49:27.152,-0.007,-0.035,1.004,0.0,-0.0,0.0,-162.4,478.1,-874.2,126.72
2025-09-08 19:49:27.163,-0.008,-0.035,1.004,0.0,-0.0,0.0,-165.6,480.6,-885.2,126.14
2025-09-08 19:49:27.174,-0.009,-0.035,1.004,0.0,-0.0,0.0,-163.1,478.5,-883.1,125.99
2025-09-08 19:49:27.185,-0.009,-0.035,1.004,0.0,-0.0,0.0,-167.4,481.3,-877.5,126.22
2025-09-08 19:49:27.196,-0.008,-0.035,1.003,0.0,-0.0,0.0,-165.3,479.9,-876.7,126.59
2025-09-08 19:49:27.207,-0.007,-0.036,1.004,0.0,-0.0,0.0,-165.2,481.7,-882.3,126.21
2025-09-08 19:49:27.218,-0.007,-0.035,1.003,0.0,-0.0,0.0,-163.2,481.0,-877.5,127.11
2025-09-08 19:49:27.229,-0.008,-0.037,1.005,0.0,-0.0,0.0,-163.2,481.0,-877.5,126.71
2025-09-08 19:49:27.240,-0.009,-0.035,1.004,0.0,-0.0,0.0,-165.8,481.3,-884.0,126.33
2025-09-08 19:49:27.251,-0.009,-0.033,1.003,0.0,-0.0,0.0,-166.2,484.3,-878.5,126.32
2025-09-08 19:49:27.262,-0.007,-0.036,1.005,0.0,-0.0,0.0,-170.4,481.2,-882.8,126.61
2025-09-08 19:49:27.273,-0.008,-0.036,1.003,0.0,-0.0,0.0,-166.3,483.1,-877.5,126.15
2025-09-08 19:49:27.284,-0.008,-0.035,1.003,0.0,-0.0,0.0,-169.7,482.6,-886.9,126.13
2025-09-08 19:49:27.295,-0.009,-0.035,1.003,0.0,-0.0,0.0,-170.4,482.7,-880.9,126.5
2025-09-08 19:49:27.306,-0.007,-0.035,1.005,0.0,-0.0,0.0,-170.4,482.7,-879.9,126.1
2025-09-08 19:49:27.317,-0.007,-0.035,1.004,0.0,-0.0,0.0,-168.6,480.6,-879.9,126.93
2025-09-08 19:49:27.328,-0.008,-0.036,1.003,0.0,-0.0,0.0,-170.2,481.6,-882.4,126.28
2025-09-08 19:49:27.339,-0.009,-0.036,1.003,0.0,-0.0,0.0,-170.2,479.6,-877.5,126.15
2025-09-08 19:49:27.350,-0.007,-0.034,1.003,0.0,-0.0,0.0,-169.7,478.5,-879.6,126.58
2025-09-08 19:49:27.361,-0.007,-0.035,1.003,0.0,-0.0,0.0,-166.0,478.0,-874.6,125.85
2025-09-08 19:49:27.372,-0.008,-0.035,1.003,0.0,-0.0,0.0,-168.4,472.9,-882.8,126.26
2025-09-08 19:49:27.383,-0.008,-0.035,1.003,0.0,-0.0,0.0,-168.4,474.9,-879.5,125.99
2025-09-08 19:49:27.394,-0.008,-0.036,1.004,0.0,-0.0,0.0,-167.6,474.9,-879.5,126.33
2025-09-08 19:49:27.405,-0.007,-0.036,1.005,0.0,-0.0,0.0,-168.4,479.6,-872.5,125.91
2025-09-08 19:49:27.416,-0.008,-0.034,1.003,0.0,-0.0,0.0,-167.9,476.7,-876.8,126.59
2025-09-08 19:49:27.427,-0.008,-0.035,1.002,0.0,-0.0,0.0,-165.9,477.8,-883.0,127.21
2025-09-08 19:49:27.438,-0.008,-0.035,1.003,0.0,-0.0,0.0,-167.3,475.7,-879.2,126.41
2025-09-08 19:49:27.449,-0.009,-0.036,1.004,0.0,-0.0,0.0,-164.8,480.1,-881.6,126.34
2025-09-08 19:49:27.460,-0.007,-0.036,1.003,0.0,-0.0,0.0,-167.0,478.5,-878.9,126.76
2025-09-08 19:49:27.471,-0.007,-0.035,1.004,0.0,-0.0,0.0,-167.0,478.5,-878.9,126.43
2025-09-08 19:49:27.482,-0.007,-0.036,1.002,0.0,-0.0,0.0,-165.6,473.3,-877.9,125.98
2025-09-08 19:49:27.493,-0.008,-0.035,1.004,0.0,-0.0,0.0,-161.8,474.0,-873.0,126.01
2025-09-08 19:49:27.504,-0.008,-0.036,1.002,0.0,-0.0,0.0,-165.6,476.6,-872.1,126.25
2025-09-08 19:49:27.515,-0.007,-0.035,1.006,0.0,-0.0,0.0,-168.4,476.0,-875.8,125.92
2025-09-08 19:49:27.526,-0.008,-0.035,1.003,0.0,-0.0,0.0,-167.3,474.5,-876.5,126.35
2025-09-08 19:49:27.537,-0.009,-0.035,1.005,0.0,-0.0,0.0,-167.7,474.2,-880.7,126.05
2025-09-08 19:49:27.548,-0.008,-0.035,1.005,0.0,-0.0,0.0,-167.7,474.2,-880.7,126.33
2025-09-08 19:49:27.559,-0.009,-0.035,1.001,0.0,-0.0,0.0,-164.6,472.8,-874.6,126.93
2025-09-08 19:49:27.570,-0.008,-0.035,0.999,0.0,-0.0,0.0,-163.8,479.4,-878.1,126.58
2025-09-08 19:49:27.581,-0.008,-0.035,1.006,0.0,-0.0,0.0,-161.0,478.8,-875.4,126.03
2025-09-08 19:49:27.592,-0.008,-0.034,1.006,0.0,-0.0,0.0,-165.8,476.7,-874.7,126.75
2025-09-08 19:49:27.603,-0.008,-0.034,1.005,0.0,-0.0,0.0,-166.5,479.8,-874.6,126.54
2025-09-08 19:49:27.614,-0.007,-0.035,1.003,0.0,-0.0,0.0,-170.1,480.8,-878.4,126.41
2025-09-08 19:49:27.625,-0.009,-0.035,1.002,0.0,-0.0,0.0,-170.1,480.8,-878.4,126.37
2025-09-08 19:49:27.636,-0.008,-0.034,1.002,0.0,-0.0,0.0,-168.7,481.3,-880.6,126.46
2025-09-08 19:49:27.647,-0.007,-0.036,1.007,0.0,-0.0,0.0,-168.4,479.5,-882.3,126.62
2025-09-08 19:49:27.658,-0.007,-0.034,1.005,0.0,-0.0,0.0,-169.0,482.6,-879.2,126.66
2025-09-08 19:49:27.669,-0.009,-0.035,1.0,0.0,-0.0,0.0,-166.9,475.6,-880.6,126.84
2025-09-08 19:49:27.680,-0.007,-0.035,1.004,0.0,-0.0,0.0,-169.7,477.0,-882.6,126.61
2025-09-08 19:49:27.691,-0.008,-0.036,1.007,0.0,-0.0,0.0,-169.5,481.6,-880.3,126.0
2025-09-08 19:49:27.702,-0.007,-0.035,1.006,0.0,-0.0,0.0,-169.5,481.6,-880.3,126.63
2025-09-08 19:49:27.713,-0.008,-0.036,1.004,0.0,-0.0,0.0,-162.5,476.0,-883.5,126.08
2025-09-08 19:49:27.724,-0.007,-0.036,1.002,0.0,-0.0,0.0,-163.8,479.2,-881.6,126.66
2025-09-08 19:49:27.735,-0.007,-0.035,1.003,0.0,-0.0,0.0,-170.7,481.3,-885.6,126.29
2025-09-08 19:49:27.746,-0.008,-0.036,1.003,0.0,-0.0,0.0,-169.0,478.7,-882.4,126.78
2025-09-08 19:49:27.757,-0.009,-0.036,1.003,0.0,-0.0,0.0,-166.3,476.4,-884.8,125.97
2025-09-08 19:49:27.768,-0.009,-0.035,1.005,0.0,-0.0,0.0,-167.2,481.3,-882.3,126.15
2025-09-08 19:49:27.780,-0.008,-0.035,1.004,0.0,-0.0,0.0,-167.2,481.3,-882.3,126.6
2025-09-08 19:49:27.790,-0.008,-0.033,1.004,0.0,-0.0,0.0,-170.8,476.8,-885.6,126.35
2025-09-08 19:49:27.801,-0.008,-0.035,1.004,0.0,-0.0,0.0,-164.8,476.1,-884.5,126.49
2025-09-08 19:49:27.812,-0.008,-0.034,1.004,0.0,-0.0,0.0,-173.0,478.0,-882.6,126.68
2025-09-08 19:49:27.823,-0.008,-0.035,1.005,0.0,-0.0,0.0,-173.3,480.1,-880.7,126.02
2025-09-08 19:49:27.834,-0.009,-0.035,1.002,0.0,-0.0,0.0,-165.9,480.6,-881.4,126.71
2025-09-08 19:49:27.845,-0.008,-0.036,1.004,0.0,-0.0,0.0,-168.1,476.7,-880.0,126.6
2025-09-08 19:49:27.856,-0.008,-0.035,1.002,0.0,-0.0,0.0,-168.1,476.7,-880.0,126.78
2025-09-08 19:49:27.867,-0.008,-0.035,1.004,0.0,-0.0,0.0,-165.3,476.7,-886.6,126.09
2025-09-08 19:49:27.878,-0.009,-0.035,1.006,0.0,-0.0,0.0,-164.2,479.2,-887.0,126.08
2025-09-08 19:49:27.889,-0.007,-0.036,1.005,0.0,-0.0,0.0,-168.0,478.9,-884.1,127.13
2025-09-08 19:49:27.900,-0.009,-0.035,1.003,0.0,-0.0,0.0,-169.0,478.0,-882.1,126.51
2025-09-08 19:49:27.911,-0.009,-0.035,1.004,0.0,-0.0,0.0,-165.8,481.2,-881.0,126.95
2025-09-08 19:49:27.922,-0.007,-0.034,1.004,0.0,-0.0,0.0,-165.1,481.6,-885.4,126.15
2025-09-08 19:49:27.933,-0.009,-0.036,1.002,0.0,-0.0,0.0,-165.1,481.6,-885.4,126.33
2025-09-08 19:49:27.944,-0.008,-0.035,1.004,0.0,-0.0,0.0,-164.6,480.3,-878.2,126.5
2025-09-08 19:49:27.955,-0.008,-0.035,1.003,0.0,-0.0,0.0,-166.6,482.3,-881.0,126.6
2025-09-08 19:49:27.966,-0.007,-0.035,1.005,0.0,-0.0,0.0,-164.9,480.2,-878.8,127.25
2025-09-08 19:49:27.977,-0.008,-0.036,1.003,0.0,-0.0,0.0,-163.8,478.8,-882.0,126.4
2025-09-08 19:49:27.988,-0.008,-0.035,1.004,0.0,-0.0,0.0,-165.5,473.1,-888.6,126.61
2025-09-08 19:49:27.999,-0.008,-0.037,1.003,0.0,-0.0,0.0,-162.1,481.6,-888.2,126.73
2025-09-08 19:49:28.010,-0.007,-0.034,1.005,0.0,-0.0,0.0,-162.1,481.6,-888.2,125.83
2025-09-08 19:49:28.021,-0.008,-0.035,1.004,0.0,-0.0,0.0,-165.9,476.8,-879.2,125.9
2025-09-08 19:49:28.032,-0.007,-0.035,1.005,0.0,-0.0,0.0,-165.8,472.6,-880.2,126.49
2025-09-08 19:49:28.043,-0.008,-0.035,1.003,0.0,-0.0,0.0,-165.6,476.3,-879.6,126.18
2025-09-08 19:49:28.054,-0.008,-0.034,1.005,0.0,-0.0,0.0,-165.1,476.8,-881.6,126.48
2025-09-08 19:49:28.065,-0.007,-0.035,1.004,0.0,-0.0,0.0,-166.9,473.5,-881.6,127.0
2025-09-08 19:49:28.076,-0.008,-0.035,1.003,0.0,-0.0,0.0,-171.8,473.6,-877.9,126.44
2025-09-08 19:49:28.087,-0.008,-0.036,1.002,0.0,-0.0,0.0,-171.8,473.6,-884.1,126.27
2025-09-08 19:49:28.098,-0.008,-0.035,1.004,0.0,-0.0,0.0,-170.5,472.8,-884.1,125.73
2025-09-08 19:49:28.109,-0.008,-0.034,1.002,0.0,-0.0,0.0,-166.0,472.8,-878.4,126.74
2025-09-08 19:49:28.120,-0.008,-0.036,1.003,0.0,-0.0,0.0,-164.4,472.9,-875.8,126.85
2025-09-08 19:49:28.131,-0.007,-0.035,1.004,0.0,-0.0,0.0,-164.5,472.8,-882.4,126.27
2025-09-08 19:49:28.142,-0.008,-0.036,1.004,0.0,-0.0,0.0,-172.5,473.2,-879.3,126.3
2025-09-08 19:49:28.153,-0.008,-0.035,1.004,0.0,-0.0,0.0,-172.5,470.0,-873.6,126.72
2025-09-08 19:49:28.164,-0.009,-0.036,1.004,0.0,-0.0,0.0,-172.5,471.4,-879.6,126.42
2025-09-08 19:49:28.175,-0.007,-0.035,1.003,0.0,-0.0,0.0,-171.5,471.4,-879.6,126.92
2025-09-08 19:49:28.186,-0.008,-0.036,1.004,0.0,-0.0,0.0,-168.8,472.4,-880.7,126.94
2025-09-08 19:49:28.197,-0.008,-0.035,1.004,0.0,-0.0,0.0,-167.3,470.3,-877.1,126.3
2025-09-08 19:49:28.208,-0.008,-0.035,1.005,0.0,-0.0,0.0,-165.2,468.3,-878.1,126.73
2025-09-08 19:49:28.219,-0.008,-0.035,1.005,0.0,-0.0,0.0,-169.0,470.4,-881.4,126.5
2025-09-08 19:49:28.230,-0.009,-0.036,1.005,0.0,-0.0,0.0,-169.1,468.4,-880.5,126.56
2025-09-08 19:49:28.241,-0.007,-0.034,1.003,0.0,-0.0,0.0,-168.6,468.3,-884.8,126.72
2025-09-08 19:49:28.252,-0.007,-0.034,1.003,0.0,-0.0,0.0,-168.6,468.3,-884.8,126.88
2025-09-08 19:49:28.263,-0.008,-0.036,1.003,0.0,-0.0,0.0,-166.7,467.3,-889.3,126.53
2025-09-08 19:49:28.274,-0.009,-0.036,1.004,0.0,-0.0,0.0,-165.8,469.7,-884.0,127.02
2025-09-08 19:49:28.285,-0.007,-0.035,1.005,0.0,-0.0,0.0,-160.4,469.6,-883.3,126.75
2025-09-08 19:49:28.296,-0.007,-0.035,1.003,0.0,-0.0,0.0,-165.3,471.8,-890.7,126.62
2025-09-08 19:49:28.307,-0.008,-0.035,1.003,0.0,-0.0,0.0,-166.2,476.0,-882.1,126.58
2025-09-08 19:49:28.318,-0.009,-0.034,1.004,0.0,-0.0,0.0,-168.0,478.1,-884.0,126.31
2025-09-08 19:49:28.329,-0.007,-0.035,1.003,0.0,-0.0,0.0,-168.0,478.1,-884.0,126.6
2025-09-08 19:49:28.340,-0.007,-0.033,1.002,0.0,-0.0,0.0,-164.1,473.3,-879.6,125.83
2025-09-08 19:49:28.351,-0.007,-0.035,1.003,0.0,-0.0,0.0,-164.9,468.4,-885.1,127.21
2025-09-08 19:49:28.362,-0.008,-0.035,1.002,0.0,-0.0,0.0,-162.3,472.9,-881.6,126.2
2025-09-08 19:49:28.373,-0.009,-0.036,1.004,0.0,-0.0,0.0,-161.4,475.0,-886.8,126.52
2025-09-08 19:49:28.385,-0.007,-0.035,1.003,0.0,-0.0,0.0,-162.8,474.7,-879.6,126.47
2025-09-08 19:49:28.395,-0.008,-0.036,1.003,0.0,-0.0,0.0,-165.1,472.9,-880.7,126.24
2025-09-08 19:49:28.406,-0.007,-0.036,1.005,0.0,-0.0,0.0,-165.1,472.9,-880.7,127.08
2025-09-08 19:49:28.417,-0.008,-0.035,1.003,0.0,-0.0,0.0,-159.5,471.2,-884.2,126.6
2025-09-08 19:49:28.428,-0.007,-0.036,1.004,0.0,-0.0,0.0,-165.5,468.9,-876.4,126.73
2025-09-08 19:49:28.439,-0.008,-0.035,1.005,0.0,-0.0,0.0,-164.6,469.4,-878.2,126.13
2025-09-08 19:49:28.450,-0.007,-0.035,1.004,0.0,-0.0,0.0,-167.0,470.4,-884.4,126.88
2025-09-08 19:49:28.461,-0.008,-0.035,1.005,0.0,-0.0,0.0,-169.3,468.3,-879.9,126.48
2025-09-08 19:49:28.472,-0.008,-0.035,1.007,0.0,-0.0,0.0,-166.0,466.8,-877.9,125.98
2025-09-08 19:49:28.483,-0.008,-0.035,1.004,0.0,-0.0,0.0,-166.0,466.8,-877.9,125.85
2025-09-08 19:49:28.494,-0.007,-0.034,1.002,0.0,-0.0,0.0,-165.1,472.5,-877.2,126.13
2025-09-08 19:49:28.505,-0.008,-0.035,1.002,0.0,-0.0,0.0,-166.6,477.4,-882.4,127.03
2025-09-08 19:49:28.516,-0.007,-0.036,1.003,0.0,-0.0,0.0,-167.3,472.1,-886.9,126.35
2025-09-08 19:49:28.527,-0.008,-0.036,1.005,0.0,-0.0,0.0,-168.1,474.9,-885.1,126.79
2025-09-08 19:49:28.538,-0.007,-0.035,1.004,0.0,-0.0,0.0,-166.6,471.1,-877.1,126.28
2025-09-08 19:49:28.549,-0.006,-0.035,1.003,0.0,-0.0,0.0,-165.9,470.4,-876.8,127.32
2025-09-08 19:49:28.560,-0.008,-0.035,1.003,0.0,-0.0,0.0,-165.9,470.4,-876.8,126.96
2025-09-08 19:49:28.571,-0.007,-0.035,1.005,0.0,-0.0,0.0,-168.1,474.5,-875.4,125.67
2025-09-08 19:49:28.582,-0.008,-0.036,1.004,0.0,-0.0,0.0,-166.0,471.8,-874.0,126.47
2025-09-08 19:49:28.593,-0.007,-0.035,1.003,0.0,-0.0,0.0,-165.2,470.1,-878.4,126.52
2025-09-08 19:49:28.604,-0.007,-0.035,1.003,0.0,-0.0,0.0,-166.3,471.8,-875.3,126.82
2025-09-08 19:49:28.615,-0.007,-0.035,1.005,0.0,-0.0,0.0,-163.2,471.5,-872.8,126.87
2025-09-08 19:49:28.626,-0.009,-0.036,1.003,0.0,-0.0,0.0,-164.5,471.5,-872.2,126.6
2025-09-08 19:49:28.637,-0.007,-0.035,1.005,0.0,-0.0,0.0,-164.5,471.5,-872.2,126.85
2025-09-08 19:49:28.648,-0.008,-0.035,1.003,0.0,-0.0,0.0,-164.1,473.1,-878.6,126.34
2025-09-08 19:49:28.659,-0.008,-0.036,1.005,0.0,-0.0,0.0,-167.9,471.1,-877.0,126.39
2025-09-08 19:49:28.670,-0.006,-0.035,1.004,0.0,-0.0,0.0,-165.5,471.7,-875.8,126.39
2025-09-08 19:49:28.681,-0.007,-0.036,1.003,0.0,-0.0,0.0,-168.7,471.7,-884.1,125.99
2025-09-08 19:49:28.692,-0.007,-0.035,1.004,0.0,-0.0,0.0,-167.6,467.9,-875.0,125.91
2025-09-08 19:49:28.703,-0.008,-0.036,1.003,0.0,-0.0,0.0,-167.7,469.0,-876.4,126.54
2025-09-08 19:49:28.714,-0.007,-0.035,1.003,0.0,-0.0,0.0,-167.7,469.0,-876.4,126.27
2025-09-08 19:49:28.725,-0.007,-0.034,1.003,0.0,-0.0,0.0,-165.6,474.0,-874.9,127.34
2025-09-08 19:49:28.736,-0.008,-0.036,1.004,0.0,-0.0,0.0,-167.2,466.6,-880.0,126.06
2025-09-08 19:49:28.747,-0.007,-0.035,1.004,0.0,-0.0,0.0,-171.9,466.2,-876.8,126.65
2025-09-08 19:49:28.758,-0.007,-0.035,1.006,0.0,-0.0,0.0,-169.1,470.7,-877.0,126.32
2025-09-08 19:49:28.769,-0.007,-0.035,1.003,0.0,-0.0,0.0,-167.4,470.5,-879.1,126.65
2025-09-08 19:49:28.780,-0.008,-0.037,1.005,0.0,-0.0,0.0,-161.7,469.6,-878.1,126.37
2025-09-08 19:49:28.791,-0.008,-0.036,1.003,0.0,-0.0,0.0,-161.7,469.6,-878.1,126.6
2025-09-08 19:49:28.802,-0.008,-0.035,1.004,0.0,-0.0,0.0,-166.9,467.3,-878.4,126.65
2025-09-08 19:49:28.813,-0.007,-0.036,1.004,0.0,-0.0,0.0,-171.5,473.2,-885.1,126.81
2025-09-08 19:49:28.824,-0.008,-0.035,1.003,0.0,-0.0,0.0,-172.1,471.2,-876.4,126.52
2025-09-08 19:49:28.835,-0.007,-0.036,1.003,0.0,-0.0,0.0,-171.6,467.9,-885.4,126.16
2025-09-08 19:49:28.846,-0.008,-0.036,1.004,0.0,-0.0,0.0,-167.9,469.3,-878.4,126.49
2025-09-08 19:49:28.857,-0.007,-0.034,1.004,0.0,-0.0,0.0,-165.9,471.7,-875.6,126.33
2025-09-08 19:49:28.868,-0.006,-0.036,1.005,0.0,-0.0,0.0,-165.9,471.7,-878.4,126.36
2025-09-08 19:49:28.879,-0.008,-0.034,1.003,0.0,-0.0,0.0,-169.5,471.1,-878.4,126.76
2025-09-08 19:49:28.890,-0.008,-0.036,1.004,0.0,-0.0,0.0,-165.3,472.6,-882.1,125.63
2025-09-08 19:49:28.901,-0.007,-0.035,1.004,0.0,-0.0,0.0,-165.3,473.3,-878.9,126.33
2025-09-08 19:49:28.912,-0.007,-0.035,1.004,0.0,-0.0,0.0,-167.3,471.1,-882.0,125.84
2025-09-08 19:49:28.923,-0.007,-0.036,1.002,0.0,-0.0,0.0,-167.6,474.0,-883.7,126.66
2025-09-08 19:49:28.934,-0.008,-0.034,1.004,0.0,-0.0,0.0,-169.4,470.1,-880.2,126.25
2025-09-08 19:49:28.945,-0.008,-0.035,1.004,0.0,-0.0,0.0,-172.9,476.3,-886.3,126.76
2025-09-08 19:49:28.956,-0.007,-0.034,1.004,0.0,-0.0,0.0,-172.9,476.3,-886.3,126.42
2025-09-08 19:49:28.967,-0.008,-0.036,1.003,0.0,-0.0,0.0,-168.0,469.8,-888.3,126.6
2025-09-08 19:49:28.978,-0.008,-0.035,1.004,0.0,-0.0,0.0,-167.3,471.1,-881.6,126.65
2025-09-08 19:49:28.989,-0.006,-0.035,1.004,0.0,-0.0,0.0,-163.8,470.1,-878.4,126.52
2025-09-08 19:49:29.000,-0.008,-0.034,1.004,0.0,-0.0,0.0,-161.7,472.2,-880.6,126.99
2025-09-08 19:49:29.011,-0.008,-0.036,1.004,0.0,-0.0,0.0,-166.0,472.2,-883.8,125.65
2025-09-08 19:49:29.022,-0.007,-0.035,1.002,0.0,-0.0,0.0,-164.9,472.1,-880.3,126.37
2025-09-08 19:49:29.033,-0.008,-0.034,1.004,0.0,-0.0,0.0,-164.9,472.1,-880.3,126.57
2025-09-08 19:49:29.044,-0.008,-0.035,1.005,0.0,-0.0,0.0,-163.0,475.0,-883.7,126.69
2025-09-08 19:49:29.055,-0.008,-0.035,1.004,0.0,-0.0,0.0,-163.9,472.9,-876.7,126.19
2025-09-08 19:49:29.066,-0.009,-0.036,1.003,0.0,-0.0,0.0,-160.6,470.7,-881.9,126.35
2025-09-08 19:49:29.077,-0.007,-0.036,1.005,0.0,-0.0,0.0,-162.1,469.4,-884.0,126.45
2025-09-08 19:49:29.088,-0.007,-0.036,1.005,0.0,-0.0,0.0,-162.4,467.3,-875.8,126.75
2025-09-08 19:49:29.099,-0.007,-0.035,1.005,0.0,-0.0,0.0,-164.6,471.1,-889.3,126.81
2025-09-08 19:49:29.110,-0.008,-0.035,1.004,0.0,-0.0,0.0,-164.6,471.1,-889.3,126.49
2025-09-08 19:49:29.121,-0.008,-0.036,1.004,0.0,-0.0,0.0,-163.5,469.4,-880.9,126.91
2025-09-08 19:49:29.132,-0.007,-0.035,1.004,0.0,-0.0,0.0,-170.5,474.3,-887.5,126.56
2025-09-08 19:49:29.143,-0.008,-0.035,1.004,0.0,-0.0,0.0,-164.6,472.2,-882.3,126.66
2025-09-08 19:49:29.154,-0.006,-0.035,1.003,0.0,-0.0,0.0,-166.5,469.3,-887.6,126.64
2025-09-08 19:49:29.165,-0.007,-0.037,1.003,0.0,-0.0,0.0,-165.1,473.2,-885.6,126.51
2025-09-08 19:49:29.176,-0.008,-0.035,1.005,0.0,-0.0,0.0,-166.0,468.9,-881.0,126.43
2025-09-08 19:49:29.187,-0.008,-0.036,1.005,0.0,-0.0,0.0,-166.0,468.9,-881.0,126.39
2025-09-08 19:49:29.198,-0.008,-0.035,1.004,0.0,-0.0,0.0,-169.5,468.6,-876.5,125.98
2025-09-08 19:49:29.209,-0.008,-0.035,1.004,0.0,-0.0,0.0,-169.1,467.9,-885.2,126.9
2025-09-08 19:49:29.220,-0.008,-0.035,1.003,0.0,-0.0,0.0,-168.6,470.7,-881.0,126.24
2025-09-08 19:49:29.231,-0.007,-0.035,1.004,0.0,-0.0,0.0,-167.6,471.1,-885.4,126.82
2025-09-08 19:49:29.242,-0.008,-0.035,1.004,0.0,-0.0,0.0,-169.1,471.4,-882.6,126.32
2025-09-08 19:49:29.253,-0.008,-0.036,1.003,0.0,-0.0,0.0,-168.7,468.6,-880.6,126.74
2025-09-08 19:49:29.264,-0.008,-0.035,1.003,0.0,-0.0,0.0,-168.7,468.6,-880.6,126.12
2025-09-08 19:49:29.275,-0.008,-0.034,1.005,0.0,-0.0,0.0,-165.5,470.3,-880.7,127.18
2025-09-08 19:49:29.286,-0.006,-0.035,1.003,0.0,-0.0,0.0,-168.1,470.0,-880.7,126.29
2025-09-08 19:49:29.297,-0.008,-0.036,1.004,0.0,-0.0,0.0,-167.9,467.6,-888.2,126.58
2025-09-08 19:49:29.308,-0.008,-0.036,1.003,0.0,-0.0,0.0,-165.8,473.3,-878.9,126.57
2025-09-08 19:49:29.319,-0.007,-0.036,1.004,0.0,-0.0,0.0,-166.5,471.9,-883.5,125.64
2025-09-08 19:49:29.330,-0.007,-0.034,1.002,0.0,-0.0,0.0,-166.5,468.3,-879.2,126.6
2025-09-08 19:49:29.341,-0.008,-0.034,1.002,0.0,-0.0,0.0,-166.5,468.3,-879.2,126.89
2025-09-08 19:49:29.352,-0.006,-0.035,1.005,0.0,-0.0,0.0,-165.8,466.2,-890.7,125.81
2025-09-08 19:49:29.363,-0.008,-0.035,1.005,0.0,-0.0,0.0,-172.8,468.3,-881.0,126.65
2025-09-08 19:49:29.374,-0.008,-0.035,1.004,0.0,-0.0,0.0,-173.0,466.9,-886.6,126.78
2025-09-08 19:49:29.385,-0.008,-0.035,1.003,0.0,-0.0,0.0,-166.6,467.9,-877.2,126.62
2025-09-08 19:49:29.396,-0.008,-0.034,1.004,0.0,-0.0,0.0,-163.5,469.6,-884.2,126.66
2025-09-08 19:49:29.407,-0.007,-0.035,1.004,0.0,-0.0,0.0,-163.8,470.5,-886.9,126.32
2025-09-08 19:49:29.418,-0.007,-0.035,1.004,0.0,-0.0,0.0,-163.8,470.5,-886.9,126.73
2025-09-08 19:49:29.429,-0.007,-0.036,1.003,0.0,-0.0,0.0,-164.9,470.4,-881.0,125.71
2025-09-08 19:49:29.440,-0.006,-0.035,1.004,0.0,-0.0,0.0,-166.2,471.7,-877.1,126.77
2025-09-08 19:49:29.451,-0.007,-0.035,1.004,0.0,-0.0,0.0,-169.3,471.2,-882.3,127.04
2025-09-08 19:49:29.462,-0.008,-0.035,1.004,0.0,-0.0,0.0,-164.4,468.2,-879.6,126.33
2025-09-08 19:49:29.473,-0.008,-0.035,1.004,0.0,-0.0,0.0,-164.4,468.2,-875.0,126.68
2025-09-08 19:49:29.484,-0.008,-0.035,1.003,0.0,-0.0,0.0,-165.8,469.7,-879.6,126.65
2025-09-08 19:49:29.495,-0.008,-0.035,1.003,0.0,-0.0,0.0,-165.8,469.7,-879.6,126.42
2025-09-08 19:49:29.506,-0.007,-0.034,1.004,0.0,-0.0,0.0,-167.7,470.5,-884.1,126.34
2025-09-08 19:49:29.517,-0.007,-0.036,1.004,0.0,-0.0,0.0,-167.9,469.0,-883.3,126.75
2025-09-08 19:49:29.528,-0.007,-0.035,1.004,0.0,-0.0,0.0,-171.8,465.6,-881.6,126.3
2025-09-08 19:49:29.539,-0.007,-0.034,1.005,0.0,-0.0,0.0,-173.6,471.9,-883.1,126.37
2025-09-08 19:49:29.550,-0.007,-0.035,1.003,0.0,-0.0,0.0,-173.7,472.4,-876.8,126.63
2025-09-08 19:49:29.561,-0.008,-0.035,1.004,0.0,-0.0,0.0,-166.7,470.4,-881.0,126.46
2025-09-08 19:49:29.572,-0.008,-0.035,1.005,0.0,-0.0,0.0,-166.7,470.4,-881.0,126.27
2025-09-08 19:49:29.583,-0.007,-0.035,1.003,0.0,-0.0,0.0,-170.2,466.6,-882.7,126.61
2025-09-08 19:49:29.594,-0.007,-0.035,1.005,0.0,-0.0,0.0,-170.8,471.8,-879.1,126.59
2025-09-08 19:49:29.605,-0.008,-0.035,1.004,0.0,-0.0,0.0,-169.4,470.1,-880.2,126.05
2025-09-08 19:49:29.616,-0.008,-0.036,1.003,0.0,-0.0,0.0,-166.7,465.6,-883.8,125.99
2025-09-08 19:49:29.627,-0.007,-0.036,1.004,0.0,-0.0,0.0,-168.4,466.5,-883.0,126.79
2025-09-08 19:49:29.638,-0.008,-0.035,1.005,0.0,-0.0,0.0,-163.0,465.5,-879.3,126.36
2025-09-08 19:49:29.649,-0.007,-0.035,1.002,0.0,-0.0,0.0,-163.0,465.5,-877.2,126.29
2025-09-08 19:49:29.660,-0.008,-0.035,1.004,0.0,-0.0,0.0,-167.3,463.3,-877.2,127.11
2025-09-08 19:49:29.671,-0.008,-0.036,1.004,0.0,-0.0,0.0,-169.8,467.6,-878.4,127.3
2025-09-08 19:49:29.682,-0.007,-0.036,1.006,0.0,-0.0,0.0,-166.5,468.4,-883.4,126.11
2025-09-08 19:49:29.693,-0.007,-0.035,1.005,0.0,-0.0,0.0,-169.7,467.6,-880.0,126.77
2025-09-08 19:49:29.704,-0.007,-0.036,1.002,0.0,-0.0,0.0,-166.5,471.1,-879.9,126.29
2025-09-08 19:49:29.715,-0.007,-0.035,1.004,0.0,-0.0,0.0,-169.8,468.6,-880.2,126.01
2025-09-08 19:49:29.726,-0.007,-0.035,1.004,0.0,-0.0,0.0,-169.8,470.7,-883.4,126.56
2025-09-08 19:49:29.737,-0.007,-0.035,1.004,0.0,-0.0,0.0,-166.9,470.7,-883.4,126.5
2025-09-08 19:49:29.748,-0.007,-0.035,1.004,0.0,-0.0,0.0,-166.7,468.3,-882.6,126.35
2025-09-08 19:49:29.759,-0.009,-0.036,1.004,0.0,-0.0,0.0,-166.0,466.2,-885.8,126.55
2025-09-08 19:49:29.770,-0.007,-0.037,1.003,0.0,-0.0,0.0,-168.4,468.7,-886.3,127.07
2025-09-08 19:49:29.781,-0.008,-0.035,1.006,0.0,-0.0,0.0,-167.0,467.2,-884.9,126.4
2025-09-08 19:49:29.792,-0.008,-0.036,1.005,0.0,-0.0,0.0,-167.9,467.6,-883.4,126.51
2025-09-08 19:49:29.803,-0.008,-0.035,1.006,0.0,-0.0,0.0,-167.3,468.4,-882.7,126.05
2025-09-08 19:49:29.814,-0.008,-0.035,1.003,0.0,-0.0,0.0,-167.3,468.4,-882.7,126.18
2025-09-08 19:49:29.825,-0.008,-0.036,1.004,0.0,-0.0,0.0,-167.6,472.4,-875.7,126.1
2025-09-08 19:49:29.836,-0.008,-0.035,1.003,0.0,-0.0,0.0,-166.0,470.7,-879.2,126.43
2025-09-08 19:49:29.847,-0.007,-0.036,1.003,0.0,-0.0,0.0,-168.8,468.2,-882.7,125.92
2025-09-08 19:49:29.858,-0.008,-0.035,1.004,0.0,-0.0,0.0,-169.1,469.8,-892.1,126.32
2025-09-08 19:49:29.869,-0.007,-0.034,1.004,0.0,-0.0,0.0,-168.6,469.6,-882.8,126.77
2025-09-08 19:49:29.880,-0.008,-0.036,1.004,0.0,-0.0,0.0,-169.3,473.5,-885.9,126.42
2025-09-08 19:49:29.891,-0.008,-0.036,1.004,0.0,-0.0,0.0,-169.3,473.5,-885.9,126.66
2025-09-08 19:49:29.902,-0.006,-0.034,1.003,0.0,-0.0,0.0,-167.2,471.2,-883.8,126.32
2025-09-08 19:49:29.913,-0.008,-0.036,1.003,0.0,-0.0,0.0,-167.2,470.4,-885.4,126.29
2025-09-08 19:49:29.924,-0.007,-0.035,1.004,0.0,-0.0,0.0,-167.4,471.8,-879.9,126.84
2025-09-08 19:49:29.935,-0.008,-0.036,1.005,0.0,-0.0,0.0,-167.7,467.7,-882.1,126.38
2025-09-08 19:49:29.947,-0.008,-0.036,1.003,0.0,-0.0,0.0,-167.4,469.0,-884.0,126.43
2025-09-08 19:49:29.957,-0.008,-0.035,1.003,0.0,-0.0,0.0,-166.2,471.5,-884.4,126.6
2025-09-08 19:49:29.968,-0.014,-0.034,1.006,0.0,-0.0,-0.0,-166.2,471.5,-884.4,126.52
2025-09-08 19:49:29.979,-0.013,-0.036,1.005,0.0,-0.0,-0.01,-166.5,472.4,-878.9,127.46
2025-09-08 19:49:29.990,0.005,-0.036,1.003,0.0,-0.0,-0.01,-169.7,473.1,-884.4,126.71
2025-09-08 19:49:30.001,-0.007,-0.035,1.004,0.0,-0.0,-0.0,-168.3,469.0,-882.8,126.5
2025-09-08 19:49:30.012,-0.006,-0.034,1.003,0.0,-0.0,0.0,-169.0,471.7,-885.2,126.6
2025-09-08 19:49:30.023,-0.009,-0.034,1.004,0.0,-0.0,0.0,-169.5,470.4,-880.6,126.68
2025-09-08 19:49:30.034,-0.007,-0.036,1.004,0.0,-0.0,0.0,-167.7,467.0,-878.4,126.3
2025-09-08 19:49:30.045,-0.008,-0.035,1.005,0.0,-0.0,0.0,-167.7,467.0,-878.4,126.39
2025-09-08 19:49:30.056,-0.007,-0.034,1.003,0.0,-0.0,0.0,-172.2,469.0,-875.7,126.93
2025-09-08 19:49:30.067,-0.008,-0.036,1.003,0.0,-0.0,0.0,-171.6,469.4,-876.1,126.36
2025-09-08 19:49:30.078,-0.008,-0.035,1.005,0.0,-0.0,0.0,-169.8,471.0,-879.5,126.37
2025-09-08 19:49:30.090,-0.007,-0.035,1.003,0.0,-0.0,0.0,-171.6,470.4,-873.0,126.26
2025-09-08 19:49:30.100,-0.007,-0.034,1.005,0.0,-0.0,0.0,-172.8,470.0,-882.1,127.0
2025-09-08 19:49:30.111,-0.008,-0.034,1.004,0.0,-0.0,0.0,-170.9,471.8,-879.5,126.83
2025-09-08 19:49:30.122,-0.008,-0.035,1.002,0.0,-0.0,0.0,-170.9,471.8,-879.5,126.11
2025-09-08 19:49:30.133,-0.009,-0.035,1.002,0.0,-0.0,0.0,-167.4,471.1,-881.7,125.89
2025-09-08 19:49:30.144,-0.007,-0.036,1.005,0.0,-0.0,0.0,-167.0,467.2,-883.8,126.35
2025-09-08 19:49:30.155,-0.008,-0.036,1.004,0.0,-0.0,0.0,-165.3,471.8,-883.4,126.62
2025-09-08 19:49:30.166,-0.006,-0.035,1.003,0.0,-0.0,0.0,-163.4,469.3,-877.1,126.48
2025-09-08 19:49:30.177,-0.007,-0.035,1.004,0.0,-0.0,0.0,-170.4,468.2,-879.2,126.46
2025-09-08 19:49:30.188,-0.008,-0.035,1.005,0.0,-0.0,0.0,-171.6,469.8,-874.9,126.58
2025-09-08 19:49:30.199,-0.008,-0.035,1.002,0.0,-0.0,0.0,-171.6,469.8,-874.9,126.43
2025-09-08 19:49:30.210,-0.007,-0.036,1.002,0.0,-0.0,0.0,-170.4,467.9,-875.6,126.32
2025-09-08 19:49:30.221,-0.007,-0.036,1.003,0.0,-0.0,0.0,-168.0,469.6,-877.9,126.52
2025-09-08 19:49:30.232,-0.008,-0.035,1.004,0.0,-0.0,0.0,-167.6,469.3,-876.0,126.62
2025-09-08 19:49:30.243,-0.007,-0.034,1.004,0.0,-0.0,0.0,-169.5,470.3,-877.0,126.39
2025-09-08 19:49:30.254,-0.008,-0.035,1.005,0.0,-0.0,0.0,-168.0,469.1,-879.2,126.87
2025-09-08 19:49:30.265,-0.008,-0.035,1.004,0.0,-0.0,0.0,-168.6,468.2,-877.2,126.86
2025-09-08 19:49:30.276,-0.007,-0.035,1.003,0.0,-0.0,0.0,-168.6,468.2,-877.2,127.06
2025-09-08 19:49:30.287,-0.007,-0.035,1.004,0.0,-0.0,0.0,-164.2,469.1,-885.1,126.74
2025-09-08 19:49:30.298,-0.008,-0.035,1.004,0.0,-0.0,0.0,-167.6,468.7,-879.6,125.82
2025-09-08 19:49:30.309,-0.007,-0.035,1.004,0.0,-0.0,0.0,-170.9,467.5,-880.0,126.39
2025-09-08 19:49:30.320,-0.007,-0.037,1.003,0.0,-0.0,0.0,-161.6,473.3,-884.8,125.69
2025-09-08 19:49:30.331,-0.007,-0.034,1.003,0.0,-0.0,0.0,-168.0,468.4,-874.6,126.7
2025-09-08 19:49:30.342,-0.007,-0.035,1.003,0.0,-0.0,0.0,-167.6,468.9,-870.1,126.85
2025-09-08 19:49:30.353,-0.008,-0.035,1.004,0.0,-0.0,0.0,-167.6,468.9,-870.1,126.26
2025-09-08 19:49:30.364,-0.008,-0.035,1.004,0.0,-0.0,0.0,-170.4,472.9,-873.9,126.34
2025-09-08 19:49:30.375,-0.008,-0.035,1.003,0.0,-0.0,0.0,-169.4,474.0,-873.9,126.42
2025-09-08 19:49:30.386,-0.008,-0.035,1.004,0.0,-0.0,0.0,-165.3,470.4,-882.3,126.52
2025-09-08 19:49:30.397,-0.008,-0.035,1.005,0.0,-0.0,0.0,-164.5,469.3,-870.8,126.7
2025-09-08 19:49:30.408,-0.007,-0.035,1.005,0.0,-0.0,0.0,-169.5,472.5,-876.5,126.43
2025-09-08 19:49:30.419,-0.007,-0.036,1.005,0.0,-0.0,0.0,-166.5,472.4,-879.6,126.7
2025-09-08 19:49:30.430,-0.008,-0.035,1.003,0.0,-0.0,0.0,-166.5,472.4,-879.6,127.07
2025-09-08 19:49:30.441,-0.008,-0.034,1.003,0.0,-0.0,0.0,-167.3,470.0,-882.1,126.51
2025-09-08 19:49:30.452,-0.009,-0.035,1.004,0.0,-0.0,0.0,-167.9,472.6,-875.6,127.12
2025-09-08 19:49:30.463,-0.008,-0.035,1.003,0.0,-0.0,0.0,-167.9,472.2,-885.6,126.2
2025-09-08 19:49:30.474,-0.008,-0.035,1.003,0.0,-0.0,0.0,-171.9,474.6,-881.3,126.47
2025-09-08 19:49:30.485,-0.007,-0.035,1.005,0.0,-0.0,0.0,-169.7,473.3,-880.6,126.59
2025-09-08 19:49:30.496,-0.007,-0.036,1.004,0.0,-0.0,0.0,-168.4,477.3,-877.7,126.64
2025-09-08 19:49:30.507,-0.008,-0.036,1.005,0.0,-0.0,0.0,-168.4,477.3,-871.2,126.52
2025-09-08 19:49:30.518,-0.007,-0.035,1.004,0.0,-0.0,0.0,-170.0,472.4,-871.2,126.45
2025-09-08 19:49:30.529,-0.008,-0.035,1.002,0.0,-0.0,0.0,-168.4,474.3,-878.9,126.63
2025-09-08 19:49:30.540,-0.007,-0.035,1.002,0.0,-0.0,0.0,-167.3,472.4,-879.8,126.5
2025-09-08 19:49:30.551,-0.008,-0.034,1.004,0.0,-0.0,0.0,-166.9,472.4,-872.2,126.39
2025-09-08 19:49:30.562,-0.005,-0.036,1.007,0.0,-0.0,0.0,-167.3,474.5,-872.6,126.97
2025-09-08 19:49:30.573,-0.01,-0.035,1.004,0.0,-0.0,0.0,-168.3,471.0,-879.2,127.26
2025-09-08 19:49:30.584,-0.008,-0.035,1.005,0.0,-0.0,0.0,-168.3,472.6,-877.7,126.23
2025-09-08 19:49:30.595,-0.008,-0.035,1.004,0.0,-0.0,0.0,-166.2,472.6,-877.7,126.85
2025-09-08 19:49:30.606,-0.007,-0.035,1.004,0.0,-0.0,0.0,-166.5,472.1,-882.1,126.73
2025-09-08 19:49:30.617,-0.008,-0.035,1.003,0.0,-0.0,0.0,-165.8,471.1,-883.5,126.84
2025-09-08 19:49:30.628,-0.008,-0.034,1.003,0.0,-0.0,0.0,-164.1,474.2,-882.4,127.07
2025-09-08 19:49:30.639,-0.008,-0.035,1.003,0.0,-0.0,0.0,-167.2,468.6,-884.2,126.62
2025-09-08 19:49:30.650,-0.007,-0.035,1.003,0.0,-0.0,0.0,-172.2,470.7,-887.3,126.61
2025-09-08 19:49:30.661,-0.007,-0.035,1.004,0.0,-0.0,0.0,-164.4,472.1,-875.4,126.77
2025-09-08 19:49:30.672,-0.008,-0.036,1.004,0.0,-0.0,0.0,-164.4,472.1,-875.4,126.38
2025-09-08 19:49:30.683,-0.007,-0.035,1.004,0.0,-0.0,0.0,-164.4,469.0,-880.3,126.61
2025-09-08 19:49:30.694,-0.007,-0.036,1.004,0.0,-0.0,0.0,-165.9,470.7,-881.2,126.09
2025-09-08 19:49:30.705,-0.006,-0.035,1.006,0.0,-0.0,0.0,-165.8,470.5,-881.6,126.69
2025-09-08 19:49:30.716,-0.009,-0.036,1.003,0.0,-0.0,0.0,-167.4,468.6,-879.9,126.47
2025-09-08 19:49:30.727,-0.009,-0.035,1.002,0.0,-0.0,0.0,-167.3,468.2,-880.2,126.54
2025-09-08 19:49:30.738,-0.008,-0.035,1.003,0.0,-0.0,0.0,-168.3,469.1,-877.4,126.4
2025-09-08 19:49:30.749,-0.007,-0.033,1.005,0.0,-0.0,0.0,-168.3,469.1,-877.4,126.56
2025-09-08 19:49:30.760,-0.007,-0.036,1.005,0.0,-0.0,0.0,-169.1,465.6,-877.7,126.89
2025-09-08 19:49:30.771,-0.009,-0.036,1.004,0.0,-0.0,0.0,-166.5,471.0,-879.1,126.11
2025-09-08 19:49:30.782,-0.007,-0.034,1.003,0.0,-0.0,0.0,-167.4,467.9,-876.3,126.28
2025-09-08 19:49:30.793,-0.008,-0.035,1.003,0.0,-0.0,0.0,-169.4,470.8,-872.9,126.35
2025-09-08 19:49:30.805,-0.007,-0.034,1.003,0.0,-0.0,0.0,-174.2,467.7,-879.8,126.6
2025-09-08 19:49:30.816,-0.008,-0.034,1.004,0.0,-0.0,0.0,-172.1,467.2,-871.6,125.48
2025-09-08 19:49:30.826,-0.008,-0.036,1.005,0.0,-0.0,0.0,-172.1,467.2,-871.6,126.02
2025-09-08 19:49:30.837,-0.008,-0.035,1.002,0.0,-0.0,0.0,-175.6,471.8,-872.2,127.01
2025-09-08 19:49:30.849,-0.008,-0.034,1.003,0.0,-0.0,0.0,-170.5,469.4,-871.4,125.91
2025-09-08 19:49:30.861,-0.008,-0.034,1.005,0.0,-0.0,0.0,-174.4,473.1,-880.0,126.73
2025-09-08 19:49:30.870,-0.007,-0.035,1.003,0.0,-0.0,0.0,-167.3,466.8,-881.3,126.02
2025-09-08 19:49:30.882,-0.008,-0.036,1.003,0.0,-0.0,0.0,-171.5,470.0,-881.3,126.38
2025-09-08 19:49:30.892,-0.007,-0.035,1.003,0.0,-0.0,0.0,-167.6,470.7,-885.2,126.83
2025-09-08 19:49:30.903,-0.008,-0.035,1.003,0.0,-0.0,0.0,-167.6,470.7,-885.2,126.57
2025-09-08 19:49:30.915,-0.007,-0.037,1.003,0.0,-0.0,0.0,-168.6,469.8,-880.0,126.35
2025-09-08 19:49:30.925,-0.008,-0.036,1.006,0.0,-0.0,0.0,-168.0,472.1,-878.1,127.07
2025-09-08 19:49:30.936,-0.007,-0.036,1.004,0.0,-0.0,0.0,-166.6,468.9,-885.9,126.31
2025-09-08 19:49:30.948,-0.007,-0.035,1.003,0.0,-0.0,0.0,-168.0,470.1,-885.1,126.59
2025-09-08 19:49:30.958,-0.008,-0.035,1.001,0.0,-0.0,0.0,-166.9,470.1,-881.9,126.6
2025-09-08 19:49:30.969,-0.007,-0.035,1.005,0.0,-0.0,0.0,-168.6,468.6,-883.0,127.0
2025-09-08 19:49:30.980,-0.008,-0.036,1.004,0.0,-0.0,0.0,-168.6,468.6,-883.0,126.93
2025-09-08 19:49:30.991,-0.007,-0.034,1.003,0.0,-0.0,0.0,-168.0,469.4,-883.5,126.36
2025-09-08 19:49:31.002,-0.007,-0.035,1.004,0.0,-0.0,0.0,-165.6,472.9,-884.0,126.74
2025-09-08 19:49:31.013,-0.007,-0.034,1.004,0.0,-0.0,0.0,-166.2,470.8,-880.9,126.8
2025-09-08 19:49:31.024,-0.007,-0.036,1.004,0.0,-0.0,0.0,-163.2,474.7,-881.7,126.63
2025-09-08 19:49:31.035,-0.008,-0.035,1.004,0.0,-0.0,0.0,-161.3,473.6,-876.5,126.96
2025-09-08 19:49:31.046,-0.007,-0.035,1.005,0.0,-0.0,0.0,-164.2,474.9,-885.8,126.17
2025-09-08 19:49:31.057,-0.008,-0.036,1.002,0.0,-0.0,0.0,-164.2,474.9,-885.8,126.53
2025-09-08 19:49:31.068,-0.008,-0.036,1.004,0.0,-0.0,0.0,-162.1,471.9,-877.5,126.97
2025-09-08 19:49:31.079,-0.008,-0.036,1.004,0.0,-0.0,0.0,-165.3,475.2,-876.5,126.24
2025-09-08 19:49:31.090,-0.008,-0.036,1.003,0.0,-0.0,0.0,-166.7,472.1,-878.4,126.54
2025-09-08 19:49:31.101,-0.006,-0.035,1.004,0.0,-0.0,0.0,-162.5,472.1,-878.2,126.41
2025-09-08 19:49:31.112,-0.008,-0.034,1.004,0.0,-0.0,0.0,-163.1,469.6,-877.7,126.28
2025-09-08 19:49:31.123,-0.007,-0.035,1.005,0.0,-0.0,0.0,-163.1,469.7,-872.3,126.7
2025-09-08 19:49:31.134,-0.008,-0.036,1.003,0.0,-0.0,0.0,-163.1,469.7,-872.3,126.48
2025-09-08 19:49:31.145,-0.008,-0.036,1.004,0.0,-0.0,0.0,-164.2,469.7,-879.8,126.37
2025-09-08 19:49:31.156,-0.007,-0.036,1.004,0.0,-0.0,0.0,-161.3,472.1,-875.0,126.29
2025-09-08 19:49:31.167,-0.007,-0.035,1.004,0.0,-0.0,0.0,-166.3,475.0,-873.2,126.43
2025-09-08 19:49:31.178,-0.008,-0.035,1.004,0.0,-0.0,0.0,-166.7,471.9,-879.1,126.32
2025-09-08 19:49:31.189,-0.008,-0.035,1.005,0.0,-0.0,0.0,-166.0,469.1,-875.6,126.84
2025-09-08 19:49:31.200,-0.009,-0.036,1.004,0.0,-0.0,0.0,-165.2,475.0,-874.2,125.54
2025-09-08 19:49:31.211,-0.006,-0.035,1.004,0.0,-0.0,0.0,-165.2,475.0,-874.2,126.43
2025-09-08 19:49:31.222,-0.008,-0.035,1.004,0.0,-0.0,0.0,-171.5,472.2,-871.9,126.94
2025-09-08 19:49:31.233,-0.008,-0.036,1.004,0.0,-0.0,0.0,-170.2,471.9,-877.4,126.23
2025-09-08 19:49:31.244,-0.008,-0.035,1.005,0.0,-0.0,0.0,-167.2,473.1,-876.3,126.98
2025-09-08 19:49:31.255,-0.007,-0.036,1.003,0.0,-0.0,0.0,-166.3,471.1,-874.7,126.66
2025-09-08 19:49:31.266,-0.007,-0.035,1.005,0.0,-0.0,0.0,-170.1,474.9,-872.2,127.05
2025-09-08 19:49:31.277,-0.008,-0.035,1.003,0.0,-0.0,0.0,-163.8,472.2,-874.9,126.74
2025-09-08 19:49:31.288,-0.006,-0.035,1.005,0.0,-0.0,0.0,-163.8,472.2,-883.8,126.58
2025-09-08 19:49:31.299,-0.007,-0.035,1.005,0.0,-0.0,0.0,-170.7,468.0,-883.8,126.73
2025-09-08 19:49:31.310,-0.008,-0.036,1.004,0.0,-0.0,0.0,-166.7,471.9,-879.5,126.47
2025-09-08 19:49:31.321,-0.008,-0.035,1.004,0.0,-0.0,0.0,-169.3,473.5,-873.6,126.03
2025-09-08 19:49:31.332,-0.008,-0.035,1.004,0.0,-0.0,0.0,-168.7,472.4,-868.3,126.89
2025-09-08 19:49:31.344,-0.007,-0.034,1.004,0.0,-0.0,0.0,-166.9,471.5,-877.1,126.62
2025-09-08 19:49:31.354,-0.008,-0.035,1.004,0.0,-0.0,0.0,-164.5,473.3,-878.6,126.59
2025-09-08 19:49:31.365,-0.007,-0.034,1.005,0.0,-0.0,0.0,-164.5,474.9,-876.4,126.22
2025-09-08 19:49:31.376,-0.006,-0.035,1.004,0.0,-0.0,0.0,-168.6,474.9,-876.4,126.15
2025-09-08 19:49:31.387,-0.007,-0.035,1.004,0.0,-0.0,0.0,-164.6,466.5,-879.6,126.66
2025-09-08 19:49:31.398,-0.009,-0.035,1.003,0.0,-0.0,0.0,-163.2,469.4,-875.0,126.42
2025-09-08 19:49:31.410,-0.007,-0.036,1.005,0.0,-0.0,0.0,-167.2,466.8,-877.5,126.52
2025-09-08 19:49:31.420,-0.008,-0.035,1.003,0.0,-0.0,0.0,-164.8,467.9,-875.1,126.33
2025-09-08 19:49:31.436,-0.008,-0.035,1.004,0.0,-0.0,0.0,-167.6,466.2,-875.8,126.37
2025-09-08 19:49:31.444,-0.008,-0.034,1.004,0.0,-0.0,0.0,-166.9,464.5,-880.5,126.92
2025-09-08 19:49:31.455,-0.008,-0.035,1.004,0.0,-0.0,0.0,-166.9,464.5,-880.5,126.57
2025-09-08 19:49:31.464,-0.007,-0.036,1.003,0.0,-0.0,0.0,-165.3,467.5,-878.1,126.57
2025-09-08 19:49:31.476,-0.007,-0.036,1.004,0.0,-0.0,0.0,-162.3,467.5,-880.0,126.57
2025-09-08 19:49:31.489,-0.008,-0.034,1.005,0.0,-0.0,0.0,-164.2,468.6,-875.8,126.34
2025-09-08 19:49:31.497,-0.007,-0.035,1.004,0.0,-0.0,0.0,-167.9,466.8,-879.3,126.13
2025-09-08 19:49:31.509,-0.008,-0.035,1.003,0.0,-0.0,0.0,-167.4,466.8,-875.7,126.72
2025-09-08 19:49:31.520,-0.009,-0.034,1.002,0.0,-0.0,0.0,-166.0,470.3,-880.3,125.88
2025-09-08 19:49:31.530,-0.007,-0.035,1.003,0.0,-0.0,0.0,-166.0,470.3,-880.3,126.48
2025-09-08 19:49:31.542,-0.008,-0.035,1.004,0.0,-0.0,0.0,-167.4,469.6,-882.6,126.76
2025-09-08 19:49:31.554,-0.007,-0.035,1.004,0.0,-0.0,0.0,-167.0,471.0,-877.1,126.93
2025-09-08 19:49:31.563,-0.009,-0.035,1.003,0.0,-0.0,0.0,-167.3,472.4,-877.1,126.81
2025-09-08 19:49:31.575,-0.008,-0.035,1.002,0.0,-0.0,0.0,-166.2,474.0,-881.3,126.72
2025-09-08 19:49:31.586,-0.008,-0.035,1.005,0.0,-0.0,0.0,-167.4,472.8,-882.4,126.2
2025-09-08 19:49:31.597,-0.007,-0.035,1.003,0.0,-0.0,0.0,-165.5,474.2,-883.7,126.64
2025-09-08 19:49:31.608,-0.008,-0.036,1.005,0.0,-0.0,0.0,-165.5,474.2,-883.7,126.45
2025-09-08 19:49:31.618,-0.007,-0.036,1.004,0.0,-0.0,0.0,-162.8,474.6,-881.9,126.87
2025-09-08 19:49:31.629,-0.006,-0.034,1.004,0.0,-0.0,0.0,-163.9,473.1,-879.2,126.31
2025-09-08 19:49:31.640,-0.006,-0.036,1.003,0.0,-0.0,0.0,-170.9,469.4,-878.9,126.63
2025-09-08 19:49:31.651,-0.008,-0.034,1.004,0.0,-0.0,0.0,-168.4,469.0,-877.0,126.36
2025-09-08 19:49:31.662,-0.007,-0.035,1.004,0.0,-0.0,0.0,-167.4,473.2,-882.7,126.53
2025-09-08 19:49:31.673,-0.007,-0.035,1.004,0.0,-0.0,0.0,-170.9,475.3,-878.4,126.87
2025-09-08 19:49:31.684,-0.008,-0.035,1.003,0.0,-0.0,0.0,-170.9,475.3,-878.4,126.57
2025-09-08 19:49:31.695,-0.007,-0.036,1.003,0.0,-0.0,0.0,-166.2,466.2,-876.3,126.01
2025-09-08 19:49:31.706,-0.008,-0.035,1.004,0.0,-0.0,0.0,-170.8,471.7,-878.6,126.37
2025-09-08 19:49:31.717,-0.009,-0.036,1.005,0.0,-0.0,0.0,-169.7,471.7,-879.5,126.4
2025-09-08 19:49:31.728,-0.007,-0.034,1.005,0.0,-0.0,0.0,-168.3,470.3,-880.2,126.58
2025-09-08 19:49:31.739,-0.007,-0.035,1.003,0.0,-0.0,0.0,-169.8,471.0,-880.5,126.65
2025-09-08 19:49:31.750,-0.008,-0.034,1.004,0.0,-0.0,0.0,-168.3,470.0,-883.7,126.08
2025-09-08 19:49:31.761,-0.008,-0.035,1.004,0.0,-0.0,0.0,-168.3,470.0,-883.7,126.75
2025-09-08 19:49:31.772,-0.008,-0.036,1.005,0.0,-0.0,0.0,-167.6,467.9,-884.1,126.59
2025-09-08 19:49:31.783,-0.008,-0.035,1.003,0.0,-0.0,0.0,-164.8,468.0,-880.2,125.98
2025-09-08 19:49:31.794,-0.007,-0.035,1.004,0.0,-0.0,0.0,-167.7,469.1,-880.5,126.64
2025-09-08 19:49:31.805,-0.007,-0.035,1.004,0.0,-0.0,0.0,-165.8,467.5,-883.1,126.23
2025-09-08 19:49:31.816,-0.008,-0.035,1.006,0.0,-0.0,0.0,-164.4,470.7,-876.5,126.43
2025-09-08 19:49:31.827,-0.007,-0.035,1.004,0.0,-0.0,0.0,-168.0,470.7,-878.1,126.64
2025-09-08 19:49:31.838,-0.009,-0.035,1.003,0.0,-0.0,0.0,-168.0,470.7,-878.1,126.74
2025-09-08 19:49:31.849,-0.008,-0.035,1.004,0.0,-0.0,0.0,-167.2,475.3,-869.8,126.85
2025-09-08 19:49:31.860,-0.008,-0.035,1.004,0.0,-0.0,0.0,-167.0,473.1,-875.0,125.69
2025-09-08 19:49:31.871,-0.007,-0.035,1.004,0.0,-0.0,0.0,-163.1,472.1,-878.1,126.58
2025-09-08 19:49:31.882,-0.008,-0.035,1.004,0.0,-0.0,0.0,-165.3,472.1,-872.6,126.45
2025-09-08 19:49:31.894,-0.007,-0.036,1.004,0.0,-0.0,0.0,-168.0,471.4,-874.6,126.26
2025-09-08 19:49:31.904,-0.008,-0.035,1.004,0.0,-0.0,0.0,-167.6,472.5,-879.9,126.27
2025-09-08 19:49:31.915,-0.008,-0.036,1.005,0.0,-0.0,0.0,-167.6,472.5,-879.9,126.03
2025-09-08 19:49:31.926,-0.008,-0.036,1.005,0.0,-0.0,0.0,-165.6,469.4,-874.7,126.17
2025-09-08 19:49:31.937,-0.008,-0.035,1.003,0.0,-0.0,0.0,-168.3,468.7,-877.4,126.23
2025-09-08 19:49:31.948,-0.008,-0.035,1.005,0.0,-0.0,0.0,-171.2,469.0,-872.9,126.5
2025-09-08 19:49:31.959,-0.009,-0.035,1.003,0.0,-0.0,0.0,-172.9,468.2,-874.4,127.01
2025-09-08 19:49:31.970,-0.007,-0.035,1.004,0.0,-0.0,0.0,-168.7,467.5,-878.6,127.14
2025-09-08 19:49:31.982,-0.008,-0.034,1.004,0.0,-0.0,0.0,-170.4,470.5,-877.2,126.05
2025-09-08 19:49:31.992,-0.007,-0.036,1.005,0.0,-0.0,0.0,-170.4,470.5,-877.2,126.27
2025-09-08 19:49:32.003,-0.008,-0.035,1.003,0.0,-0.0,0.0,-170.7,471.1,-876.1,126.93
2025-09-08 19:49:32.014,-0.009,-0.035,1.003,0.0,-0.0,0.0,-172.8,466.2,-871.8,126.31
2025-09-08 19:49:32.025,-0.008,-0.036,1.005,0.0,-0.0,0.0,-166.6,467.3,-869.3,125.88
2025-09-08 19:49:32.036,-0.007,-0.034,1.005,0.0,-0.0,0.0,-167.2,473.2,-876.4,126.7
2025-09-08 19:49:32.047,-0.007,-0.034,1.005,0.0,-0.0,0.0,-170.0,470.0,-876.7,126.08
2025-09-08 19:49:32.058,-0.008,-0.035,1.004,0.0,-0.0,0.0,-169.1,468.2,-879.1,126.59
2025-09-08 19:49:32.069,-0.007,-0.035,1.004,0.0,-0.0,0.0,-169.1,468.2,-876.0,126.36
2025-09-08 19:49:32.080,-0.007,-0.035,1.003,0.0,-0.0,0.0,-168.0,468.9,-876.0,126.29
2025-09-08 19:49:32.091,-0.006,-0.035,1.005,0.0,-0.0,0.0,-171.1,467.3,-877.5,126.65
2025-09-08 19:49:32.102,-0.008,-0.034,1.003,0.0,-0.0,0.0,-169.7,470.5,-885.9,126.01
2025-09-08 19:49:32.113,-0.007,-0.034,1.004,0.0,-0.0,0.0,-165.9,472.8,-882.6,126.03
2025-09-08 19:49:32.124,-0.008,-0.035,1.004,0.0,-0.0,0.0,-169.3,469.0,-879.1,126.64
2025-09-08 19:49:32.135,-0.007,-0.035,1.004,0.0,-0.0,0.0,-167.2,470.4,-882.4,126.41
2025-09-08 19:49:32.146,-0.008,-0.036,1.003,0.0,-0.0,0.0,-167.2,473.2,-878.8,126.61
2025-09-08 19:49:32.157,-0.007,-0.034,1.004,0.0,-0.0,0.0,-165.8,473.2,-878.8,126.72
2025-09-08 19:49:32.168,-0.007,-0.036,1.005,0.0,-0.0,0.0,-169.8,468.2,-884.1,126.57
2025-09-08 19:49:32.179,-0.009,-0.035,1.005,0.0,-0.0,0.0,-169.3,469.3,-882.4,126.5
2025-09-08 19:49:32.190,-0.007,-0.035,1.004,0.0,-0.0,0.0,-169.0,468.2,-886.3,125.85
2025-09-08 19:49:32.201,-0.009,-0.035,1.003,0.0,-0.0,0.0,-168.7,467.9,-881.0,126.97
2025-09-08 19:49:32.212,-0.007,-0.035,1.004,0.0,-0.0,0.0,-170.1,466.3,-881.3,126.81
2025-09-08 19:49:32.223,-0.008,-0.034,1.003,0.0,-0.0,0.0,-170.2,461.2,-875.4,125.92
2025-09-08 19:49:32.234,-0.007,-0.036,1.004,0.0,-0.0,0.0,-170.2,461.2,-875.4,126.63
2025-09-08 19:49:32.245,-0.007,-0.036,1.004,0.0,-0.0,0.0,-168.0,465.2,-875.6,126.16
2025-09-08 19:49:32.256,-0.007,-0.036,1.005,0.0,-0.0,0.0,-167.9,465.5,-873.5,125.77
2025-09-08 19:49:32.267,-0.007,-0.036,1.005,0.0,-0.0,0.0,-167.6,467.6,-876.0,126.47
2025-09-08 19:49:32.278,-0.008,-0.036,1.003,0.0,-0.0,0.0,-166.5,471.1,-879.6,127.0
2025-09-08 19:49:32.289,-0.007,-0.034,1.004,0.0,-0.0,0.0,-170.1,464.8,-877.5,126.1
2025-09-08 19:49:32.300,-0.007,-0.035,1.003,0.0,-0.0,0.0,-171.2,471.0,-881.9,126.45
2025-09-08 19:49:32.311,-0.009,-0.035,1.004,0.0,-0.0,0.0,-171.2,471.0,-881.9,126.47
2025-09-08 19:49:32.322,-0.008,-0.036,1.005,0.0,-0.0,0.0,-168.7,467.3,-877.9,126.57
2025-09-08 19:49:32.333,-0.007,-0.035,1.005,0.0,-0.0,0.0,-166.5,469.0,-879.5,126.93
2025-09-08 19:49:32.344,-0.006,-0.035,1.004,0.0,-0.0,0.0,-165.8,468.4,-875.6,126.34
2025-09-08 19:49:32.355,-0.008,-0.035,1.004,0.0,-0.0,0.0,-170.0,466.5,-878.9,126.67
2025-09-08 19:49:32.366,-0.007,-0.035,1.004,0.0,-0.0,0.0,-164.8,467.3,-874.2,127.08
2025-09-08 19:49:32.377,-0.008,-0.035,1.003,0.0,-0.0,0.0,-166.5,469.3,-875.4,126.66
2025-09-08 19:49:32.388,-0.007,-0.035,1.002,0.0,-0.0,0.0,-166.5,469.3,-875.4,126.7
2025-09-08 19:49:32.399,-0.009,-0.037,1.003,0.0,-0.0,0.0,-168.6,468.4,-876.1,127.02
2025-09-08 19:49:32.410,-0.007,-0.035,1.004,0.0,-0.0,0.0,-169.3,472.1,-881.2,126.21
2025-09-08 19:49:32.421,-0.007,-0.034,1.005,0.0,-0.0,0.0,-163.4,471.1,-880.5,127.22
2025-09-08 19:49:32.432,-0.009,-0.035,1.004,0.0,-0.0,0.0,-168.3,468.0,-880.2,126.52
2025-09-08 19:49:32.443,-0.008,-0.035,1.004,0.0,-0.0,0.0,-168.7,468.9,-878.4,126.12
2025-09-08 19:49:32.454,-0.007,-0.035,1.003,0.0,-0.0,0.0,-166.9,469.7,-881.2,126.23
2025-09-08 19:49:32.465,-0.008,-0.036,1.003,0.0,-0.0,0.0,-166.9,469.7,-881.2,126.28
2025-09-08 19:49:32.476,-0.007,-0.036,1.004,0.0,-0.0,0.0,-168.8,468.6,-880.9,126.45
2025-09-08 19:49:32.487,-0.007,-0.035,1.004,0.0,-0.0,0.0,-167.9,470.1,-884.4,126.46
2025-09-08 19:49:32.498,-0.008,-0.035,1.004,0.0,-0.0,0.0,-165.3,463.0,-888.7,126.72
2025-09-08 19:49:32.509,-0.007,-0.035,1.004,0.0,-0.0,0.0,-166.9,470.5,-882.6,126.33
2025-09-08 19:49:32.520,-0.007,-0.035,1.003,0.0,-0.0,0.0,-165.9,475.9,-876.7,126.37
2025-09-08 19:49:32.531,-0.007,-0.036,1.005,0.0,-0.0,0.0,-165.3,469.0,-882.3,126.53
2025-09-08 19:49:32.542,-0.008,-0.035,1.005,0.0,-0.0,0.0,-165.3,469.0,-882.3,126.35
2025-09-08 19:49:32.553,-0.008,-0.033,1.004,0.0,-0.0,0.0,-167.2,469.1,-878.1,126.45
2025-09-08 19:49:32.564,-0.007,-0.035,1.004,0.0,-0.0,0.0,-164.9,468.7,-878.9,126.67
2025-09-08 19:49:32.575,-0.007,-0.036,1.003,0.0,-0.0,0.0,-164.2,467.0,-878.5,126.45
2025-09-08 19:49:32.586,-0.008,-0.035,1.004,0.0,-0.0,0.0,-164.8,469.3,-882.0,126.71
2025-09-08 19:49:32.597,-0.007,-0.035,1.004,0.0,-0.0,0.0,-163.7,466.9,-881.0,126.75
2025-09-08 19:49:32.608,-0.008,-0.035,1.004,0.0,-0.0,0.0,-166.6,467.3,-877.4,126.21
2025-09-08 19:49:32.619,-0.007,-0.035,1.003,0.0,-0.0,0.0,-166.6,467.3,-877.4,126.7
2025-09-08 19:49:32.630,-0.007,-0.035,1.004,0.0,-0.0,0.0,-167.4,467.5,-882.7,125.48
2025-09-08 19:49:32.641,-0.008,-0.034,1.004,0.0,-0.0,0.0,-167.4,464.4,-880.9,126.85
2025-09-08 19:49:32.652,-0.008,-0.035,1.005,0.0,-0.0,0.0,-166.5,467.3,-877.0,126.64
2025-09-08 19:49:32.663,-0.008,-0.035,1.004,0.0,-0.0,0.0,-165.6,469.8,-878.4,126.31
2025-09-08 19:49:32.674,-0.007,-0.035,1.003,0.0,-0.0,0.0,-167.7,470.5,-879.3,126.31
2025-09-08 19:49:32.685,-0.007,-0.035,1.003,0.0,-0.0,0.0,-169.4,471.7,-878.8,126.7
2025-09-08 19:49:32.696,-0.008,-0.036,1.005,0.0,-0.0,0.0,-169.4,471.7,-878.8,126.58
2025-09-08 19:49:32.707,-0.007,-0.035,1.005,0.0,-0.0,0.0,-165.8,470.5,-883.7,126.36
2025-09-08 19:49:32.718,-0.007,-0.034,1.004,0.0,-0.0,0.0,-170.4,472.6,-876.4,126.43
2025-09-08 19:49:32.729,-0.008,-0.035,1.001,0.0,-0.0,0.0,-168.6,471.7,-878.6,127.11
2025-09-08 19:49:32.740,-0.009,-0.035,1.004,0.0,-0.0,0.0,-166.2,471.1,-881.7,126.03
2025-09-08 19:49:32.751,-0.007,-0.035,1.002,0.0,-0.0,0.0,-166.3,467.9,-879.3,126.09
2025-09-08 19:49:32.762,-0.009,-0.036,1.003,0.0,-0.0,0.0,-163.9,466.9,-881.7,127.02
2025-09-08 19:49:32.773,-0.008,-0.034,1.004,0.0,-0.0,0.0,-163.9,466.9,-881.7,126.76
2025-09-08 19:49:32.785,-0.008,-0.034,1.003,0.0,-0.0,0.0,-165.2,469.3,-881.3,126.94
2025-09-08 19:49:32.796,-0.008,-0.036,1.003,0.0,-0.0,0.0,-166.3,470.7,-882.0,127.0
2025-09-08 19:49:32.806,-0.007,-0.034,1.006,0.0,-0.0,0.0,-166.6,464.7,-881.7,126.17
2025-09-08 19:49:32.817,-0.009,-0.034,1.004,0.0,-0.0,0.0,-168.1,468.7,-877.7,126.0
2025-09-08 19:49:32.829,-0.007,-0.035,1.003,0.0,-0.0,0.0,-169.0,468.3,-877.8,126.57
2025-09-08 19:49:32.840,-0.008,-0.034,1.003,0.0,-0.0,0.0,-168.7,467.5,-879.1,126.93
2025-09-08 19:49:32.851,-0.008,-0.035,1.005,0.0,-0.0,0.0,-168.7,467.5,-879.1,125.86
2025-09-08 19:49:32.862,-0.009,-0.035,1.003,0.0,-0.0,0.0,-164.2,467.3,-881.7,126.56
2025-09-08 19:49:32.872,-0.007,-0.035,1.005,0.0,-0.0,0.0,-166.7,467.9,-878.2,125.99
2025-09-08 19:49:32.884,-0.006,-0.035,1.005,0.0,-0.0,0.0,-168.1,465.2,-878.2,126.27
2025-09-08 19:49:32.895,-0.007,-0.035,1.004,0.0,-0.0,0.0,-169.1,465.6,-880.6,126.65
2025-09-08 19:49:32.906,-0.009,-0.036,1.004,0.0,-0.0,0.0,-171.2,469.4,-877.4,126.41
2025-09-08 19:49:32.917,-0.008,-0.036,1.004,0.0,-0.0,0.0,-166.3,469.0,-878.6,126.31
2025-09-08 19:49:32.927,-0.008,-0.036,1.004,0.0,-0.0,0.0,-166.3,469.0,-878.6,126.67
2025-09-08 19:49:32.938,-0.007,-0.035,1.003,0.0,-0.0,0.0,-169.4,472.4,-875.8,125.93
2025-09-08 19:49:32.949,-0.007,-0.035,1.005,0.0,-0.0,0.0,-170.1,471.9,-876.3,127.18
2025-09-08 19:49:32.960,-0.008,-0.035,1.004,0.0,-0.0,0.0,-170.9,468.2,-875.3,125.91
2025-09-08 19:49:32.971,-0.008,-0.035,1.004,0.0,-0.0,0.0,-169.7,465.1,-877.8,126.93
2025-09-08 19:49:32.982,-0.008,-0.035,1.003,0.0,-0.0,0.0,-170.7,471.8,-875.6,126.41
2025-09-08 19:49:32.993,-0.007,-0.035,1.004,0.0,-0.0,0.0,-166.9,471.1,-877.1,126.81
2025-09-08 19:49:33.004,-0.009,-0.035,1.004,0.0,-0.0,0.0,-166.9,471.1,-879.1,126.65
2025-09-08 19:49:33.015,-0.009,-0.035,1.003,0.0,-0.0,0.0,-164.5,468.9,-879.1,126.83
2025-09-08 19:49:33.026,-0.007,-0.035,1.003,0.0,-0.0,0.0,-164.5,468.0,-882.8,126.36
2025-09-08 19:49:33.037,-0.007,-0.035,1.005,0.0,-0.0,0.0,-166.2,466.9,-876.4,126.32
2025-09-08 19:49:33.048,-0.007,-0.036,1.003,0.0,-0.0,0.0,-166.3,465.9,-873.2,126.54
2025-09-08 19:49:33.059,-0.008,-0.034,1.005,0.0,-0.0,0.0,-168.7,466.9,-880.6,127.0
2025-09-08 19:49:33.070,-0.007,-0.036,1.004,0.0,-0.0,0.0,-169.1,470.7,-870.9,126.9
2025-09-08 19:49:33.081,-0.008,-0.035,1.002,0.0,-0.0,0.0,-169.1,467.7,-869.8,126.46
2025-09-08 19:49:33.092,-0.008,-0.035,1.003,0.0,-0.0,0.0,-166.6,467.7,-869.8,126.51
2025-09-08 19:49:33.103,-0.007,-0.034,1.004,0.0,-0.0,0.0,-166.6,468.0,-877.4,126.49
2025-09-08 19:49:33.114,-0.008,-0.035,1.004,0.0,-0.0,0.0,-168.7,472.5,-871.5,126.58
2025-09-08 19:49:33.125,-0.008,-0.036,1.004,0.0,-0.0,0.0,-167.6,469.7,-871.9,126.61
2025-09-08 19:49:33.136,-0.007,-0.035,1.004,0.0,-0.0,0.0,-170.0,467.9,-875.7,126.23
2025-09-08 19:49:33.147,-0.007,-0.036,1.004,0.0,-0.0,0.0,-164.6,467.7,-879.9,126.01
2025-09-08 19:49:33.158,-0.008,-0.035,1.005,0.0,-0.0,0.0,-170.0,468.2,-876.3,126.08
2025-09-08 19:49:33.169,-0.008,-0.035,1.005,0.0,-0.0,0.0,-170.0,468.2,-876.3,126.21
2025-09-08 19:49:33.180,-0.009,-0.035,1.003,0.0,-0.0,0.0,-174.3,469.6,-875.3,126.26
2025-09-08 19:49:33.191,-0.008,-0.036,1.004,0.0,-0.0,0.0,-172.3,466.9,-876.7,126.13
2025-09-08 19:49:33.202,-0.008,-0.034,1.003,0.0,-0.0,0.0,-175.6,465.4,-873.6,126.32
2025-09-08 19:49:33.214,-0.008,-0.035,1.005,0.0,-0.0,0.0,-167.6,471.2,-875.0,125.69
2025-09-08 19:49:33.224,-0.008,-0.036,1.004,0.0,-0.0,0.0,-169.1,467.9,-877.2,126.41
2025-09-08 19:49:33.235,-0.008,-0.035,1.005,0.0,-0.0,0.0,-169.7,468.7,-877.4,126.18
2025-09-08 19:49:33.246,-0.009,-0.035,1.003,0.0,-0.0,0.0,-169.7,468.7,-877.4,125.94
2025-09-08 19:49:33.257,-0.008,-0.035,1.003,0.0,-0.0,0.0,-170.5,467.5,-872.6,126.6
2025-09-08 19:49:33.268,-0.007,-0.035,1.004,0.0,-0.0,0.0,-169.8,465.1,-874.4,126.6
2025-09-08 19:49:33.279,-0.008,-0.036,1.005,0.0,-0.0,0.0,-169.4,467.5,-875.0,126.84
2025-09-08 19:49:33.290,-0.007,-0.037,1.003,0.0,-0.0,0.0,-171.2,468.2,-878.1,126.76
2025-09-08 19:49:33.301,-0.007,-0.036,1.004,0.0,-0.0,0.0,-174.2,467.3,-867.0,125.82
2025-09-08 19:49:33.312,-0.007,-0.035,1.003,0.0,-0.0,0.0,-169.4,467.2,-870.2,126.94
2025-09-08 19:49:33.323,-0.008,-0.035,1.004,0.0,-0.0,0.0,-169.4,467.2,-870.2,126.58
2025-09-08 19:49:33.334,-0.007,-0.037,1.005,0.0,-0.0,0.0,-172.5,463.0,-874.0,126.48
2025-09-08 19:49:33.345,-0.007,-0.036,1.004,0.0,-0.0,0.0,-171.1,464.9,-878.4,126.15
2025-09-08 19:49:33.356,-0.008,-0.035,1.004,0.0,-0.0,0.0,-171.4,470.3,-872.2,126.39
2025-09-08 19:49:33.367,-0.008,-0.036,1.004,0.0,-0.0,0.0,-173.5,466.3,-883.1,126.99
2025-09-08 19:49:33.378,-0.008,-0.035,1.005,0.0,-0.0,0.0,-168.6,468.0,-876.8,126.08
2025-09-08 19:49:33.389,-0.007,-0.036,1.005,0.0,-0.0,0.0,-170.7,469.4,-880.3,127.46
2025-09-08 19:49:33.400,-0.009,-0.035,1.004,0.0,-0.0,0.0,-170.7,469.4,-880.3,126.28
2025-09-08 19:49:33.411,-0.008,-0.035,1.004,0.0,-0.0,0.0,-170.8,469.7,-874.3,126.94
2025-09-08 19:49:33.422,-0.009,-0.035,1.004,0.0,-0.0,0.0,-170.0,469.4,-877.9,126.56
2025-09-08 19:49:33.433,-0.007,-0.035,1.005,0.0,-0.0,0.0,-168.8,472.9,-879.1,127.07
2025-09-08 19:49:33.444,-0.009,-0.035,1.004,0.0,-0.0,0.0,-170.7,469.1,-880.6,126.87
2025-09-08 19:49:33.455,-0.008,-0.034,1.003,0.0,-0.0,0.0,-165.8,469.3,-877.4,126.83
2025-09-08 19:49:33.466,-0.008,-0.036,1.003,0.0,-0.0,0.0,-168.0,468.4,-879.6,126.77
2025-09-08 19:49:33.477,-0.008,-0.035,1.004,0.0,-0.0,0.0,-168.0,468.4,-879.6,126.21
2025-09-08 19:49:33.488,-0.008,-0.035,1.004,0.0,-0.0,0.0,-164.9,472.6,-877.0,126.76
2025-09-08 19:49:33.499,-0.007,-0.034,1.004,0.0,-0.0,0.0,-166.3,474.0,-877.8,126.36
2025-09-08 19:49:33.510,-0.008,-0.036,1.003,0.0,-0.0,0.0,-163.2,470.7,-877.8,126.54
2025-09-08 19:49:33.521,-0.008,-0.036,1.004,0.0,-0.0,0.0,-170.2,473.5,-881.0,126.97
2025-09-08 19:49:33.532,-0.008,-0.036,1.003,0.0,-0.0,0.0,-172.8,472.2,-872.9,126.39
2025-09-08 19:49:33.543,-0.007,-0.035,1.004,0.0,-0.0,0.0,-168.3,470.4,-877.9,126.68
2025-09-08 19:49:33.554,-0.007,-0.035,1.004,0.0,-0.0,0.0,-168.3,470.4,-877.9,126.48
2025-09-08 19:49:33.565,-0.008,-0.035,1.003,0.0,-0.0,0.0,-166.2,468.9,-875.4,126.1
2025-09-08 19:49:33.576,-0.008,-0.034,1.005,0.0,-0.0,0.0,-168.3,465.2,-874.4,126.68
2025-09-08 19:49:33.587,-0.008,-0.034,1.005,0.0,-0.0,0.0,-170.4,468.3,-877.7,125.98
2025-09-08 19:49:33.598,-0.008,-0.035,1.004,0.0,-0.0,0.0,-166.5,471.0,-873.7,125.86
2025-09-08 19:49:33.609,-0.009,-0.035,1.002,0.0,-0.0,0.0,-166.2,470.5,-874.2,126.17
2025-09-08 19:49:33.620,-0.008,-0.035,1.004,0.0,-0.0,0.0,-170.7,473.6,-871.9,126.55
2025-09-08 19:49:33.631,-0.007,-0.036,1.004,0.0,-0.0,0.0,-170.7,473.6,-871.9,126.58
2025-09-08 19:49:33.643,-0.007,-0.035,1.004,0.0,-0.0,0.0,-168.3,470.1,-879.8,126.21
2025-09-08 19:49:33.653,-0.006,-0.036,1.003,0.0,-0.0,0.0,-168.0,473.8,-870.7,126.33
2025-09-08 19:49:33.666,-0.009,-0.035,1.004,0.0,-0.0,0.0,-170.5,472.8,-871.1,126.78
2025-09-08 19:49:33.676,-0.008,-0.034,1.004,0.0,-0.0,0.0,-170.4,476.1,-868.0,126.22
2025-09-08 19:49:33.687,-0.007,-0.034,1.003,0.0,-0.0,0.0,-171.5,470.0,-875.0,125.67
2025-09-08 19:49:33.698,-0.008,-0.035,1.005,0.0,-0.0,0.0,-169.5,471.2,-872.3,126.15
2025-09-08 19:49:33.709,-0.008,-0.035,1.005,0.0,-0.0,0.0,-169.5,471.2,-872.3,127.3
2025-09-08 19:49:33.719,-0.007,-0.036,1.004,0.0,-0.0,0.0,-168.4,471.0,-873.3,126.27
2025-09-08 19:49:33.730,-0.007,-0.036,1.003,0.0,-0.0,0.0,-170.7,473.3,-878.9,125.94
2025-09-08 19:49:33.742,-0.007,-0.035,1.004,0.0,-0.0,0.0,-169.7,471.0,-870.2,126.51
2025-09-08 19:49:33.753,-0.007,-0.035,1.004,0.0,-0.0,0.0,-170.2,468.0,-870.8,126.87
2025-09-08 19:49:33.763,-0.008,-0.035,1.004,0.0,-0.0,0.0,-169.1,472.4,-873.5,126.25
2025-09-08 19:49:33.774,-0.007,-0.035,1.004,0.0,-0.0,0.0,-170.4,469.1,-876.0,126.48
2025-09-08 19:49:33.785,-0.007,-0.036,1.002,0.0,-0.0,0.0,-170.4,469.1,-876.7,126.31
2025-09-08 19:49:33.796,-0.007,-0.036,1.003,0.0,-0.0,0.0,-168.1,472.5,-876.7,126.94
2025-09-08 19:49:33.807,-0.007,-0.036,1.004,0.0,-0.0,0.0,-167.9,470.8,-869.7,126.28
2025-09-08 19:49:33.818,-0.007,-0.035,1.004,0.0,-0.0,0.0,-167.2,473.9,-871.5,126.21
2025-09-08 19:49:33.829,-0.007,-0.036,1.004,0.0,-0.0,0.0,-167.7,467.2,-871.1,126.46
2025-09-08 19:49:33.840,-0.008,-0.035,1.002,0.0,-0.0,0.0,-165.6,470.7,-866.7,126.29
2025-09-08 19:49:33.851,-0.008,-0.035,1.004,0.0,-0.0,0.0,-167.9,471.9,-866.2,126.49
2025-09-08 19:49:33.862,-0.006,-0.036,1.004,0.0,-0.0,0.0,-167.9,470.7,-871.4,125.96
2025-09-08 19:49:33.873,-0.008,-0.034,1.004,0.0,-0.0,0.0,-167.4,470.7,-871.4,125.63
2025-09-08 19:49:33.884,-0.008,-0.035,1.004,0.0,-0.0,0.0,-168.8,473.8,-871.2,126.92
2025-09-08 19:49:33.895,-0.009,-0.036,1.005,0.0,-0.0,0.0,-165.6,471.5,-871.8,126.98
2025-09-08 19:49:33.906,-0.008,-0.035,1.005,0.0,-0.0,0.0,-166.7,470.3,-870.1,126.9
2025-09-08 19:49:33.917,-0.008,-0.036,1.004,0.0,-0.0,0.0,-164.5,466.1,-872.1,126.35
2025-09-08 19:49:33.928,-0.007,-0.035,1.003,0.0,-0.0,0.0,-169.3,471.1,-873.6,126.78
2025-09-08 19:49:33.940,-0.007,-0.035,1.004,0.0,-0.0,0.0,-169.3,468.4,-878.1,126.49
2025-09-08 19:49:33.950,-0.007,-0.036,1.004,0.0,-0.0,0.0,-166.7,468.4,-878.1,126.64
2025-09-08 19:49:33.962,-0.007,-0.036,1.003,0.0,-0.0,0.0,-165.9,470.4,-871.4,126.22
2025-09-08 19:49:33.972,-0.007,-0.035,1.002,0.0,-0.0,0.0,-164.8,470.5,-866.2,126.24
2025-09-08 19:49:33.983,-0.008,-0.036,1.004,0.0,-0.0,0.0,-166.7,475.3,-875.6,125.5
2025-09-08 19:49:33.994,-0.008,-0.035,1.004,0.0,-0.0,0.0,-165.2,474.3,-876.1,126.59
2025-09-08 19:49:34.005,-0.007,-0.034,1.004,0.0,-0.0,0.0,-166.3,471.1,-871.9,126.66
2025-09-08 19:49:34.016,-0.007,-0.036,1.003,0.0,-0.0,0.0,-164.9,470.4,-879.6,126.56
2025-09-08 19:49:34.027,-0.007,-0.036,1.004,0.0,-0.0,0.0,-164.9,470.4,-879.6,126.73
2025-09-08 19:49:34.038,-0.008,-0.036,1.004,0.0,-0.0,0.0,-169.3,471.2,-875.0,126.23
2025-09-08 19:49:34.049,-0.007,-0.036,1.002,0.0,-0.0,0.0,-167.7,471.4,-877.9,126.57
2025-09-08 19:49:34.060,-0.008,-0.035,1.004,0.0,-0.0,0.0,-167.3,469.0,-877.7,125.89
2025-09-08 19:49:34.075,-0.008,-0.035,1.004,0.0,-0.0,0.0,-166.2,468.7,-877.1,126.6
2025-09-08 19:49:34.084,-0.007,-0.035,1.003,0.0,-0.0,0.0,-168.8,472.5,-870.8,126.22
2025-09-08 19:49:34.093,-0.007,-0.035,1.004,0.0,-0.0,0.0,-167.0,463.7,-878.9,126.64
2025-09-08 19:49:34.110,-0.007,-0.034,1.005,0.0,-0.0,0.0,-167.0,463.7,-878.9,126.31
2025-09-08 19:49:34.123,-0.007,-0.035,1.003,0.0,-0.0,0.0,-163.1,468.0,-875.6,126.88
2025-09-08 19:49:34.137,-0.008,-0.036,1.003,0.0,-0.0,0.0,-168.7,467.5,-874.2,127.12
2025-09-08 19:49:34.141,-0.007,-0.035,1.004,0.0,-0.0,0.0,-166.2,469.8,-873.3,126.75
2025-09-08 19:49:34.157,-0.008,-0.034,1.004,0.0,-0.0,0.0,-170.1,465.1,-873.7,125.84
2025-09-08 19:49:34.164,-0.007,-0.035,1.006,0.0,-0.0,0.0,-167.6,467.9,-873.9,126.79
2025-09-08 19:49:34.175,-0.008,-0.036,1.005,0.0,-0.0,0.0,-165.9,467.0,-870.5,126.85
2025-09-08 19:49:34.182,-0.007,-0.036,1.005,0.0,-0.0,0.0,-165.9,467.0,-870.5,126.73
2025-09-08 19:49:34.192,-0.008,-0.035,1.004,0.0,-0.0,0.0,-167.2,466.6,-870.1,126.4
2025-09-08 19:49:34.208,-0.007,-0.036,1.004,0.0,-0.0,0.0,-168.3,464.4,-869.3,126.41
2025-09-08 19:49:34.214,-0.008,-0.036,1.005,0.0,-0.0,0.0,-167.6,465.8,-874.2,126.28
2025-09-08 19:49:34.228,-0.007,-0.036,1.004,0.0,-0.0,0.0,-170.4,465.5,-873.7,126.55
2025-09-08 19:49:34.237,-0.008,-0.035,1.004,0.0,-0.0,0.0,-169.5,465.6,-869.4,126.66
2025-09-08 19:49:34.248,-0.008,-0.034,1.003,0.0,-0.0,0.0,-167.3,464.9,-875.1,126.33
2025-09-08 19:49:34.260,-0.008,-0.035,1.005,0.0,-0.0,0.0,-167.3,464.9,-875.1,126.33
2025-09-08 19:49:34.272,-0.008,-0.036,1.005,0.0,-0.0,0.0,-165.5,466.1,-869.5,126.67
2025-09-08 19:49:34.285,-0.007,-0.034,1.005,0.0,-0.0,0.0,-172.6,468.6,-873.5,126.19
2025-09-08 19:49:34.292,-0.007,-0.033,1.002,0.0,-0.0,0.0,-175.6,466.8,-875.0,126.75
2025-09-08 19:49:34.304,-0.008,-0.036,1.003,0.0,-0.0,0.0,-172.8,469.1,-873.5,126.29
2025-09-08 19:49:34.315,-0.009,-0.035,1.004,0.0,-0.0,0.0,-169.4,467.0,-875.7,126.28
2025-09-08 19:49:34.325,-0.009,-0.035,1.005,0.0,-0.0,0.0,-167.9,470.0,-873.7,126.53
2025-09-08 19:49:34.336,-0.008,-0.036,1.003,0.0,-0.0,0.0,-167.9,470.0,-873.7,126.77
2025-09-08 19:49:34.348,-0.008,-0.035,1.004,0.0,-0.0,0.0,-168.7,467.2,-876.4,126.46
2025-09-08 19:49:34.357,-0.008,-0.036,1.004,0.0,-0.0,0.0,-166.3,463.0,-878.9,126.81
2025-09-08 19:49:34.369,-0.006,-0.035,1.004,0.0,-0.0,0.0,-167.9,468.2,-873.9,126.15
2025-09-08 19:49:34.381,-0.008,-0.034,1.005,0.0,-0.0,0.0,-164.2,465.5,-876.4,126.48
2025-09-08 19:49:34.392,-0.006,-0.036,1.003,0.0,-0.0,0.0,-166.9,467.7,-870.9,125.47
2025-09-08 19:49:34.404,-0.008,-0.034,1.002,0.0,-0.0,0.0,-166.2,465.8,-872.5,126.39
2025-09-08 19:49:34.416,-0.009,-0.036,1.004,0.0,-0.0,0.0,-166.2,465.8,-872.5,127.07
2025-09-08 19:49:34.423,-0.007,-0.035,1.005,0.0,-0.0,0.0,-166.9,464.9,-876.0,126.38
2025-09-08 19:49:34.435,-0.008,-0.035,1.004,0.0,-0.0,0.0,-167.0,465.5,-869.7,126.32
2025-09-08 19:49:34.446,-0.008,-0.035,1.004,0.0,-0.0,0.0,-165.1,467.3,-872.1,126.39
2025-09-08 19:49:34.458,-0.008,-0.035,1.004,0.0,-0.0,0.0,-168.0,465.9,-874.9,126.54
2025-09-08 19:49:34.468,-0.007,-0.035,1.004,0.0,-0.0,0.0,-167.2,470.1,-873.6,126.81
2025-09-08 19:49:34.480,-0.007,-0.036,1.004,0.0,-0.0,0.0,-167.0,468.9,-870.1,126.43
2025-09-08 19:49:34.493,-0.008,-0.036,1.004,0.0,-0.0,0.0,-167.0,468.9,-870.1,126.25
2025-09-08 19:49:34.500,-0.008,-0.035,1.003,0.0,-0.0,0.0,-168.0,467.7,-865.8,126.87
2025-09-08 19:49:34.512,-0.008,-0.035,1.002,0.0,-0.0,0.0,-167.6,469.7,-867.9,126.68
2025-09-08 19:49:34.522,-0.007,-0.036,1.006,0.0,-0.0,0.0,-167.3,465.6,-877.5,126.41
2025-09-08 19:49:34.533,-0.007,-0.035,1.004,0.0,-0.0,0.0,-170.4,470.5,-869.1,126.66
2025-09-08 19:49:34.545,-0.008,-0.035,1.003,0.0,-0.0,0.0,-166.9,468.0,-872.9,126.2
2025-09-08 19:49:34.560,-0.007,-0.035,1.004,0.0,-0.0,0.0,-166.9,467.3,-873.9,126.5
2025-09-08 19:49:34.568,-0.007,-0.035,1.004,0.0,-0.0,0.0,-166.9,467.3,-873.9,125.95
2025-09-08 19:49:34.580,-0.007,-0.035,1.004,0.0,-0.0,0.0,-169.7,467.7,-873.7,125.97
2025-09-08 19:49:34.588,-0.008,-0.035,1.004,0.0,-0.0,0.0,-169.4,464.0,-872.5,126.61
2025-09-08 19:49:34.599,-0.008,-0.035,1.004,0.0,-0.0,0.0,-167.0,467.3,-875.7,126.34
2025-09-08 19:49:34.610,-0.008,-0.035,1.004,0.0,-0.0,0.0,-166.7,463.4,-873.9,126.58
2025-09-08 19:49:34.621,-0.007,-0.035,1.004,0.0,-0.0,0.0,-164.1,464.9,-875.3,126.26
2025-09-08 19:49:34.632,-0.007,-0.035,1.003,0.0,-0.0,0.0,-163.2,468.9,-874.0,126.7
2025-09-08 19:49:34.643,-0.007,-0.036,1.005,0.0,-0.0,0.0,-163.2,468.9,-871.2,126.51
2025-09-08 19:49:34.654,-0.008,-0.036,1.002,0.0,-0.0,0.0,-167.4,470.8,-871.2,126.77
2025-09-08 19:49:34.665,-0.007,-0.035,1.004,0.0,-0.0,0.0,-165.8,469.4,-877.2,126.62
2025-09-08 19:49:34.676,-0.007,-0.035,1.004,0.0,-0.0,0.0,-164.4,466.5,-876.4,126.06
2025-09-08 19:49:34.687,-0.007,-0.036,1.005,0.0,-0.0,0.0,-169.3,470.5,-881.0,126.77
2025-09-08 19:49:34.698,-0.008,-0.035,1.004,0.0,-0.0,0.0,-168.8,468.4,-878.8,127.68
2025-09-08 19:49:34.710,-0.008,-0.034,1.004,0.0,-0.0,0.0,-166.9,468.4,-882.3,126.95
2025-09-08 19:49:34.720,-0.007,-0.035,1.004,0.0,-0.0,0.0,-166.9,466.5,-877.4,126.56
2025-09-08 19:49:34.731,-0.008,-0.034,1.004,0.0,-0.0,0.0,-168.7,466.5,-877.4,126.97
2025-09-08 19:49:34.742,-0.007,-0.035,1.003,0.0,-0.0,0.0,-165.8,470.8,-871.1,126.23
2025-09-08 19:49:34.753,-0.008,-0.036,1.003,0.0,-0.0,0.0,-169.5,471.2,-881.2,127.13
2025-09-08 19:49:34.764,-0.008,-0.035,1.004,0.0,-0.0,0.0,-167.0,470.1,-873.0,126.9
2025-09-08 19:49:34.775,-0.007,-0.036,1.004,0.0,-0.0,0.0,-169.5,471.8,-869.5,126.24
2025-09-08 19:49:34.786,-0.008,-0.035,1.005,0.0,-0.0,0.0,-169.1,469.6,-879.5,126.23
2025-09-08 19:49:34.797,-0.007,-0.035,1.004,0.0,-0.0,0.0,-170.9,469.3,-874.9,126.52
2025-09-08 19:49:34.808,-0.008,-0.035,1.004,0.0,-0.0,0.0,-170.9,469.3,-874.9,126.91
2025-09-08 19:49:34.819,-0.008,-0.035,1.005,0.0,-0.0,0.0,-170.5,468.9,-873.6,126.3
2025-09-08 19:49:34.830,-0.007,-0.035,1.003,0.0,-0.0,0.0,-172.2,470.0,-879.2,126.82
2025-09-08 19:49:34.841,-0.007,-0.036,1.004,0.0,-0.0,0.0,-171.1,467.0,-875.7,126.39
2025-09-08 19:49:34.852,-0.007,-0.036,1.004,0.0,-0.0,0.0,-171.4,467.7,-875.3,126.45
2025-09-08 19:49:34.863,-0.007,-0.035,1.005,0.0,-0.0,0.0,-173.3,468.6,-880.5,126.48
2025-09-08 19:49:34.874,-0.008,-0.034,1.004,0.0,-0.0,0.0,-168.3,472.1,-879.5,125.66
2025-09-08 19:49:34.885,-0.007,-0.034,1.005,0.0,-0.0,0.0,-168.3,472.1,-879.5,126.65
2025-09-08 19:49:34.896,-0.009,-0.036,1.003,0.0,-0.0,0.0,-168.6,470.8,-885.1,126.66
2025-09-08 19:49:34.907,-0.007,-0.035,1.004,0.0,-0.0,0.0,-166.9,469.7,-882.1,126.01
2025-09-08 19:49:34.918,-0.008,-0.035,1.002,0.0,-0.0,0.0,-164.9,465.6,-877.9,126.19
2025-09-08 19:49:34.929,-0.008,-0.034,1.004,0.0,-0.0,0.0,-166.9,467.7,-875.8,126.53
2025-09-08 19:49:34.940,-0.008,-0.035,1.005,0.0,-0.0,0.0,-170.1,468.0,-876.4,126.65
2025-09-08 19:49:34.951,-0.008,-0.035,1.004,0.0,-0.0,0.0,-167.4,467.0,-877.2,126.17
2025-09-08 19:49:34.962,-0.007,-0.035,1.004,0.0,-0.0,0.0,-167.4,467.0,-877.2,126.31
2025-09-08 19:49:34.973,-0.007,-0.034,1.004,0.0,-0.0,0.0,-165.8,469.8,-874.7,126.48
2025-09-08 19:49:34.984,-0.007,-0.035,1.005,0.0,-0.0,0.0,-172.3,475.7,-874.4,126.33
2025-09-08 19:49:34.995,-0.007,-0.036,1.004,0.0,-0.0,0.0,-166.5,470.3,-868.8,126.03
2025-09-08 19:49:35.006,-0.007,-0.035,1.004,0.0,-0.0,0.0,-168.3,470.4,-875.7,126.03
2025-09-08 19:49:35.017,-0.008,-0.035,1.003,0.0,-0.0,0.0,-164.4,470.1,-877.4,126.66
2025-09-08 19:49:35.028,-0.009,-0.035,1.003,0.0,-0.0,0.0,-167.7,471.7,-877.5,127.11
2025-09-08 19:49:35.039,-0.008,-0.035,1.003,0.0,-0.0,0.0,-167.7,471.7,-877.5,126.47
2025-09-08 19:49:35.050,-0.006,-0.035,1.005,0.0,-0.0,0.0,-161.0,470.5,-875.8,126.06
2025-09-08 19:49:35.061,-0.006,-0.034,1.003,0.0,-0.0,0.0,-164.6,470.5,-884.2,126.76
2025-09-08 19:49:35.072,-0.008,-0.035,1.002,0.0,-0.0,0.0,-165.2,469.6,-880.9,126.31
2025-09-08 19:49:35.083,-0.008,-0.035,1.005,0.0,-0.0,0.0,-166.7,472.2,-881.9,126.93
2025-09-08 19:49:35.094,-0.007,-0.036,1.003,0.0,-0.0,0.0,-166.6,474.9,-879.2,126.96
2025-09-08 19:49:35.105,-0.008,-0.034,1.003,0.0,-0.0,0.0,-168.4,467.3,-876.8,126.65
2025-09-08 19:49:35.116,-0.007,-0.035,1.004,0.0,-0.0,0.0,-168.4,467.3,-876.8,125.53
2025-09-08 19:49:35.127,-0.007,-0.035,1.004,0.0,-0.0,0.0,-167.6,472.9,-883.0,126.79
2025-09-08 19:49:35.138,-0.008,-0.035,1.004,0.0,-0.0,0.0,-161.7,469.6,-870.7,126.37
2025-09-08 19:49:35.149,-0.008,-0.036,1.005,0.0,-0.0,0.0,-165.9,471.2,-877.8,125.83
2025-09-08 19:49:35.160,-0.008,-0.035,1.004,0.0,-0.0,0.0,-169.0,469.1,-878.2,126.75
2025-09-08 19:49:35.171,-0.007,-0.035,1.003,0.0,-0.0,0.0,-167.9,471.1,-871.8,125.85
2025-09-08 19:49:35.182,-0.007,-0.035,1.003,0.0,-0.0,0.0,-164.6,470.8,-873.0,126.39
2025-09-08 19:49:35.193,-0.008,-0.034,1.003,0.0,-0.0,0.0,-164.6,470.8,-873.0,126.78
2025-09-08 19:49:35.204,-0.009,-0.036,1.004,0.0,-0.0,0.0,-170.9,472.9,-874.4,126.91
2025-09-08 19:49:35.215,-0.006,-0.035,1.003,0.0,-0.0,0.0,-168.1,469.8,-877.8,125.86
2025-09-08 19:49:35.226,-0.008,-0.035,1.005,0.0,-0.0,0.0,-165.9,471.8,-877.4,126.45
2025-09-08 19:49:35.237,-0.008,-0.034,1.004,0.0,-0.0,0.0,-163.8,474.0,-882.6,126.27
2025-09-08 19:49:35.248,-0.006,-0.035,1.004,0.0,-0.0,0.0,-163.1,473.6,-879.6,126.95
2025-09-08 19:49:35.259,-0.007,-0.035,1.003,0.0,-0.0,0.0,-162.7,469.0,-876.0,126.77
2025-09-08 19:49:35.270,-0.006,-0.035,1.003,0.0,-0.0,0.0,-162.7,469.0,-876.0,127.0
2025-09-08 19:49:35.281,-0.008,-0.035,1.003,0.0,-0.0,0.0,-162.8,470.7,-878.2,126.17
2025-09-08 19:49:35.292,-0.006,-0.035,1.004,0.0,-0.0,0.0,-162.3,470.0,-870.4,125.87
2025-09-08 19:49:35.303,-0.007,-0.036,1.004,0.0,-0.0,0.0,-168.1,467.3,-873.2,126.29
2025-09-08 19:49:35.314,-0.008,-0.035,1.004,0.0,-0.0,0.0,-162.4,469.4,-868.1,126.5
2025-09-08 19:49:35.325,-0.007,-0.036,1.004,0.0,-0.0,0.0,-164.8,474.5,-870.8,126.44
2025-09-08 19:49:35.336,-0.007,-0.034,1.004,0.0,-0.0,0.0,-167.3,470.3,-873.0,126.41
2025-09-08 19:49:35.347,-0.009,-0.035,1.004,0.0,-0.0,0.0,-167.3,470.3,-873.0,126.66
2025-09-08 19:49:35.358,-0.008,-0.035,1.004,0.0,-0.0,0.0,-171.1,471.2,-877.8,126.7
2025-09-08 19:49:35.369,-0.008,-0.035,1.004,0.0,-0.0,0.0,-163.8,471.4,-879.2,127.31
2025-09-08 19:49:35.380,-0.007,-0.034,1.003,0.0,-0.0,0.0,-170.4,468.9,-880.5,127.09
2025-09-08 19:49:35.391,-0.007,-0.036,1.003,0.0,-0.0,0.0,-165.6,469.0,-877.5,126.58
2025-09-08 19:49:35.402,-0.008,-0.036,1.003,0.0,-0.0,0.0,-168.7,472.5,-877.9,126.35
2025-09-08 19:49:35.413,-0.009,-0.035,1.003,0.0,-0.0,0.0,-171.6,470.0,-875.8,126.84
2025-09-08 19:49:35.424,-0.007,-0.035,1.003,0.0,-0.0,0.0,-171.6,470.0,-875.8,127.25
2025-09-08 19:49:35.435,-0.007,-0.035,1.004,0.0,-0.0,0.0,-170.1,475.6,-877.8,126.82
2025-09-08 19:49:35.447,-0.007,-0.035,1.004,0.0,-0.0,0.0,-168.7,469.1,-878.4,126.33
2025-09-08 19:49:35.457,-0.008,-0.035,1.005,0.0,-0.0,0.0,-168.1,472.6,-878.1,125.94
2025-09-08 19:49:35.468,-0.007,-0.036,1.004,0.0,-0.0,0.0,-167.3,471.4,-870.4,126.69
2025-09-08 19:49:35.479,-0.009,-0.036,1.003,0.0,-0.0,0.0,-169.7,471.7,-874.0,126.51
2025-09-08 19:49:35.490,-0.007,-0.035,1.004,0.0,-0.0,0.0,-170.5,471.7,-874.9,126.2
2025-09-08 19:49:35.501,-0.007,-0.036,1.004,0.0,-0.0,0.0,-170.5,471.7,-875.3,126.93
2025-09-08 19:49:35.512,-0.006,-0.036,1.004,0.0,-0.0,0.0,-172.9,474.5,-875.3,126.62
2025-09-08 19:49:35.523,-0.008,-0.034,1.004,0.0,-0.0,0.0,-170.5,470.8,-875.7,126.89
2025-09-08 19:49:35.534,-0.007,-0.034,1.003,0.0,-0.0,0.0,-168.6,468.6,-871.5,126.84
2025-09-08 19:49:35.545,-0.007,-0.035,1.004,0.0,-0.0,0.0,-172.3,468.3,-875.4,126.62
2025-09-08 19:49:35.556,-0.007,-0.036,1.003,0.0,-0.0,0.0,-172.5,465.9,-870.2,126.38
2025-09-08 19:49:35.567,-0.008,-0.035,1.005,0.0,-0.0,0.0,-169.8,472.1,-881.2,126.81
2025-09-08 19:49:35.579,-0.009,-0.036,1.004,0.0,-0.0,0.0,-169.8,468.2,-874.4,126.57
2025-09-08 19:49:35.590,-0.007,-0.035,1.004,0.0,-0.0,0.0,-169.7,468.2,-874.4,126.74
2025-09-08 19:49:35.600,-0.007,-0.034,1.004,0.0,-0.0,0.0,-166.7,470.3,-877.0,126.61
2025-09-08 19:49:35.611,-0.008,-0.035,1.005,0.0,-0.0,0.0,-165.9,472.1,-878.9,126.22
