timestamp,ax,ay,az,gx,gy,gz,mx,my,mz,altitude,relative_altitude
25-12-18_19.57.30.301,-0.04014,-0.04056,0.98905,0.00451,-0.00092,0.00015,-131.10553,-269.08057,-474.14307,226.79424,0.0
25-12-18_19.57.30.304,-0.05337,-0.02348,0.96984,0.01008,-0.00397,0.00397,-134.75952,-269.08057,-472.68146,226.79424,0.0
25-12-18_19.57.30.306,-0.05673,-0.01214,0.98082,-0.00206,-0.00298,0.00237,-132.12865,-264.25729,-479.40482,226.69507,-0.09917000000001508
25-12-18_19.57.30.308,-0.04764,-0.03538,1.00125,-0.00809,-0.00183,-0.00275,-134.17488,-267.47281,-476.62778,226.69507,0.0
25-12-18_19.57.30.311,-0.03636,-0.04136,0.99759,0.00283,-0.00137,-0.00099,-134.17488,-267.47281,-476.62778,226.69507,0.0
25-12-18_19.57.30.313,-0.04837,-0.02574,0.97447,0.00901,-0.00336,0.00221,-132.56712,-268.78824,-478.23553,226.69507,0.0
25-12-18_19.57.30.315,-0.05655,-0.00665,0.97338,-0.0058,-0.00252,-0.0013,-134.32104,-268.34976,-470.92755,226.69507,0.0
25-12-18_19.57.30.317,-0.03813,-0.04002,1.00333,0.00153,-0.00191,-0.00137,-133.44409,-269.37289,-468.44281,226.69507,0.0
25-12-18_19.57.30.318,-0.04575,-0.02916,0.98051,0.00878,-0.00252,0.00221,-130.8132,-267.76514,-469.90442,226.69507,0.0
25-12-18_19.57.30.320,-0.05496,-0.01354,0.96886,0.00244,-0.00183,0.00305,-130.8132,-267.76514,-469.90442,226.69507,0.0
25-12-18_19.57.30.322,-0.04898,-0.0266,0.98777,-0.00588,-0.00122,-0.00061,-132.56712,-267.76514,-468.73514,226.69507,0.0
25-12-18_19.57.30.324,-0.03806,-0.04252,0.99948,-0.00046,-0.00137,-0.00176,-129.20544,-266.742,-470.19675,226.69507,0.0
25-12-18_19.57.30.327,-0.04355,-0.03007,0.98613,0.00817,-0.00214,0.00199,-131.69017,-268.49594,-474.72769,226.69507,0.0
25-12-18_19.57.30.329,-0.04917,-0.01269,0.97258,0.00313,-0.00206,0.00321,-131.69017,-268.49594,-474.72769,226.48593,-0.20913999999999078
25-12-18_19.57.30.331,-0.05081,-0.01757,0.98369,-0.00687,-0.00015,-0.00031,-131.25168,-267.32666,-475.31235,226.48593,0.0
25-12-18_19.57.30.333,-0.04148,-0.03849,0.99881,-0.00099,-0.00176,-0.00237,-132.12865,-270.98065,-472.38913,226.48593,0.0
25-12-18_19.57.30.335,-0.0416,-0.03331,0.99387,0.00832,-0.00313,0.00122,-127.30537,-268.93442,-472.97379,226.48593,0.0
25-12-18_19.57.30.337,-0.051,-0.02214,0.97801,0.00275,-0.00221,0.0029,-128.91313,-269.08057,-474.43539,226.48593,0.0
25-12-18_19.57.30.339,-0.05191,-0.01879,0.9799,-0.0071,-0.00015,0.00092,-128.91313,-269.08057,-474.43539,226.48593,0.0
25-12-18_19.57.30.341,-0.0452,-0.03666,0.99296,-0.00275,-0.00443,0.00061,-131.83632,-269.22675,-475.16617,226.48593,0.0
25-12-18_19.57.30.343,-0.0413,-0.03453,0.97905,0.00664,-0.00328,0.00351,-129.93625,-266.742,-471.65836,226.48593,0.0
25-12-18_19.57.30.345,-0.05466,-0.01525,0.97923,-0.00588,0.00031,0.0016,-130.37473,-265.42657,-476.62778,226.48593,0.0
25-12-18_19.57.30.347,-0.04642,-0.03257,0.99137,-0.00657,0.00023,-0.00183,-129.20544,-269.81137,-471.8045,226.48593,0.0
25-12-18_19.57.30.350,-0.04227,-0.03648,0.99387,0.00794,-0.00367,-0.00076,-129.20544,-269.81137,-471.8045,226.43816,-0.04776999999998566
25-12-18_19.57.30.352,-0.04904,-0.02251,0.98515,0.00863,-0.00382,0.00267,-132.12865,-270.68832,-477.94321,226.43816,0.0
25-12-18_19.57.30.354,-0.05295,-0.0194,0.97868,-0.0055,-0.00031,0.00206,-131.69017,-264.69577,-476.48163,226.43816,0.0
25-12-18_19.57.30.356,-0.04581,-0.03367,0.98728,-0.00748,-0.00038,-0.00168,-131.69017,-271.1268,-479.11249,226.43816,0.0
25-12-18_19.57.30.357,-0.04014,-0.04014,0.99479,0.00733,-0.0042,-0.00023,-131.69017,-271.1268,-479.11249,226.43816,0.0
25-12-18_19.57.30.359,-0.0463,-0.02531,0.98704,0.01046,-0.00481,0.00313,-129.05928,-268.34976,-471.65836,226.43816,0.0
25-12-18_19.57.30.360,-0.05063,-0.01623,0.97771,-0.00252,0.00046,0.00206,-132.27481,-269.95752,-473.99689,226.43816,0.0
25-12-18_19.57.30.362,-0.0452,-0.02824,0.98484,-0.0087,0.00099,-0.00099,-131.25168,-270.24985,-478.08939,226.43816,0.0
25-12-18_19.57.30.363,-0.04026,-0.03965,0.99412,0.00535,-0.00359,-0.0016,-132.12865,-264.11115,-475.75082,226.43816,0.0
25-12-18_19.57.30.365,-0.04721,-0.02592,0.99113,0.0126,-0.00588,0.00199,-132.12865,-264.11115,-475.75082,226.43816,0.0
25-12-18_19.57.30.366,-0.04953,-0.01476,0.98186,-0.00214,0.00214,-0.00084,-133.7364,-273.46536,-471.0737,226.65344,0.2152799999999786
25-12-18_19.57.30.368,-0.04715,-0.02934,0.98991,0.00252,-0.00076,-0.00183,-136.07497,-267.32666,-472.24298,226.65344,0.0
25-12-18_19.57.30.369,-0.04727,-0.02989,0.98716,0.01428,-0.00557,0.00237,-132.71329,-268.34976,-474.72769,226.65344,0.0
25-12-18_19.57.30.371,-0.04819,-0.01452,0.98271,0.00229,-0.00321,0.00359,-129.93625,-266.88818,-478.82019,226.65344,0.0
25-12-18_19.57.30.372,-0.04789,-0.02172,0.9846,-0.01,0.00153,0.00015,-129.93625,-266.88818,-478.82019,226.65344,0.0
25-12-18_19.57.30.373,-0.04209,-0.03819,0.98869,-0.00076,-0.00092,-0.00107,-132.71329,-266.88818,-478.52786,226.65344,0.0
25-12-18_19.57.30.375,-0.0463,-0.03056,0.986,0.01359,-0.0042,0.00252,-133.59024,-269.66522,-470.3429,226.65344,0.0
25-12-18_19.57.30.376,-0.05246,-0.01318,0.98326,0.00687,-0.00359,0.00313,-131.54401,-269.22675,-474.14307,226.65344,0.0
25-12-18_19.57.30.377,-0.051,-0.02001,0.98625,-0.00939,0.00084,0.00053,-131.54401,-269.22675,-474.14307,226.65344,0.0
25-12-18_19.57.30.378,-0.04215,-0.04136,0.99314,-0.00535,0.0,-0.00176,-134.90569,-271.56528,-472.97379,226.65344,0.0
25-12-18_19.57.30.380,-0.04313,-0.03715,0.98936,0.01115,-0.00367,0.00137,-132.71329,-269.51904,-472.38913,226.65344,0.0
25-12-18_19.57.30.381,-0.05344,-0.01665,0.98204,0.00909,-0.0042,0.00405,-133.44409,-269.81137,-478.67401,226.79424,0.14080000000001291
25-12-18_19.57.30.382,-0.05691,-0.01244,0.98692,-0.00733,0.00084,0.00099,-133.0056,-267.18048,-483.35114,226.79424,0.0
25-12-18_19.57.30.383,-0.04557,-0.03526,0.99168,-0.00832,0.00168,-0.0026,-133.0056,-267.18048,-483.35114,226.79424,0.0
25-12-18_19.57.30.385,-0.03989,-0.03782,0.99204,0.01191,-0.00557,0.00336,-129.49777,-272.29608,-481.45105,226.79424,0.0
25-12-18_19.57.30.386,-0.0535,-0.00543,0.97923,-0.00443,-0.0016,0.00183,-131.10553,-270.98065,-481.01257,226.79424,0.0
25-12-18_19.57.30.387,-0.04996,-0.03453,0.99162,-0.01153,0.00107,-0.00237,-130.66705,-271.27298,-479.40482,226.79424,0.0
25-12-18_19.57.30.388,-0.03782,-0.04666,0.99332,0.00382,-0.00206,-0.00107,-130.66705,-272.88074,-478.96634,226.79424,0.0
25-12-18_19.57.30.389,-0.04789,-0.02959,0.97948,0.01466,-0.00596,0.00305,-135.05185,-272.88074,-478.96634,226.79424,0.0
25-12-18_19.57.30.390,-0.05514,-0.00787,0.98057,0.00046,-0.00267,0.0029,-130.95937,-266.88818,-474.43539,226.79424,0.0
25-12-18_19.57.30.391,-0.04935,-0.02373,0.99009,-0.01199,0.00023,-0.00099,-135.05185,-270.24985,-477.35858,226.79424,0.0
25-12-18_19.57.30.393,-0.03977,-0.04246,0.99491,-0.00229,-0.00084,-0.00214,-130.52089,-273.02689,-478.23553,226.42787,-0.3663699999999892
25-12-18_19.57.30.394,-0.04209,-0.03257,0.98076,0.01275,-0.00443,0.00229,-130.52089,-273.02689,-478.23553,226.42787,0.0
25-12-18_19.57.30.396,-0.05606,-0.01311,0.97728,0.00733,-0.00412,0.00359,-135.05185,-275.9501,-477.06625,226.42787,0.0
25-12-18_19.57.30.397,-0.05215,-0.0172,0.9907,-0.00855,-0.00107,-0.00031,-132.71329,-273.31921,-475.02002,226.42787,0.0
25-12-18_19.57.30.399,-0.03794,-0.04599,0.99979,-0.00619,-0.00092,-0.00252,-128.6208,-273.46536,-479.55099,226.42787,0.0
25-12-18_19.57.30.400,-0.03599,-0.04124,0.98381,0.00855,-0.00252,0.00107,-133.44409,-270.39603,-480.13562,226.42787,0.0
25-12-18_19.57.30.401,-0.04898,-0.01909,0.97277,0.01054,-0.00443,0.00367,-133.44409,-270.39603,-480.13562,226.42787,0.0
25-12-18_19.57.30.402,-0.05514,-0.00811,0.98631,-0.00909,0.00069,-0.00283,-134.17488,-269.51904,-483.93579,226.42787,0.0
25-12-18_19.57.30.403,-0.04441,-0.04374,0.99326,0.00389,-0.00084,-0.00015,-130.52089,-269.81137,-483.64346,226.42787,0.0
25-12-18_19.57.30.404,-0.05008,-0.02745,0.97094,0.011,-0.00336,0.00389,-129.93625,-270.1037,-478.52786,226.42787,0.0
25-12-18_19.57.30.405,-0.056,-0.00512,0.97722,0.00015,-0.00275,0.00298,-129.93625,-270.24985,-478.38171,226.41144,-0.016430000000013933
25-12-18_19.57.30.407,-0.04904,-0.03282,0.9968,-0.00848,-0.00084,-0.00183,-130.22856,-270.24985,-478.38171,226.41144,0.0
25-12-18_19.57.30.408,-0.03306,-0.04288,0.99936,0.00053,-0.00015,-0.00153,-131.83632,-270.8345,-481.3049,226.41144,0.0
25-12-18_19.57.30.409,-0.04691,-0.03227,0.97185,0.011,-0.00183,0.00351,-132.56712,-271.41913,-475.4585,226.41144,0.0
25-12-18_19.57.30.411,-0.05673,-0.00335,0.96978,0.00504,-0.00305,0.00374,-137.09808,-273.02689,-479.40482,226.41144,0.0
25-12-18_19.57.30.412,-0.05173,-0.01934,0.99448,-0.00619,-0.00183,-0.00076,-137.09808,-273.02689,-479.40482,226.41144,0.0
25-12-18_19.57.30.413,-0.03861,-0.0405,1.00443,-0.00344,0.00038,-0.00252,-137.39041,-274.63464,-481.45105,226.41144,0.0
25-12-18_19.57.30.415,-0.04264,-0.0363,0.98167,0.00657,-0.00137,0.00153,-133.59024,-273.17307,-477.94321,226.41144,0.0
25-12-18_19.57.30.416,-0.05649,-0.01342,0.9685,0.00733,-0.00252,0.00367,-133.0056,-273.46536,-476.62778,226.41144,0.0
25-12-18_19.57.30.417,-0.05575,-0.01293,0.98777,-0.00382,-0.00244,0.00092,-133.59024,-272.29608,-480.72028,226.41144,0.0
25-12-18_19.57.30.418,-0.04264,-0.04172,1.00748,-0.00504,-0.00122,0.01688,-133.59024,-272.29608,-480.72028,226.41144,0.0
25-12-18_19.57.30.419,-0.03684,-0.03831,0.99369,0.00672,-0.00183,0.00389,-134.02873,-269.95752,-478.23553,227.02187,0.610430000000008
25-12-18_19.57.30.420,-0.05075,-0.0072,0.98003,-0.00221,-0.00053,0.00122,-132.71329,-272.88074,-480.72028,227.02187,0.0
25-12-18_19.57.30.421,-0.04569,-0.03367,1.00321,-0.00512,-0.0013,-0.00305,-133.59024,-267.32666,-474.28922,227.02187,0.0
25-12-18_19.57.30.422,-0.03538,-0.0402,1.00205,0.00199,-0.00107,-0.00031,-133.59024,-267.32666,-478.67401,227.02187,0.0
25-12-18_19.57.30.423,-0.04801,-0.02812,0.97332,0.00649,-0.00313,0.00305,-132.12865,-270.39603,-478.67401,227.02187,0.0
25-12-18_19.57.30.423,-0.05557,-0.01013,0.97082,-0.00183,-0.00183,0.00229,-131.39784,-269.81137,-481.59723,227.02187,0.0
25-12-18_19.57.30.424,-0.04843,-0.03001,0.99168,-0.0068,-0.00153,-0.00199,-135.9288,-271.71146,-477.06625,227.02187,0.0
25-12-18_19.57.30.425,-0.03538,-0.04307,0.99985,0.00191,-0.00115,-0.00107,-134.17488,-270.68832,-480.72028,227.02187,0.0
25-12-18_19.57.30.426,-0.04447,-0.02977,0.9774,0.00832,-0.00145,0.00229,-134.17488,-270.68832,-480.72028,227.02187,0.0
25-12-18_19.57.30.427,-0.05106,-0.01311,0.96953,0.00107,-0.0013,0.0026,-134.32104,-270.39603,-475.31235,227.02187,0.0
25-12-18_19.57.30.428,-0.05002,-0.02355,0.98893,-0.00611,-0.00214,-0.00038,-131.10553,-269.51904,-476.9201,226.87285,-0.14902000000000726
25-12-18_19.57.30.429,-0.0402,-0.04032,1.00058,0.0016,-0.00214,-0.00176,-133.88257,-267.47281,-482.32803,226.87285,0.0
25-12-18_19.57.30.431,-0.04453,-0.03117,0.98783,0.00764,-0.00122,0.00153,-137.68272,-269.08057,-479.84329,226.87285,0.0
25-12-18_19.57.30.432,-0.05411,-0.01989,0.97368,0.00145,-0.00061,-0.01672,-137.68272,-269.08057,-479.84329,226.87285,0.0
25-12-18_19.57.30.433,-0.05209,-0.02196,0.98179,-0.00053,-0.00244,-0.00229,-136.22113,-270.68832,-482.18185,226.87285,0.0
25-12-18_19.57.30.434,-0.04325,-0.03428,0.99497,0.00809,-0.00298,0.00092,-135.05185,-265.57272,-487.44363,226.87285,0.0
25-12-18_19.57.30.435,-0.05277,-0.01818,0.97411,0.00206,-0.00099,0.00336,-135.49033,-269.81137,-481.88953,226.87285,0.0
25-12-18_19.57.30.436,-0.05331,-0.01549,0.97649,-0.00619,-8e-05,0.00069,-135.49033,-269.81137,-478.08939,226.87285,0.0
25-12-18_19.57.30.437,-0.04636,-0.03343,0.99473,-0.00038,-0.00244,-0.00191,-132.71329,-272.58841,-478.08939,226.87285,0.0
25-12-18_19.57.30.437,-0.04453,-0.03221,1.00071,0.00855,-0.00397,0.00061,-135.9288,-273.17307,-477.79706,226.87285,0.0
25-12-18_19.57.30.438,-0.04874,-0.01983,0.98314,0.00435,-0.00359,0.0029,-140.02129,-267.76514,-471.36603,226.17766,-0.6951899999999966
25-12-18_19.57.30.439,-0.05222,-0.01854,0.97655,-0.00748,-0.00015,0.00122,-135.19801,-269.37289,-475.89697,226.17766,0.0
25-12-18_19.57.30.440,-0.04435,-0.03392,0.99058,-0.00435,-0.00191,-0.00168,-135.19801,-269.37289,-475.89697,226.17766,0.0
25-12-18_19.57.30.441,-0.03849,-0.03648,1.00046,0.00901,-0.00542,-8e-05,-132.42096,-268.49594,-478.96634,226.17766,0.0
25-12-18_19.57.30.442,-0.04465,-0.02117,0.99033,0.00764,-0.00359,0.00321,-132.85945,-264.11115,-476.48163,226.17766,0.0
25-12-18_19.57.30.443,-0.04929,-0.01708,0.97807,-0.00573,0.00038,0.00168,-131.54401,-269.22675,-475.60468,226.17766,0.0
25-12-18_19.57.30.443,-0.04294,-0.03312,0.98564,-0.00725,-8e-05,-0.00145,-131.25168,-264.9881,-477.65091,226.17766,0.0
25-12-18_19.57.30.444,-0.03989,-0.03983,0.99729,0.00702,-0.00367,0.0029,-131.25168,-264.9881,-477.65091,226.17766,0.0
25-12-18_19.57.30.445,-0.04764,-0.02239,0.98588,-0.00619,8e-05,0.00199,-127.1592,-268.34976,-476.04315,226.17766,0.0
25-12-18_19.57.30.446,-0.04612,-0.03514,0.98356,-0.00977,0.00099,-0.00084,-132.71329,-264.84192,-476.48163,226.17766,0.0
25-12-18_19.57.30.446,-0.04014,-0.04544,0.9904,0.00611,-0.00359,-0.00084,-139.72897,-265.42657,-479.25867,226.17766,0.0
25-12-18_19.57.30.447,-0.04874,-0.03294,0.98405,0.01329,-0.00542,0.00221,-139.72897,-265.42657,-479.25867,226.22697,0.049309999999991305
25-12-18_19.57.30.448,-0.05386,-0.01574,0.98033,-0.00153,-0.00099,0.00321,-129.49777,-268.78824,-480.42795,226.22697,0.0
25-12-18_19.57.30.449,-0.05154,-0.02806,0.97984,-0.00993,0.0026,-0.00076,-130.52089,-270.1037,-475.60468,226.22697,0.0
25-12-18_19.57.30.449,-0.04044,-0.03843,0.99082,0.00367,-0.00221,-0.00176,-132.12865,-265.28043,-477.21243,226.22697,0.0
25-12-18_19.57.30.450,-0.0499,-0.02708,0.98893,0.01497,-0.00542,0.00206,-128.18233,-267.32666,-485.39737,226.22697,0.0
25-12-18_19.57.30.451,-0.05661,-0.0083,0.98003,0.00298,-0.00336,0.0026,-128.18233,-267.32666,-485.39737,226.22697,0.0
25-12-18_19.57.30.452,-0.05435,-0.01812,0.98765,-0.01138,0.00206,-0.00031,-132.12865,-270.1037,-481.01257,226.22697,0.0
25-12-18_19.57.30.452,-0.04538,-0.04063,0.99363,-0.00191,8e-05,-0.00244,-129.93625,-268.93442,-473.85074,226.22697,0.0
25-12-18_19.57.30.453,-0.04599,-0.03373,0.98948,0.01489,-0.00466,0.00069,-132.56712,-268.20361,-481.59723,226.22697,0.0
25-12-18_19.57.30.454,-0.05514,-0.01391,0.98893,0.00886,-0.00557,0.0029,-134.32104,-267.47281,-486.71283,226.22697,0.0
25-12-18_19.57.30.455,-0.05453,-0.01,0.9918,-0.0087,-8e-05,-0.00237,-134.32104,-267.47281,-486.71283,226.3801,0.15313000000000443
25-12-18_19.57.30.455,-0.04831,-0.03507,0.9954,0.01077,-0.00527,8e-05,-131.83632,-268.64209,-485.6897,226.3801,0.0
25-12-18_19.57.30.456,-0.05667,-0.01494,0.98314,0.01107,-0.00535,0.00283,-132.27481,-273.17307,-480.42795,226.3801,0.0
25-12-18_19.57.30.457,-0.05844,-0.00616,0.9835,-0.00718,-0.00252,0.00168,-132.27481,-269.51904,-484.81274,226.3801,0.0
25-12-18_19.57.30.458,-0.04642,-0.03282,0.99168,-0.01145,-0.00115,-0.00359,-132.27481,-269.51904,-484.81274,226.3801,0.0
25-12-18_19.57.30.458,-0.03666,-0.04416,0.98972,0.0042,-0.00489,-0.00153,-130.37473,-268.05746,-479.69714,226.3801,0.0
25-12-18_19.57.30.459,-0.04795,-0.02727,0.97692,0.01374,-0.00718,0.00321,-134.90569,-268.34976,-484.52042,226.3801,0.0
25-12-18_19.57.30.460,-0.05551,-0.00781,0.97692,0.00038,-0.00451,0.00298,-134.75952,-271.1268,-487.73593,226.3801,0.0
25-12-18_19.57.30.461,-0.04746,-0.02812,0.99082,-0.01168,-0.00122,-0.00168,-134.75952,-270.39603,-485.39737,226.3801,0.0
25-12-18_19.57.30.461,-0.03422,-0.0452,0.99643,-0.00122,-0.00252,-0.00191,-134.75952,-270.39603,-485.39737,226.3801,0.0
25-12-18_19.57.30.462,-0.04392,-0.03642,0.97606,0.01153,-0.00619,0.0026,-134.17488,-272.14993,-477.65091,226.74234,0.3622400000000141
25-12-18_19.57.30.463,-0.05246,-0.01165,0.97454,0.00443,-0.00557,0.00443,-133.15176,-269.81137,-476.33545,226.74234,0.0
25-12-18_19.57.30.464,-0.05197,-0.023,0.9893,-0.00932,-0.0026,0.00053,-134.90569,-270.39603,-479.69714,226.74234,0.0
25-12-18_19.57.30.464,-0.03617,-0.04679,0.99759,-0.00603,-0.00168,-0.00206,-130.66705,-273.46536,-479.25867,226.74234,0.0
25-12-18_19.57.30.465,-0.038,-0.04447,0.98179,0.00947,-0.00619,0.00466,-130.66705,-273.46536,-479.25867,226.74234,0.0
25-12-18_19.57.30.466,-0.04898,-0.01806,0.98777,-0.00397,-0.00305,0.00107,-132.27481,-271.71146,-477.21243,226.74234,0.0
25-12-18_19.57.30.467,-0.03855,-0.03825,1.00205,-0.00855,-0.00092,-0.00237,-134.61337,-277.11938,-475.60468,226.74234,0.0
25-12-18_19.57.30.467,-0.0308,-0.04447,0.99253,0.00458,-0.00206,8e-05,-137.24425,-271.71146,-476.04315,226.74234,0.0
25-12-18_19.57.30.468,-0.04892,-0.02611,0.97027,0.0129,-0.00473,0.00428,-137.24425,-271.71146,-476.04315,226.74234,0.0
25-12-18_19.57.30.469,-0.0549,-0.00665,0.98423,0.00183,-0.00397,0.00252,-133.44409,-271.8576,-475.16617,226.74234,0.0
25-12-18_19.57.30.469,-0.04636,-0.0363,1.00241,-0.00863,-0.00061,-0.00244,-131.39784,-269.95752,-474.14307,226.74234,0.0
25-12-18_19.57.30.470,-0.03239,-0.04606,0.99894,-0.00038,8e-05,-0.0013,-133.15176,-269.08057,-478.52786,227.19965,0.45730999999997834
25-12-18_19.57.30.471,-0.04319,-0.03111,0.96776,0.01313,-0.00199,0.00237,-136.80577,-270.8345,-486.12817,227.19965,0.0
25-12-18_19.57.30.479,-0.05441,-0.00244,0.97283,0.00634,-0.0029,0.00275,-136.80577,-270.8345,-486.12817,227.19965,0.0
25-12-18_19.57.30.489,-0.04978,-0.02129,1.00168,-0.0071,-0.00107,-0.00176,-130.37473,-269.22675,-479.40482,227.19965,0.0
25-12-18_19.57.30.499,-0.03361,-0.04002,1.00577,-0.00214,0.00115,-0.00275,-129.20544,-267.91129,-481.3049,227.19965,0.0
25-12-18_19.57.30.509,-0.03971,-0.03526,0.97716,0.00916,-0.00076,0.00153,-127.74384,-272.14993,-474.14307,227.19965,0.0
25-12-18_19.57.30.519,-0.05118,-0.01013,0.97075,0.00641,-0.00206,0.00336,-132.56712,-274.63464,-473.26611,227.19965,0.0
25-12-18_19.57.30.529,-0.0524,-0.01623,0.99259,-0.00428,0.00023,-0.00336,-132.56712,-274.63464,-473.26611,227.19965,0.0
25-12-18_19.57.30.539,-0.03776,-0.03745,0.98936,0.00496,-0.00076,0.00046,-136.36728,-269.95752,-475.02002,227.19965,0.0
25-12-18_19.57.30.549,-0.0491,-0.01671,0.96898,0.00695,-0.00137,0.00374,-135.34416,-269.08057,-473.26611,227.19965,0.0
25-12-18_19.57.30.559,-0.05606,-0.00586,0.98222,-0.00092,-0.00046,0.00206,-136.80577,-268.78824,-469.46594,226.75055,-0.4490999999999872
25-12-18_19.57.30.569,-0.04471,-0.03367,1.00186,-0.00573,-0.00092,-0.00229,-136.80577,-268.78824,-469.46594,226.75055,0.0
25-12-18_19.57.30.579,-0.03733,-0.03806,0.99973,0.00023,0.00061,-0.00023,-138.1212,-270.39603,-466.25043,226.75055,0.0
25-12-18_19.57.30.589,-0.05319,-0.02385,0.96868,0.00832,-0.00038,0.00374,-136.22113,-271.1268,-466.39658,226.75055,0.0
25-12-18_19.57.30.599,-0.05911,-0.00781,0.97338,0.00053,-0.00168,0.00298,-130.95937,-273.46536,-475.89697,226.75055,0.0
25-12-18_19.57.30.610,-0.05148,-0.03026,1.00168,-0.00771,-0.00183,-0.00168,-136.36728,-265.57272,-478.96634,226.75055,0.0
25-12-18_19.57.30.620,-0.04056,-0.04197,1.00022,-0.00023,-0.00061,-0.00107,-136.36728,-265.57272,-478.96634,226.75055,0.0
25-12-18_19.57.30.630,-0.04801,-0.02965,0.97295,0.00764,-0.0016,0.0029,-131.83632,-270.8345,-475.02002,226.75055,0.0
25-12-18_19.57.30.640,-0.05935,-0.01366,0.97216,0.00107,-0.00115,0.00321,-131.98248,-268.64209,-472.82761,226.75055,0.0
25-12-18_19.57.30.650,-0.05356,-0.02342,0.9929,-0.00573,-0.00084,-0.00107,-129.64392,-271.8576,-474.58154,226.75055,0.0
25-12-18_19.57.30.660,-0.04178,-0.04252,1.00406,8e-05,-0.00237,-0.00137,-133.29793,-271.27298,-472.24298,226.75055,0.0
25-12-18_19.57.30.670,-0.04703,-0.03038,0.98661,0.00107,-0.00229,0.0026,-133.29793,-271.27298,-472.24298,225.95004,-0.8005100000000027
25-12-18_19.57.30.680,-0.0571,-0.02062,0.98326,-0.00496,-0.00176,0.00023,-134.32104,-272.44226,-476.62778,225.95004,0.0
25-12-18_19.57.30.690,-0.04532,-0.04282,0.99985,0.00069,-0.00283,-0.00221,-130.95937,-271.41913,-473.85074,225.95004,0.0
25-12-18_19.57.30.700,-0.04459,-0.03361,0.99003,0.00733,-0.0029,0.00122,-135.34416,-268.64209,-470.19675,225.95004,0.0
25-12-18_19.57.30.710,-0.05014,-0.02043,0.97301,0.00458,-0.00382,0.00275,-135.34416,-268.64209,-470.19675,225.95004,0.0
25-12-18_19.57.30.720,-0.05222,-0.0161,0.97966,-0.00336,-0.0029,0.00076,-138.55969,-270.54218,-470.63522,225.95004,0.0
25-12-18_19.57.30.730,-0.04294,-0.03605,0.99704,-0.00031,-0.00344,-0.00176,-136.80577,-270.98065,-471.8045,225.95004,0.0
25-12-18_19.57.30.740,-0.04239,-0.03385,0.99491,0.00779,-0.0042,0.00069,-131.98248,-270.98065,-481.15875,225.95004,0.0
25-12-18_19.57.30.750,-0.05002,-0.02007,0.97856,0.00535,-0.0026,0.00267,-132.71329,-270.24985,-479.69714,225.95004,0.0
25-12-18_19.57.30.760,-0.04996,-0.01964,0.97588,-0.00466,-0.00107,0.00107,-132.71329,-270.24985,-479.69714,225.95004,0.0
25-12-18_19.57.30.770,-0.0402,-0.03538,0.99021,-0.00321,-0.00229,-0.00176,-133.0056,-270.54218,-478.23553,226.67194,0.7219000000000051
25-12-18_19.57.30.780,-0.03849,-0.03532,0.99887,0.00672,-0.00496,0.00038,-133.0056,-268.49594,-474.43539,226.67194,0.0
25-12-18_19.57.30.790,-0.04374,-0.02043,0.98387,0.00672,-0.00328,0.00275,-130.37473,-268.64209,-474.28922,226.67194,0.0
25-12-18_19.57.30.801,-0.04874,-0.01513,0.97454,-0.00428,0.00023,0.00084,-132.12865,-275.07312,-472.53531,226.67194,0.0
25-12-18_19.57.30.810,-0.04111,-0.03007,0.98802,0.0087,-0.00367,-0.00023,-132.12865,-275.07312,-472.53531,226.67194,0.0
25-12-18_19.57.30.820,-0.03813,-0.02172,0.98777,0.00901,-0.00359,0.00229,-130.66705,-270.68832,-470.63522,226.67194,0.0
25-12-18_19.57.30.830,-0.04837,-0.01555,0.97978,-0.00657,8e-05,0.00176,-133.59024,-273.75769,-468.58899,226.67194,0.0
25-12-18_19.57.30.841,-0.04654,-0.0316,0.98448,-0.01092,0.00275,-0.00099,-132.27481,-271.1268,-471.65836,226.67194,0.0
25-12-18_19.57.30.851,-0.04002,-0.03928,0.99192,0.0055,-0.00305,-0.00053,-132.27481,-271.1268,-471.65836,226.67194,0.0
25-12-18_19.57.30.861,-0.04971,-0.02391,0.98789,0.01153,-0.00473,0.00206,-133.15176,-268.64209,-474.43539,226.67194,0.0
25-12-18_19.57.30.871,-0.04734,-0.0119,0.98027,-0.00435,-0.00084,0.00214,-133.0056,-272.73456,-474.14307,225.9747,-0.6972399999999936
25-12-18_19.57.30.881,-0.04862,-0.02977,0.98503,-0.01168,0.00229,-0.00069,-125.69761,-270.68832,-471.21985,225.9747,0.0
25-12-18_19.57.30.891,-0.04288,-0.03916,0.98789,0.00504,-0.00214,-0.00168,-127.30537,-270.54218,-476.77396,225.9747,0.0
25-12-18_19.57.30.901,-0.0499,-0.02867,0.98851,0.01397,-0.00489,0.0016,-127.30537,-270.54218,-476.77396,225.9747,0.0
25-12-18_19.57.30.911,-0.05575,-0.01629,0.98234,0.0,-0.00069,0.0029,-133.15176,-268.20361,-479.69714,225.9747,0.0
25-12-18_19.57.30.921,-0.04959,-0.028,0.9821,-0.01191,0.00283,-0.00099,-129.49777,-271.1268,-477.50473,225.9747,0.0
25-12-18_19.57.30.931,-0.04288,-0.04435,0.98796,-8e-05,-0.00046,-0.00183,-133.44409,-268.34976,-470.92755,225.9747,0.0
25-12-18_19.57.30.941,-0.04935,-0.03172,0.98674,0.01443,-0.00527,0.00191,-133.44409,-271.27298,-467.71204,225.9747,0.0
25-12-18_19.57.30.951,-0.05368,-0.01427,0.98131,-0.01107,0.00153,0.00031,-132.27481,-271.27298,-467.71204,225.9747,0.0
25-12-18_19.57.30.961,-0.03739,-0.04203,0.99271,-0.00351,0.00031,-0.00237,-129.64392,-271.27298,-476.77396,225.9747,0.0
25-12-18_19.57.30.971,-0.04569,-0.03568,0.98728,0.01474,-0.00588,0.00107,-129.35161,-268.34976,-481.45105,225.9747,0.0
25-12-18_19.57.30.981,-0.05325,-0.01671,0.98686,0.00893,-0.00603,0.00298,-129.05928,-270.1037,-479.40482,226.42171,0.4470099999999775
25-12-18_19.57.30.991,-0.0527,-0.01702,0.98789,-0.00848,0.00038,0.00031,-129.05928,-270.1037,-479.40482,226.42171,0.0
25-12-18_19.57.31.001,-0.04386,-0.03904,0.98966,-0.00771,0.00023,-0.00237,-130.66705,-268.93442,-476.9201,226.42171,0.0
25-12-18_19.57.31.011,-0.03843,-0.04069,0.99094,0.00977,-0.00473,0.00046,-137.24425,-270.8345,-471.8045,226.42171,0.0
25-12-18_19.57.31.021,-0.05051,-0.01958,0.97954,0.01268,-0.00596,0.00328,-139.29048,-267.76514,-476.77396,226.42171,0.0
25-12-18_19.57.31.031,-0.05368,-0.00683,0.98241,-0.00489,-0.00206,0.00214,-130.66705,-270.39603,-486.4205,226.42171,0.0
25-12-18_19.57.31.042,-0.04282,-0.03026,0.9929,-0.01153,-0.00023,-0.00183,-130.66705,-270.39603,-486.4205,226.42171,0.0
25-12-18_19.57.31.052,-0.03593,-0.03995,0.99308,0.00451,-0.00122,-0.00046,-131.10553,-275.80392,-471.65836,226.42171,0.0
25-12-18_19.57.31.061,-0.04612,-0.02153,0.97655,0.01481,-0.00473,0.00298,-131.25168,-275.80392,-475.75082,226.42171,0.0
25-12-18_19.57.31.072,-0.05252,-0.00409,0.98009,-0.00038,-0.00351,0.00305,-133.44409,-268.64209,-475.89697,226.42171,0.0
25-12-18_19.57.31.082,-0.04502,-0.0255,0.99643,-0.01321,0.00084,-0.00069,-133.44409,-269.81137,-476.04315,226.80862,0.3869100000000003
25-12-18_19.57.31.092,-0.03166,-0.04429,0.99503,0.01252,-0.00443,0.00336,-129.93625,-269.81137,-476.04315,226.80862,0.0
25-12-18_19.57.31.102,-0.05215,-0.0086,0.9785,0.00519,-0.00298,0.00359,-133.29793,-272.88074,-475.4585,226.80862,0.0
25-12-18_19.57.31.112,-0.05185,-0.01574,0.9893,-0.00939,0.00023,-0.00015,-130.08241,-275.07312,-486.4205,226.80862,0.0
25-12-18_19.57.31.122,-0.03898,-0.04063,1.00266,-0.00657,-0.00015,-0.0026,-133.0056,-271.41913,-477.06625,226.80862,0.0
25-12-18_19.57.31.132,-0.03825,-0.03867,0.98674,0.00901,-0.0026,0.00099,-133.0056,-271.41913,-477.06625,226.80862,0.0
25-12-18_19.57.31.142,-0.05472,-0.01665,0.97222,0.00893,-0.00344,0.00405,-132.42096,-269.37289,-476.62778,226.80862,0.0
25-12-18_19.57.31.152,-0.05673,-0.01019,0.98625,-0.0058,-0.00107,0.00107,-130.22856,-272.00378,-476.04315,226.80862,0.0
25-12-18_19.57.31.162,-0.04538,-0.03965,1.00162,-0.00924,0.00053,-0.00298,-133.29793,-274.78082,-476.77396,226.80862,0.0
25-12-18_19.57.31.172,-0.0363,-0.04483,0.99131,0.00428,-0.00084,0.00015,-130.95937,-275.9501,-480.13562,226.80862,0.0
25-12-18_19.57.31.182,-0.05002,-0.02586,0.97118,0.01115,-0.00298,0.00305,-130.95937,-275.9501,-480.13562,226.35542,-0.4531999999999812
25-12-18_19.57.31.192,-0.05923,-0.00622,0.98057,-0.00122,-0.00214,0.00221,-132.56712,-276.2424,-478.23553,226.35542,0.0
25-12-18_19.57.31.202,-0.05039,-0.03398,0.99967,-0.00855,-0.00053,-0.00267,-129.05928,-274.92697,-473.26611,226.35542,0.0
25-12-18_19.57.31.212,-0.0352,-0.04416,0.99985,0.00069,-0.00046,-0.00214,-131.39784,-270.1037,-479.40482,226.35542,0.0
25-12-18_19.57.31.222,-0.05014,-0.0327,0.97264,0.00924,-0.00168,0.0029,-131.39784,-271.8576,-477.65091,226.35542,0.0
25-12-18_19.57.31.233,-0.05886,-0.01037,0.96856,-0.00649,-0.0029,-0.00168,-131.69017,-271.8576,-477.65091,226.35542,0.0
25-12-18_19.57.31.243,-0.0377,-0.0452,1.00162,-0.00244,-0.00145,-0.00237,-133.29793,-272.73456,-476.1893,226.35542,0.0
25-12-18_19.57.31.252,-0.04233,-0.03544,0.97844,0.00901,-0.00183,0.00206,-132.27481,-275.65778,-478.82019,226.35542,0.0
25-12-18_19.57.31.262,-0.05472,-0.01415,0.96502,0.00748,-0.00321,0.00389,-132.42096,-273.61154,-479.11249,226.35542,0.0
25-12-18_19.57.31.273,-0.05374,-0.01446,0.98759,-0.0042,-0.00191,8e-05,-132.42096,-273.61154,-479.11249,226.35542,0.0
25-12-18_19.57.31.283,-0.04075,-0.04026,1.00491,-0.00283,-0.00168,-0.0026,-135.19801,-272.44226,-478.23553,226.35542,0.0
25-12-18_19.57.31.293,-0.03898,-0.03672,0.98869,0.00634,-0.00283,0.00153,-133.15176,-271.27298,-480.28177,226.91241,0.5569899999999848
25-12-18_19.57.31.303,-0.05112,-0.02062,0.97014,0.00611,-0.0042,0.00458,-135.34416,-274.19617,-480.13562,226.91241,0.0
25-12-18_19.57.31.313,-0.05691,-0.0119,0.98064,-0.00313,-0.00275,0.00206,-132.71329,-277.85016,-475.89697,226.91241,0.0
25-12-18_19.57.31.323,-0.04435,-0.03617,1.00131,-0.00512,-0.00214,-0.00183,-132.71329,-277.85016,-475.89697,226.91241,0.0
25-12-18_19.57.31.333,-0.03782,-0.03739,0.9979,0.00405,-0.00183,0.00015,-131.98248,-268.93442,-476.77396,226.91241,0.0
25-12-18_19.57.31.343,-0.04807,-0.02092,0.97313,0.00848,-0.00351,0.00328,-129.35161,-275.36545,-481.15875,226.91241,0.0
25-12-18_19.57.31.353,-0.05344,-0.00634,0.97722,-0.00107,-0.0029,0.00199,-125.69761,-271.41913,-479.25867,226.91241,0.0
25-12-18_19.57.31.363,-0.04544,-0.02983,1.0001,-0.00473,-0.00229,-0.00115,-125.69761,-271.41913,-487.88211,226.91241,0.0
25-12-18_19.57.31.373,-0.0377,-0.03703,1.00473,0.00672,-0.00183,0.00183,-130.95937,-274.63464,-487.88211,226.91241,0.0
25-12-18_19.57.31.383,-0.05283,-0.01226,0.97515,-0.00122,-0.00061,0.0016,-133.7364,-274.19617,-483.78961,226.91241,0.0
25-12-18_19.57.31.393,-0.04831,-0.02568,0.99058,-0.00649,-0.00107,-0.00099,-129.20544,-271.71146,-486.12817,226.17766,-0.7347499999999911
25-12-18_19.57.31.403,-0.0377,-0.03672,1.00308,0.00115,-0.00313,-0.00084,-132.27481,-270.98065,-481.59723,226.17766,0.0
25-12-18_19.57.31.413,-0.04288,-0.02855,0.98747,0.00702,-0.0026,0.00229,-132.27481,-270.98065,-481.59723,226.17766,0.0
25-12-18_19.57.31.423,-0.051,-0.01293,0.96911,0.00031,-0.0016,0.00244,-128.03616,-269.66522,-479.98947,226.17766,0.0
25-12-18_19.57.31.433,-0.04813,-0.02361,0.98039,-0.00687,-0.00053,-0.00092,-129.05928,-270.54218,-479.84329,226.17766,0.0
25-12-18_19.57.31.444,-0.0402,-0.03953,0.99613,0.00214,-0.00252,-0.00237,-131.83632,-271.27298,-492.26691,226.17766,0.0
25-12-18_19.57.31.453,-0.0449,-0.03154,0.9918,0.00962,-0.00367,0.00092,-131.39784,-272.14993,-484.08194,226.17766,0.0
25-12-18_19.57.31.463,-0.04764,-0.02092,0.97344,0.00191,-0.00137,0.00206,-131.39784,-272.14993,-484.08194,226.17766,0.0
25-12-18_19.57.31.473,-0.04971,-0.02428,0.97667,-0.0084,0.00137,0.00015,-130.8132,-269.66522,-480.13562,226.17766,0.0
25-12-18_19.57.31.484,-0.04471,-0.04142,0.99229,-0.00015,-0.0013,-0.00252,-129.05928,-272.29608,-475.60468,226.17766,0.0
25-12-18_19.57.31.494,-0.04349,-0.03404,0.9932,0.01092,-0.00389,0.00092,-131.25168,-273.90384,-478.82019,226.57071,0.39304999999998813
25-12-18_19.57.31.504,-0.04874,-0.02184,0.98094,0.00305,0.00191,0.00046,-131.25168,-273.90384,-481.15875,226.57071,0.0
25-12-18_19.57.31.514,-0.05154,-0.02129,0.99125,-0.00252,-0.00069,-0.00183,-129.79008,-273.31921,-481.15875,226.57071,0.0
25-12-18_19.57.31.524,-0.04453,-0.03526,0.99674,0.01046,-0.00435,0.00023,-131.25168,-271.56528,-481.45105,226.57071,0.0
25-12-18_19.57.31.534,-0.05002,-0.01921,0.98631,0.00779,-0.0029,0.0016,-136.95192,-274.48849,-479.11249,226.57071,0.0
25-12-18_19.57.31.544,-0.05289,-0.02062,0.98051,-0.00748,0.00107,0.00076,-134.32104,-272.29608,-481.74338,226.57071,0.0
25-12-18_19.57.31.554,-0.04483,-0.03544,0.99101,-0.0055,0.00038,-0.00137,-134.32104,-272.29608,-481.74338,226.57071,0.0
25-12-18_19.57.31.564,-0.04496,-0.03617,0.99393,0.01084,-0.00351,0.00038,-136.95192,-273.61154,-480.86642,226.57071,0.0
25-12-18_19.57.31.574,-0.0502,-0.01787,0.98857,0.00924,-0.00428,0.00244,-140.16745,-271.1268,-479.98947,226.57071,0.0
25-12-18_19.57.31.584,-0.05264,-0.01696,0.98503,-0.00718,0.00053,0.00092,-137.39041,-272.88074,-482.91266,226.57071,0.0
25-12-18_19.57.31.594,-0.04648,-0.03117,0.98808,-0.00741,0.00099,-0.00122,-132.56712,-271.27298,-485.39737,226.57071,0.0
25-12-18_19.57.31.604,-0.04337,-0.03617,0.99338,0.0084,-0.00451,0.00015,-132.56712,-271.27298,-485.39737,226.37187,-0.1988399999999899
25-12-18_19.57.31.614,-0.05264,-0.01958,0.99113,0.011,-0.00542,0.00305,-134.46721,-274.78082,-479.84329,226.37187,0.0
25-12-18_19.57.31.624,-0.05398,-0.01366,0.9821,-0.00596,-0.00137,0.00176,-135.49033,-274.48849,-476.04315,226.37187,0.0
25-12-18_19.57.31.634,-0.04691,-0.02971,0.98228,-0.01061,0.00099,-0.00153,-130.95937,-273.90384,-484.08194,226.37187,0.0
25-12-18_19.57.31.644,-0.04221,-0.04056,0.98851,0.00535,-0.00588,0.00229,-130.95937,-273.90384,-484.08194,226.37187,0.0
25-12-18_19.57.31.654,-0.04886,-0.02123,0.98253,-0.00053,-0.00351,0.00237,-129.64392,-270.98065,-479.69714,226.37187,0.0
25-12-18_19.57.31.664,-0.04721,-0.02824,0.98881,-0.01252,0.00115,-0.00038,-132.85945,-267.32666,-485.83588,226.37187,0.0
25-12-18_19.57.31.674,-0.04063,-0.04276,0.98832,0.00214,-0.00168,-0.00168,-133.44409,-267.18048,-480.13562,226.37187,0.0
25-12-18_19.57.31.684,-0.04508,-0.03209,0.98491,0.01474,-0.00588,0.00199,-134.32104,-270.98065,-478.23553,226.37187,0.0
25-12-18_19.57.31.695,-0.05289,-0.01592,0.98808,0.0042,-0.00328,0.00283,-134.32104,-270.98065,-478.23553,226.37187,0.0
25-12-18_19.57.31.705,-0.04831,-0.02495,0.98783,-0.01145,0.00076,-0.00107,-135.05185,-272.14993,-480.5741,226.42171,0.049839999999989004
25-12-18_19.57.31.715,-0.03758,-0.04538,0.99253,-0.00535,-0.00053,-0.00183,-132.85945,-275.2193,-484.81274,226.42171,0.0
25-12-18_19.57.31.725,-0.04233,-0.03538,0.98503,0.01245,-0.00466,0.0016,-136.65961,-271.71146,-479.84329,226.42171,0.0
25-12-18_19.57.31.735,-0.04862,-0.01202,0.97923,0.00901,-0.00565,0.00351,-132.27481,-275.07312,-479.55099,226.42171,0.0
25-12-18_19.57.31.745,-0.0499,-0.0133,0.98759,-0.00886,-0.00031,0.00053,-132.27481,-275.07312,-479.55099,226.42171,0.0
25-12-18_19.57.31.755,-0.03904,-0.03934,0.99552,-0.00909,0.0013,-0.00313,-134.17488,-276.09625,-475.75082,226.42171,0.0
25-12-18_19.57.31.765,-0.03538,-0.04191,0.98509,0.01023,-0.00328,0.00031,-131.54401,-273.90384,-476.1893,226.42171,0.0
25-12-18_19.57.31.775,-0.04849,-0.02007,0.97929,0.01237,-0.00588,0.00397,-137.97505,-281.94266,-480.42795,226.42171,0.0
25-12-18_19.57.31.785,-0.05447,-0.01116,0.98643,-0.01115,0.0026,-0.00221,-137.97505,-281.94266,-480.42795,226.42171,0.0
25-12-18_19.57.31.795,-0.04349,-0.03568,0.98905,0.00596,-0.00137,-0.00137,-135.05185,-273.02689,-476.1893,226.42171,0.0
25-12-18_19.57.31.805,-0.04947,-0.02525,0.97643,0.01481,-0.00397,0.00252,-131.54401,-276.97321,-481.01257,226.823,0.40129000000001724
25-12-18_19.57.31.815,-0.05405,-0.00348,0.981,0.00115,-0.00176,0.00321,-133.7364,-277.41168,-477.35858,226.823,0.0
25-12-18_19.57.31.825,-0.04996,-0.02873,0.99357,-0.01054,0.00145,-0.00137,-133.29793,-272.73456,-478.82019,226.823,0.0
25-12-18_19.57.31.835,-0.03813,-0.04221,0.99674,-0.00115,-0.00023,-0.0016,-133.29793,-272.73456,-478.82019,226.823,0.0
25-12-18_19.57.31.845,-0.04746,-0.03257,0.97917,0.01283,-0.00321,0.00267,-136.95192,-276.97321,-476.62778,226.823,0.0
25-12-18_19.57.31.855,-0.05734,-0.00976,0.976,0.00573,-0.00382,0.00336,-130.8132,-278.43481,-481.59723,226.823,0.0
25-12-18_19.57.31.865,-0.05386,-0.02086,0.9943,-0.01008,0.0,-0.00107,-129.79008,-274.34235,-479.69714,226.823,0.0
25-12-18_19.57.31.876,-0.04154,-0.0452,1.00028,-0.00512,-0.00015,-0.00244,-134.17488,-275.2193,-479.25867,226.823,0.0
25-12-18_19.57.31.885,-0.04197,-0.03751,0.98064,0.01077,-0.0029,0.00199,-134.17488,-275.2193,-479.25867,226.823,0.0
25-12-18_19.57.31.895,-0.05447,-0.01629,0.9724,0.00817,-0.00344,0.00435,-132.85945,-275.2193,-481.59723,226.823,0.0
25-12-18_19.57.31.906,-0.05893,-0.01006,0.98728,-0.00489,-0.00061,0.00176,-133.29793,-278.28867,-487.15131,226.823,0.0
25-12-18_19.57.31.916,-0.04538,-0.03751,1.0001,-0.0068,-0.00015,-0.00275,-131.39784,-271.56528,-482.03571,226.48799,-0.33501000000001113
25-12-18_19.57.31.926,-0.04014,-0.04032,0.99198,0.01008,-0.00496,0.00389,-131.39784,-271.56528,-482.03571,226.48799,0.0
25-12-18_19.57.31.936,-0.05325,-0.00994,0.97771,-0.00267,-0.00237,0.00183,-132.85945,-273.17307,-475.75082,226.48799,0.0
25-12-18_19.57.31.946,-0.04923,-0.03379,0.99875,-0.00893,-0.0016,-0.00313,-134.32104,-271.56528,-476.77396,226.48799,0.0
25-12-18_19.57.31.956,-0.03776,-0.04349,0.9957,0.00206,-0.00191,-0.00099,-133.15176,-274.05002,-477.79706,226.48799,0.0
25-12-18_19.57.31.966,-0.04764,-0.0266,0.97264,0.01,-0.00382,0.00267,-130.22856,-271.41913,-474.87387,226.48799,0.0
25-12-18_19.57.31.976,-0.05563,-0.00506,0.97405,0.00099,-0.00435,0.00267,-130.22856,-271.41913,-474.87387,226.48799,0.0
25-12-18_19.57.31.986,-0.04892,-0.02531,0.99735,-0.00596,-0.00275,-0.00099,-128.18233,-273.02689,-478.52786,226.48799,0.0
25-12-18_19.57.31.996,-0.03697,-0.04294,1.00174,0.00038,-0.00183,-0.0016,-132.56712,-275.07312,-475.75082,226.48799,0.0
25-12-18_19.57.32.006,-0.04374,-0.03392,0.97881,0.00954,-0.00359,0.0026,-131.39784,-272.73456,-477.50473,226.48799,0.0
25-12-18_19.57.32.016,-0.05478,-0.0133,0.97124,0.00458,-0.00305,0.00435,-131.83632,-274.63464,-480.72028,226.73412,0.24612999999999374
25-12-18_19.57.32.026,-0.05002,-0.01983,0.98741,-0.00588,-0.00298,0.00023,-131.83632,-274.63464,-480.72028,226.73412,0.0
25-12-18_19.57.32.036,-0.03556,-0.04118,1.00412,-0.00298,-0.00206,-0.00191,-129.49777,-275.07312,-476.04315,226.73412,0.0
25-12-18_19.57.32.046,-0.04124,-0.03581,0.98759,0.00702,-0.00206,0.00122,-128.47464,-273.31921,-481.01257,226.73412,0.0
25-12-18_19.57.32.056,-0.04886,-0.01305,0.96856,0.00672,-0.00374,0.00305,-129.35161,-274.05002,-488.90521,226.73412,0.0
25-12-18_19.57.32.066,-0.05344,-0.01379,0.98405,-0.00374,-0.00244,-0.00199,-129.35161,-274.05002,-488.90521,226.73412,0.0
25-12-18_19.57.32.076,-0.0402,-0.04044,0.99461,0.00725,-0.0026,0.00046,-130.52089,-271.1268,-483.35114,226.73412,0.0
25-12-18_19.57.32.086,-0.04776,-0.0222,0.97539,0.00832,-0.00336,0.00405,-125.11297,-274.63464,-480.42795,226.73412,0.0
25-12-18_19.57.32.096,-0.05447,-0.01421,0.97728,-0.00344,-0.00115,0.00183,-132.85945,-277.26553,-478.38171,226.73412,0.0
25-12-18_19.57.32.107,-0.04599,-0.03373,0.99589,-0.00672,-0.00115,-0.00191,-132.27481,-274.48849,-478.23553,226.73412,0.0
25-12-18_19.57.32.117,-0.03526,-0.04136,1.00034,0.00412,-0.00229,-0.00031,-132.27481,-274.48849,-478.23553,227.12976,0.3956400000000144
25-12-18_19.57.32.127,-0.04496,-0.02519,0.97533,0.00932,-0.00298,0.0029,-136.65961,-275.9501,-482.32803,227.12976,0.0
25-12-18_19.57.32.137,-0.05252,-0.00891,0.97301,-0.00153,-0.00244,0.00199,-128.18233,-276.82706,-482.47418,227.12976,0.0
25-12-18_19.57.32.147,-0.04904,-0.02971,0.99223,-0.00687,-0.00076,-0.00107,-132.27481,-275.51163,-485.10507,227.12976,0.0
25-12-18_19.57.32.157,-0.03843,-0.03867,0.99851,0.00405,-0.00283,-0.0013,-128.76697,-271.1268,-478.23553,227.12976,0.0
25-12-18_19.57.32.167,-0.04673,-0.03142,0.98381,0.01046,-0.00283,0.00221,-128.76697,-271.1268,-478.23553,227.12976,0.0
25-12-18_19.57.32.177,-0.05356,-0.01318,0.97655,-0.00099,-8e-05,0.0029,-133.59024,-273.02689,-479.84329,227.12976,0.0
25-12-18_19.57.32.187,-0.05167,-0.02586,0.98539,-0.00794,0.00107,-0.00061,-130.95937,-270.8345,-474.87387,227.12976,0.0
25-12-18_19.57.32.197,-0.04105,-0.03941,0.99808,0.00092,-0.00176,0.00176,-125.98993,-270.54218,-479.98947,227.12976,0.0
25-12-18_19.57.32.207,-0.04496,-0.03325,0.98594,0.00321,-0.00237,0.00336,-125.98993,-270.54218,-479.98947,227.12976,0.0
25-12-18_19.57.32.217,-0.05466,-0.01806,0.98302,-0.00565,-0.00069,0.00023,-128.03616,-266.15738,-481.59723,227.12976,0.0
25-12-18_19.57.32.228,-0.0441,-0.03489,0.9993,-0.00145,-0.00183,-0.00206,-130.52089,-271.27298,-476.48163,226.8338,-0.295960000000008
25-12-18_19.57.32.237,-0.04337,-0.03654,0.99473,0.00878,-0.00458,0.00084,-129.79008,-272.44226,-477.21243,226.8338,0.0
25-12-18_19.57.32.247,-0.05209,-0.0194,0.97716,0.00496,-0.00382,0.00351,-128.76697,-272.73456,-476.77396,226.8338,0.0
25-12-18_19.57.32.258,-0.05667,-0.01757,0.97862,-0.00672,-0.00053,0.00092,-128.76697,-272.73456,-476.77396,226.8338,0.0
25-12-18_19.57.32.268,-0.04569,-0.03483,0.99601,-0.00367,-0.00153,-0.0016,-128.03616,-274.78082,-475.75082,226.8338,0.0
25-12-18_19.57.32.278,-0.04118,-0.03733,0.99723,0.00771,-0.00428,0.00053,-129.49777,-271.8576,-477.65091,226.8338,0.0
25-12-18_19.57.32.288,-0.04971,-0.01867,0.98143,0.00764,-0.0042,0.00328,-128.32849,-269.08057,-474.87387,226.8338,0.0
25-12-18_19.57.32.298,-0.05459,-0.0108,0.97844,-0.00481,-0.00214,0.00237,-132.56712,-269.95752,-477.06625,226.8338,0.0
25-12-18_19.57.32.308,-0.04715,-0.03331,0.99308,-0.00695,-0.00214,-0.00153,-132.56712,-269.95752,-477.06625,226.8338,0.0
25-12-18_19.57.32.318,-0.03977,-0.03941,0.99894,0.00496,-0.00359,-0.00038,-130.8132,-270.24985,-482.47418,226.8338,0.0
25-12-18_19.57.32.328,-0.05026,-0.02684,0.98247,0.00886,-0.00382,0.00206,-128.03616,-269.95752,-483.93579,226.35132,-0.48248000000000957
25-12-18_19.57.32.338,-0.05246,-0.01202,0.97234,-0.00321,-0.00176,-0.00099,-124.82065,-271.8576,-481.59723,226.35132,0.0
25-12-18_19.57.32.348,-0.04703,-0.03135,0.98704,0.00382,-0.00412,-0.00115,-124.82065,-271.8576,-481.59723,226.35132,0.0
25-12-18_19.57.32.358,-0.04691,-0.02922,0.98241,0.01176,-0.00451,0.00275,-133.44409,-271.1268,-475.89697,226.35132,0.0
25-12-18_19.57.32.368,-0.05173,-0.01061,0.97289,-0.00061,-0.00183,0.00298,-138.85201,-273.02689,-483.78961,226.35132,0.0
25-12-18_19.57.32.378,-0.05081,-0.02184,0.98112,-0.00863,-0.00031,-0.00069,-136.07497,-274.78082,-480.28177,226.35132,0.0
25-12-18_19.57.32.388,-0.03861,-0.04032,0.99424,0.00237,-0.00351,-0.00221,-131.83632,-269.22675,-478.82019,226.35132,0.0
25-12-18_19.57.32.398,-0.0427,-0.0319,0.98625,0.01161,-0.00611,0.00176,-131.83632,-269.22675,-478.82019,226.35132,0.0
25-12-18_19.57.32.408,-0.05191,-0.01098,0.97569,0.00328,-0.00351,0.00351,-129.35161,-272.00378,-483.49731,226.35132,0.0
25-12-18_19.57.32.418,-0.05289,-0.01488,0.98106,-0.00733,-0.00053,0.00069,-127.01305,-267.03433,-485.54355,226.35132,0.0
25-12-18_19.57.32.428,-0.04087,-0.03642,0.99613,-0.00344,-0.00176,-0.00206,-128.6208,-268.49594,-483.35114,226.63905,0.2877300000000105
25-12-18_19.57.32.438,-0.03831,-0.03727,0.99467,0.00863,-0.00382,0.00076,-128.6208,-273.46536,-478.82019,226.63905,0.0
25-12-18_19.57.32.448,-0.05136,-0.01976,0.98027,0.00855,-0.00405,0.00336,-130.22856,-273.46536,-478.82019,226.63905,0.0
25-12-18_19.57.32.458,-0.05508,-0.00714,0.98143,-0.00351,-0.00229,0.00099,-134.90569,-269.81137,-475.75082,226.63905,0.0
25-12-18_19.57.32.468,-0.0449,-0.03373,1.00253,-0.00832,-0.00221,-0.00305,-130.66705,-272.14993,-483.93579,226.63905,0.0
25-12-18_19.57.32.478,-0.03385,-0.04465,0.99991,0.00481,-0.00313,0.00298,-130.66705,-271.1268,-481.15875,226.63905,0.0
25-12-18_19.57.32.488,-0.04831,-0.01915,0.99253,-0.00137,-0.00305,0.00153,-130.66705,-271.1268,-481.15875,226.63905,0.0
25-12-18_19.57.32.499,-0.04538,-0.02983,1.00229,-0.01038,-0.00053,-0.00244,-131.54401,-271.8576,-483.20499,226.63905,0.0
25-12-18_19.57.32.509,-0.0327,-0.04679,0.99936,-0.00023,-8e-05,-0.0016,-130.37473,-269.08057,-483.64346,226.63905,0.0
25-12-18_19.57.32.518,-0.04105,-0.03697,0.9785,0.00779,-0.00237,0.0016,-131.39784,-270.8345,-487.00513,226.63905,0.0
25-12-18_19.57.32.528,-0.05356,-0.01592,0.97411,0.00305,-0.00076,0.0026,-131.83632,-271.1268,-492.41306,226.63905,0.0
25-12-18_19.57.32.539,-0.04947,-0.02043,0.99058,-0.00779,-0.00031,-0.00069,-131.83632,-271.1268,-492.41306,227.12309,0.48403999999999314
25-12-18_19.57.32.549,-0.03251,-0.04618,1.00693,-0.00634,-0.00031,-0.00252,-132.12865,-266.59586,-483.20499,227.12309,0.0
25-12-18_19.57.32.559,-0.03941,-0.0416,0.97954,0.00878,-0.00061,0.00221,-130.22856,-270.1037,-475.16617,227.12309,0.0
25-12-18_19.57.32.569,-0.0499,-0.01494,0.95691,0.0097,-0.00328,0.00489,-132.42096,-268.78824,-483.49731,227.12309,0.0
25-12-18_19.57.32.579,-0.05478,-0.01781,0.98838,-0.00687,-0.00137,0.00153,-132.42096,-270.68832,-482.03571,227.12309,0.0
25-12-18_19.57.32.589,-0.04404,-0.04764,0.99631,-0.00565,0.00206,-0.00237,-129.49777,-270.68832,-482.03571,227.12309,0.0
25-12-18_19.57.32.599,-0.03325,-0.04648,0.97972,0.00695,-0.00076,0.00107,-133.59024,-275.9501,-487.15131,227.12309,0.0
25-12-18_19.57.32.609,-0.05228,-0.02605,0.966,0.00916,-0.00298,0.00412,-134.61337,-270.1037,-481.15875,227.12309,0.0
25-12-18_19.57.32.619,-0.05765,-0.00512,0.97972,-0.01894,-0.0013,-0.0016,-131.25168,-276.53473,-486.56665,227.12309,0.0
25-12-18_19.57.32.629,-0.05026,-0.03233,1.01388,0.00099,0.00038,-0.00076,-131.25168,-276.53473,-486.56665,227.12309,0.0
25-12-18_19.57.32.639,-0.05179,-0.03154,0.97271,0.00939,0.00061,0.00367,-134.75952,-271.41913,-484.52042,226.48183,-0.6412599999999884
25-12-18_19.57.32.649,-0.06374,-0.00476,0.96801,0.00764,-0.00176,0.00389,-135.9288,-271.8576,-484.08194,226.48183,0.0
25-12-18_19.57.32.659,-0.05081,-0.02092,1.00363,-0.00504,-0.00214,-0.0016,-132.71329,-272.29608,-489.92834,226.48183,0.0
25-12-18_19.57.32.669,-0.03922,-0.04197,1.00931,-0.00298,0.00084,-0.00183,-133.29793,-276.82706,-485.10507,226.48183,0.0
25-12-18_19.57.32.679,-0.04276,-0.0291,0.97728,0.01031,-0.00153,0.00283,-133.29793,-276.82706,-485.10507,226.48183,0.0
25-12-18_19.57.32.689,-0.05899,-0.00647,0.97167,0.00496,-0.00305,0.00466,-132.12865,-275.65778,-481.88953,226.48183,0.0
25-12-18_19.57.32.699,-0.05777,-0.00744,0.99528,-0.00489,-0.00145,-0.00031,-129.35161,-273.31921,-483.78961,226.48183,0.0
25-12-18_19.57.32.709,-0.04374,-0.03556,1.00705,-0.00191,-0.00076,-0.00359,-129.79008,-269.81137,-482.76651,226.48183,0.0
25-12-18_19.57.32.719,-0.03831,-0.03562,0.99461,0.00428,-0.00115,0.00031,-129.79008,-269.81137,-484.95889,226.48183,0.0
25-12-18_19.57.32.730,-0.05374,-0.0219,0.97222,0.00473,-0.00275,0.00435,-128.18233,-267.18048,-484.95889,226.48183,0.0
25-12-18_19.57.32.740,-0.05807,-0.00647,0.9799,-0.00145,-0.00367,0.0016,-130.22856,-267.32666,-481.01257,226.71973,0.23789999999999623
25-12-18_19.57.32.750,-0.04691,-0.03434,1.00577,-0.00687,-0.00214,-0.00305,-128.18233,-267.76514,-487.44363,226.71973,0.0
25-12-18_19.57.32.760,-0.03581,-0.04154,0.9982,0.00084,-0.0029,0.00267,-128.6208,-270.68832,-488.61292,226.71973,0.0
25-12-18_19.57.32.770,-0.04453,-0.02471,0.9721,-0.00038,-0.00428,0.00214,-128.6208,-270.68832,-488.61292,226.71973,0.0
25-12-18_19.57.32.780,-0.04691,-0.02745,1.00119,-0.00672,-0.00328,-0.00237,-128.91313,-272.00378,-485.25122,226.71973,0.0
25-12-18_19.57.32.790,-0.03428,-0.04227,0.99997,0.00031,-0.00137,-0.00206,-128.18233,-270.8345,-489.05139,226.71973,0.0
25-12-18_19.57.32.800,-0.0413,-0.03715,0.97631,0.00489,-0.00199,0.00252,-129.64392,-271.1268,-482.62033,226.71973,0.0
25-12-18_19.57.32.810,-0.05356,-0.02037,0.96984,0.00145,-0.00283,0.00374,-132.42096,-270.54218,-491.68225,226.71973,0.0
25-12-18_19.57.32.820,-0.04947,-0.02525,0.98564,-0.00328,-0.0026,-0.00031,-132.42096,-270.54218,-491.68225,226.71973,0.0
25-12-18_19.57.32.830,-0.03495,-0.04185,1.00394,-0.00275,-0.00199,-0.00107,-130.52089,-269.37289,-490.36682,226.71973,0.0
25-12-18_19.57.32.840,-0.0405,-0.038,0.98478,0.00489,-0.00053,0.00199,-129.35161,-270.8345,-488.46674,226.71973,0.0
25-12-18_19.57.32.850,-0.0474,-0.01464,0.96118,0.0055,-0.00221,0.00458,-130.52089,-265.7189,-479.55099,226.56044,-0.1592899999999986
25-12-18_19.57.32.861,-0.05136,-0.02129,0.98192,-0.00283,-0.00298,0.00122,-130.52089,-265.7189,-481.01257,226.56044,0.0
25-12-18_19.57.32.871,-0.04301,-0.03904,1.00522,-0.00153,-0.00191,-0.00229,-130.08241,-273.90384,-481.01257,226.56044,0.0
25-12-18_19.57.32.880,-0.04227,-0.04087,0.99113,0.00565,-0.00191,0.00092,-130.95937,-267.32666,-480.42795,226.56044,0.0
25-12-18_19.57.32.890,-0.05045,-0.02202,0.96789,0.00336,-0.00176,0.00367,-126.13609,-269.37289,-484.08194,226.56044,0.0
25-12-18_19.57.32.901,-0.05374,-0.01793,0.97881,-0.00092,-0.00191,-0.00153,-128.76697,-269.66522,-486.85898,226.56044,0.0
25-12-18_19.57.32.911,-0.04819,-0.03715,1.00064,0.00626,-0.00244,-0.00069,-128.76697,-269.66522,-486.85898,226.56044,0.0
25-12-18_19.57.32.921,-0.05209,-0.02397,0.97771,0.00473,-0.00061,0.0026,-135.34416,-267.91129,-484.81274,226.56044,0.0
25-12-18_19.57.32.931,-0.05673,-0.01037,0.97008,-0.00191,-0.00053,0.00237,-130.8132,-271.56528,-491.68225,226.56044,0.0
25-12-18_19.57.32.941,-0.04691,-0.03062,0.99271,-0.00099,-0.0026,-0.00206,-132.12865,-272.44226,-485.6897,226.56044,0.0
25-12-18_19.57.32.951,-0.0413,-0.03544,1.00699,0.00619,-0.00359,-0.00115,-131.10553,-271.8576,-481.59723,227.09636,0.5359200000000044
25-12-18_19.57.32.961,-0.04929,-0.02281,0.98448,0.00764,-0.00229,0.00221,-131.10553,-271.8576,-481.59723,227.09636,0.0
25-12-18_19.57.32.971,-0.05508,-0.00952,0.97069,-0.00275,-0.00107,0.00206,-133.7364,-270.1037,-482.03571,227.09636,0.0
25-12-18_19.57.32.981,-0.04691,-0.02629,0.98881,-0.0058,-0.00283,-0.00145,-128.03616,-269.37289,-485.54355,227.09636,0.0
25-12-18_19.57.32.991,-0.03813,-0.04124,1.00266,0.00519,-0.00321,-0.00153,-128.32849,-272.29608,-473.70459,227.09636,0.0
25-12-18_19.57.33.001,-0.04453,-0.028,0.98936,0.00924,-0.0029,0.00191,-128.32849,-272.29608,-473.70459,227.09636,0.0
25-12-18_19.57.33.011,-0.05039,-0.01202,0.97588,-0.00229,8e-05,0.00275,-132.42096,-270.1037,-478.23553,227.09636,0.0
25-12-18_19.57.33.021,-0.04959,-0.0219,0.98338,-0.00916,0.00092,-0.00084,-135.63649,-271.27298,-480.5741,227.09636,0.0
25-12-18_19.57.33.031,-0.03861,-0.03587,0.99857,0.00206,-0.00389,-0.00252,-129.93625,-270.8345,-479.11249,227.09636,0.0
25-12-18_19.57.33.041,-0.04349,-0.02916,0.99564,8e-05,-0.00099,0.00351,-130.37473,-268.49594,-484.08194,227.09636,0.0
25-12-18_19.57.33.051,-0.05087,-0.01781,0.97661,-0.00947,0.00183,0.00046,-130.37473,-268.49594,-484.08194,226.95969,-0.1366700000000094
25-12-18_19.57.33.061,-0.04166,-0.03788,0.99033,-0.00137,-0.00252,-0.00214,-132.27481,-270.39603,-477.06625,226.95969,0.0
25-12-18_19.57.33.071,-0.03953,-0.03916,0.99406,0.01122,-0.00458,0.00122,-134.61337,-269.51904,-470.92755,226.95969,0.0
25-12-18_19.57.33.081,-0.04984,-0.02098,0.97813,0.00664,-0.00351,0.00389,-130.66705,-267.18048,-482.47418,226.95969,0.0
25-12-18_19.57.33.091,-0.0549,-0.01379,0.97832,-0.00786,-0.00015,0.00183,-128.6208,-267.76514,-488.90521,226.95969,0.0
25-12-18_19.57.33.101,-0.04703,-0.03605,0.99284,-0.00672,-0.00099,-0.00168,-128.6208,-267.76514,-488.90521,226.95969,0.0
25-12-18_19.57.33.111,-0.0405,-0.04301,0.99723,0.00779,-0.00336,-0.00031,-131.25168,-269.22675,-480.86642,226.95969,0.0
25-12-18_19.57.33.121,-0.0513,-0.02342,0.98192,0.00947,-0.00328,0.00397,-133.29793,-275.80392,-471.21985,226.95969,0.0
25-12-18_19.57.33.131,-0.05673,-0.01116,0.97661,-0.00443,0.00031,0.00244,-127.30537,-274.48849,-483.93579,226.95969,0.0
25-12-18_19.57.33.141,-0.04849,-0.03404,0.99174,-0.00855,-0.00061,-0.00199,-127.30537,-274.48849,-483.93579,226.95969,0.0
25-12-18_19.57.33.152,-0.03703,-0.04703,0.99991,0.00443,-0.00275,-0.00145,-132.42096,-271.41913,-481.59723,226.95969,0.0
25-12-18_19.57.33.162,-0.04581,-0.03221,0.97984,0.01031,-0.00374,0.00252,-129.93625,-272.58841,-483.05881,226.57071,-0.38898000000000366
25-12-18_19.57.33.172,-0.05636,-0.00933,0.97142,0.00046,-0.00237,-0.01642,-132.27481,-268.05746,-481.01257,226.57071,0.0
25-12-18_19.57.33.182,-0.05014,-0.02434,0.98832,0.0013,-0.00176,-0.0026,-133.29793,-274.19617,-483.05881,226.57071,0.0
25-12-18_19.57.33.192,-0.04118,-0.03605,0.98637,0.01145,-0.00344,0.00191,-133.29793,-274.19617,-483.05881,226.57071,0.0
25-12-18_19.57.33.202,-0.05386,-0.01208,0.97161,0.00367,-0.00267,0.00367,-130.52089,-270.8345,-483.49731,226.57071,0.0
25-12-18_19.57.33.212,-0.05313,-0.01665,0.9832,-0.00825,-0.0013,0.00038,-130.52089,-271.41913,-481.15875,226.57071,0.0
25-12-18_19.57.33.222,-0.03983,-0.04233,1.00083,-0.00397,-0.0013,-0.00389,-130.08241,-272.29608,-482.91266,226.57071,0.0
25-12-18_19.57.33.232,-0.03318,-0.03989,0.99223,0.00848,-0.00275,-0.00031,-131.10553,-275.2193,-483.93579,226.57071,0.0
25-12-18_19.57.33.242,-0.04941,-0.01635,0.9699,0.00771,-0.00252,0.00397,-131.10553,-275.2193,-483.93579,226.57071,0.0
25-12-18_19.57.33.252,-0.05514,-0.00232,0.97692,-0.00466,-0.00176,0.00122,-128.91313,-271.56528,-482.03571,226.57071,0.0
25-12-18_19.57.33.262,-0.04319,-0.03385,0.99918,-0.00588,-0.00153,-0.00275,-124.23601,-271.8576,-483.93579,226.96585,0.3951399999999978
25-12-18_19.57.33.272,-0.03038,-0.04038,1.00199,0.00496,-0.00199,-0.00076,-132.71329,-267.47281,-481.45105,226.96585,0.0
25-12-18_19.57.33.282,-0.04746,-0.02824,0.97472,0.00878,-0.0013,0.0029,-132.71329,-267.47281,-481.45105,226.96585,0.0
25-12-18_19.57.33.292,-0.05984,-0.00439,0.97344,-0.00122,-0.00053,0.00267,-132.27481,-267.91129,-482.03571,226.96585,0.0
25-12-18_19.57.33.302,-0.04917,-0.02586,0.99582,-0.00664,-0.00137,-0.00214,-130.37473,-271.1268,-480.28177,226.96585,0.0
25-12-18_19.57.33.312,-0.03276,-0.04361,1.00662,0.00115,-0.00145,0.00237,-134.75952,-273.31921,-484.22809,226.96585,0.0
25-12-18_19.57.33.322,-0.0405,-0.03428,0.9821,0.00191,-0.00092,0.00481,-134.75952,-272.14993,-480.42795,226.96585,0.0
25-12-18_19.57.33.332,-0.05825,-0.01494,0.98851,-0.00695,-0.00099,0.00069,-134.75952,-272.14993,-480.42795,226.96585,0.0
25-12-18_19.57.33.342,-0.03892,-0.0402,1.00351,-0.00183,-0.00183,-0.00305,-133.44409,-273.17307,-483.78961,226.96585,0.0
25-12-18_19.57.33.352,-0.03898,-0.04124,0.99046,0.00695,-0.00199,0.00115,-135.34416,-277.41168,-485.25122,226.96585,0.0
25-12-18_19.57.33.362,-0.05331,-0.02062,0.96801,0.00619,-0.00283,0.00435,-130.66705,-272.73456,-487.44363,226.96585,0.0
25-12-18_19.57.33.372,-0.06094,-0.0086,0.98003,-0.00397,-0.00168,0.00183,-129.35161,-276.09625,-479.25867,226.30353,-0.662319999999994
25-12-18_19.57.33.383,-0.04813,-0.03837,1.00272,-0.00535,-0.0016,-0.00283,-129.35161,-276.09625,-479.25867,226.30353,0.0
25-12-18_19.57.33.393,-0.03471,-0.04514,0.99576,0.00412,-0.00137,-0.00038,-128.76697,-274.05002,-487.29745,226.30353,0.0
25-12-18_19.57.33.403,-0.05167,-0.02745,0.97033,0.00733,-0.00206,0.00359,-132.56712,-274.48849,-483.35114,226.30353,0.0
25-12-18_19.57.33.413,-0.05947,-0.00628,0.97301,-0.00023,-0.00275,0.00298,-132.85945,-273.46536,-483.20499,226.30353,0.0
25-12-18_19.57.33.423,-0.05039,-0.03209,0.99961,-0.00527,-0.00283,-0.00176,-132.85945,-273.46536,-483.20499,226.30353,0.0
25-12-18_19.57.33.433,-0.03764,-0.04435,1.00375,0.00153,-0.00099,-0.00183,-131.54401,-270.54218,-478.23553,226.30353,0.0
25-12-18_19.57.33.443,-0.04721,-0.0316,0.97155,0.00756,-0.00206,0.00221,-130.66705,-272.88074,-475.75082,226.30353,0.0
25-12-18_19.57.33.453,-0.05685,-0.00982,0.96801,0.00191,-0.0026,-0.00153,-129.49777,-274.34235,-484.37427,226.30353,0.0
25-12-18_19.57.33.463,-0.04978,-0.02458,0.99461,-0.00115,-0.00153,-0.00267,-131.39784,-271.56528,-481.45105,226.30353,0.0
25-12-18_19.57.33.473,-0.04105,-0.03806,0.98234,0.0055,-0.00076,0.00153,-131.39784,-271.56528,-481.45105,226.90163,0.5981000000000165
25-12-18_19.57.33.483,-0.05344,-0.01629,0.96545,0.00382,-0.00092,0.0042,-128.47464,-270.8345,-480.42795,226.90163,0.0
25-12-18_19.57.33.493,-0.05185,-0.01739,0.98362,-0.00137,-0.00237,0.00069,-131.25168,-272.44226,-482.47418,226.90163,0.0
25-12-18_19.57.33.504,-0.03867,-0.0377,1.00772,0.00023,-0.00267,-0.0026,-130.95937,-274.19617,-483.49731,226.90163,0.0
25-12-18_19.57.33.513,-0.03715,-0.03581,0.99692,0.00496,-0.00176,0.0013,-133.7364,-274.63464,-477.94321,226.90163,0.0
25-12-18_19.57.33.523,-0.05154,-0.01891,0.96557,0.0042,-0.00092,0.0042,-133.7364,-274.63464,-477.94321,226.90163,0.0
25-12-18_19.57.33.533,-0.05466,-0.01281,0.97533,-0.00458,-0.00115,0.00214,-133.0056,-270.1037,-475.16617,226.90163,0.0
25-12-18_19.57.33.543,-0.04307,-0.0352,0.9982,-0.0016,-0.00328,-0.00191,-129.20544,-270.68832,-481.59723,226.90163,0.0
25-12-18_19.57.33.553,-0.03727,-0.03678,1.00205,0.00557,-0.00267,0.00038,-133.59024,-270.68832,-474.43539,226.90163,0.0
25-12-18_19.57.33.563,-0.04898,-0.02501,0.97746,0.0058,-0.0013,0.00305,-133.59024,-270.68832,-474.43539,226.90163,0.0
25-12-18_19.57.33.574,-0.05466,-0.01165,0.97112,-0.00252,-0.00061,0.00237,-135.63649,-273.90384,-479.11249,226.48799,-0.4136400000000151
25-12-18_19.57.33.584,-0.04691,-0.0283,0.99418,-0.00237,-0.00305,-0.00069,-132.27481,-275.07312,-473.11993,226.48799,0.0
25-12-18_19.57.33.594,-0.03971,-0.03581,1.00632,0.00611,-0.00153,0.00229,-129.79008,-269.37289,-482.03571,226.48799,0.0
25-12-18_19.57.33.604,-0.04923,-0.02464,0.97136,-0.00443,0.0016,0.0016,-131.10553,-271.8576,-478.82019,226.48799,0.0
25-12-18_19.57.33.614,-0.04874,-0.03026,0.98552,-0.00573,-0.00069,-0.00122,-131.10553,-271.8576,-478.82019,226.48799,0.0
25-12-18_19.57.33.624,-0.04099,-0.03928,0.99869,0.00443,-0.00435,-0.0013,-134.32104,-272.14993,-476.33545,226.48799,0.0
25-12-18_19.57.33.634,-0.04654,-0.02525,0.98881,0.0084,-0.00466,0.00229,-134.90569,-273.75769,-477.50473,226.48799,0.0
25-12-18_19.57.33.644,-0.05179,-0.01324,0.97594,-0.0029,-0.00023,0.00229,-136.07497,-274.19617,-476.1893,226.48799,0.0
25-12-18_19.57.33.654,-0.04917,-0.0233,0.98118,-0.00748,-0.00023,-0.00099,-132.27481,-273.90384,-485.6897,226.48799,0.0
25-12-18_19.57.33.664,-0.0413,-0.03745,0.99808,0.00443,-0.00458,-0.00168,-132.27481,-273.90384,-485.6897,226.48799,0.0
25-12-18_19.57.33.674,-0.04703,-0.03026,0.99912,0.01008,-0.00458,0.00145,-134.17488,-274.92697,-481.01257,226.48799,0.0
25-12-18_19.57.33.684,-0.04978,-0.02287,0.97856,-0.00244,-0.00031,0.00237,-137.68272,-269.08057,-479.84329,226.21875,-0.26923999999999637
25-12-18_19.57.33.694,-0.04929,-0.02983,0.97624,-0.01023,0.00107,0.0,-134.90569,-269.22675,-475.31235,226.21875,0.0
25-12-18_19.57.33.704,-0.04514,-0.0402,0.98674,0.00283,-0.00252,-0.00115,-134.90569,-269.22675,-475.31235,226.21875,0.0
25-12-18_19.57.33.714,-0.04593,-0.02495,0.99046,0.01306,-0.0055,0.00137,-134.90569,-270.54218,-477.65091,226.21875,0.0
25-12-18_19.57.33.724,-0.04575,-0.01116,0.98186,0.00229,-0.00344,0.00221,-138.55969,-271.56528,-478.82019,226.21875,0.0
25-12-18_19.57.33.734,-0.04563,-0.02001,0.98076,0.0087,-0.00183,-0.00084,-137.68272,-274.19617,-472.68146,226.21875,0.0
25-12-18_19.57.33.744,-0.04386,-0.03678,0.99332,0.01489,-0.00588,0.00038,-134.32104,-271.1268,-478.96634,226.21875,0.0
25-12-18_19.57.33.754,-0.05039,-0.02281,0.9907,0.0042,-0.00214,0.00221,-134.32104,-271.1268,-478.96634,226.21875,0.0
25-12-18_19.57.33.764,-0.04697,-0.02715,0.98539,-0.01115,0.00221,0.00023,-134.02873,-272.44226,-476.04315,226.21875,0.0
25-12-18_19.57.33.775,-0.04002,-0.03995,0.98777,-0.00389,-0.00092,-0.00137,-135.05185,-269.95752,-478.96634,226.21875,0.0
25-12-18_19.57.33.784,-0.04368,-0.03123,0.99149,0.01214,-0.00519,0.00115,-130.52089,-267.91129,-472.09683,226.42377,0.20501999999999043
25-12-18_19.57.33.794,-0.05008,-0.00946,0.98369,0.00748,-0.00389,0.00351,-130.52089,-268.34976,-470.92755,226.42377,0.0
25-12-18_19.57.33.805,-0.05215,-0.01318,0.98161,-0.0097,0.00191,0.00092,-136.36728,-268.34976,-470.92755,226.42377,0.0
25-12-18_19.57.33.815,-0.04557,-0.03385,0.98661,-0.00695,0.00176,-0.00244,-137.09808,-268.78824,-479.84329,226.42377,0.0
25-12-18_19.57.33.825,-0.04118,-0.04008,0.98814,0.01222,-0.00435,-0.00015,-136.65961,-270.8345,-481.45105,226.42377,0.0
25-12-18_19.57.33.835,-0.05094,-0.02538,0.98783,0.01321,-0.00542,0.00305,-134.17488,-271.1268,-475.16617,226.42377,0.0
25-12-18_19.57.33.845,-0.05533,-0.0158,0.98649,-0.00725,0.00092,0.00191,-134.17488,-271.1268,-475.16617,226.42377,0.0
25-12-18_19.57.33.855,-0.04813,-0.03599,0.9868,-0.01252,0.00328,-0.00168,-133.29793,-271.56528,-470.92755,226.42377,0.0
25-12-18_19.57.33.865,-0.03953,-0.04288,0.98826,0.00588,-0.00183,-0.00092,-135.9288,-270.8345,-475.60468,226.42377,0.0
25-12-18_19.57.33.875,-0.04856,-0.01952,0.98308,-0.00237,-0.00237,0.00344,-138.70584,-265.86505,-471.51218,226.42377,0.0
25-12-18_19.57.33.885,-0.05307,-0.00384,0.98918,-0.01405,0.00221,-0.00137,-135.49033,-264.40344,-475.75082,226.77573,0.3519600000000196
25-12-18_19.57.33.895,-0.03916,-0.04514,0.98997,0.00115,-0.00053,-0.00221,-135.49033,-264.40344,-475.75082,226.77573,0.0
25-12-18_19.57.33.905,-0.04636,-0.03282,0.97984,0.01626,-0.00626,0.00168,-137.53656,-265.86505,-479.69714,226.77573,0.0
25-12-18_19.57.33.915,-0.05392,-0.01068,0.98332,0.00535,-0.00458,0.00267,-131.39784,-267.47281,-486.27435,226.77573,0.0
25-12-18_19.57.33.925,-0.05203,-0.01848,0.99338,-0.01245,0.00031,-0.00084,-131.54401,-266.88818,-483.49731,226.77573,0.0
25-12-18_19.57.33.936,-0.03904,-0.04508,0.9965,-0.00619,0.00031,-0.00328,-131.54401,-268.20361,-482.03571,226.77573,0.0
25-12-18_19.57.33.946,-0.03861,-0.0369,0.98088,0.01252,-0.00481,0.00176,-130.8132,-268.20361,-482.03571,226.77573,0.0
25-12-18_19.57.33.956,-0.05319,-0.01623,0.97734,0.00985,-0.00535,0.00428,-135.05185,-271.27298,-484.81274,226.77573,0.0
25-12-18_19.57.33.966,-0.05459,-0.0119,0.98814,-0.00939,8e-05,0.00084,-134.75952,-268.20361,-478.08939,226.77573,0.0
25-12-18_19.57.33.976,-0.04246,-0.03983,0.99729,-0.01023,0.00176,-0.00283,-134.32104,-268.78824,-481.45105,226.77573,0.0
25-12-18_19.57.33.986,-0.03678,-0.04233,0.98899,0.0084,-0.00298,-0.00015,-134.32104,-268.78824,-481.45105,226.77573,0.0
25-12-18_19.57.33.996,-0.04929,-0.02074,0.97295,0.01382,-0.00634,0.00405,-138.41353,-268.93442,-482.03571,226.42377,-0.3519600000000196
25-12-18_19.57.34.006,-0.05856,-0.0058,0.98192,-0.00313,-0.00199,0.00298,-135.05185,-271.27298,-481.59723,226.42377,0.0
25-12-18_19.57.34.016,-0.04734,-0.03068,0.99521,0.00252,-0.00107,-0.00176,-138.55969,-273.61154,-479.69714,226.42377,0.0
25-12-18_19.57.34.026,-0.03392,-0.04673,0.97319,0.01245,-0.00389,0.00313,-138.85201,-273.90384,-478.52786,226.42377,0.0
25-12-18_19.57.34.036,-0.05411,-0.00781,0.97746,0.0029,-0.00336,0.00405,-138.85201,-273.90384,-478.52786,226.42377,0.0
25-12-18_19.57.34.046,-0.05032,-0.02416,0.99479,-0.00886,-0.00076,-8e-05,-130.08241,-273.61154,-479.69714,226.42377,0.0
25-12-18_19.57.34.056,-0.0352,-0.04056,1.00186,-0.00267,-0.00076,-0.00221,-136.65961,-273.02689,-480.72028,226.42377,0.0
25-12-18_19.57.34.066,-0.04319,-0.03385,0.98228,0.01008,-0.00267,0.00206,-134.17488,-272.58841,-481.59723,226.42377,0.0
25-12-18_19.57.34.076,-0.05466,-0.01104,0.97008,0.00641,-0.00367,0.00443,-134.17488,-272.58841,-479.40482,226.42377,0.0
25-12-18_19.57.34.086,-0.05514,-0.01684,0.98771,-0.00802,-0.00176,0.00046,-136.07497,-270.8345,-479.40482,226.42377,0.0
25-12-18_19.57.34.096,-0.03977,-0.03983,1.00284,-0.00611,-0.00038,-0.00252,-134.17488,-272.58841,-484.08194,226.22491,-0.19885999999999626
25-12-18_19.57.34.106,-0.03715,-0.04301,0.98643,0.00733,-0.00214,0.00023,-133.15176,-268.64209,-482.32803,226.22491,0.0
25-12-18_19.57.34.116,-0.04953,-0.02037,0.97167,0.00939,-0.00405,0.0042,-130.22856,-272.29608,-485.6897,226.22491,0.0
25-12-18_19.57.34.126,-0.05868,-0.00872,0.98143,-0.00367,-0.0016,0.00191,-130.22856,-272.29608,-485.6897,226.22491,0.0
25-12-18_19.57.34.136,-0.04496,-0.03447,1.00113,-0.00764,-0.00053,-0.00275,-128.91313,-272.00378,-484.95889,226.22491,0.0
25-12-18_19.57.34.146,-0.03636,-0.04008,0.99875,0.00328,-0.00199,-0.00076,-129.05928,-274.19617,-478.67401,226.22491,0.0
25-12-18_19.57.34.156,-0.04862,-0.02458,0.97252,-0.00061,-0.00252,0.0026,-127.74384,-273.31921,-482.62033,226.22491,0.0
25-12-18_19.57.34.166,-0.05624,-0.03245,0.99692,-0.00672,-0.00137,-0.00191,-135.63649,-272.88074,-484.95889,226.22491,0.0
25-12-18_19.57.34.176,-0.03587,-0.04246,1.00235,0.00168,-0.00053,-0.00168,-135.63649,-272.88074,-484.95889,226.22491,0.0
25-12-18_19.57.34.186,-0.04526,-0.03019,0.97447,0.00886,-0.00237,0.00252,-132.56712,-272.14993,-484.81274,226.22491,0.0
25-12-18_19.57.34.196,-0.05527,-0.00793,0.97173,0.00221,-0.00214,0.00298,-134.46721,-273.61154,-482.62033,226.56044,0.33553000000000566
25-12-18_19.57.34.207,-0.05087,-0.02287,0.99271,-0.00535,-0.00229,-0.00076,-132.12865,-272.29608,-481.88953,226.56044,0.0
25-12-18_19.57.34.217,-0.03916,-0.03941,1.00662,0.00084,-0.00191,-0.00283,-132.12865,-272.29608,-481.88953,226.56044,0.0
25-12-18_19.57.34.227,-0.04313,-0.03404,0.98619,0.00825,-0.00199,0.00153,-130.37473,-273.02689,-477.06625,226.56044,0.0
25-12-18_19.57.34.237,-0.05502,-0.01653,0.97051,0.00321,-8e-05,0.00328,-133.7364,-272.29608,-480.5741,226.56044,0.0
25-12-18_19.57.34.247,-0.05344,-0.02007,0.98314,-0.00504,-0.00122,0.00053,-131.98248,-272.73456,-482.91266,226.56044,0.0
25-12-18_19.57.34.257,-0.03989,-0.04246,1.00101,-0.00267,-0.00244,-0.00237,-135.78264,-276.09625,-478.38171,226.56044,0.0
25-12-18_19.57.34.267,-0.04087,-0.03587,0.99351,0.00664,-0.00252,0.00046,-135.78264,-276.09625,-478.38171,226.56044,0.0
25-12-18_19.57.34.277,-0.04941,-0.01629,0.96862,0.00542,-0.00153,0.00298,-135.05185,-274.92697,-479.98947,226.56044,0.0
25-12-18_19.57.34.287,-0.05594,-0.01116,0.97783,-0.00397,-0.00084,-0.01833,-132.85945,-273.17307,-479.40482,226.56044,0.0
25-12-18_19.57.34.297,-0.04459,-0.03447,0.99723,0.00718,-0.00351,0.00038,-136.95192,-275.2193,-476.04315,226.56044,0.0
25-12-18_19.57.34.307,-0.05075,-0.02794,0.9785,0.00519,-0.00237,0.00298,-134.75952,-274.92697,-481.88953,226.30765,-0.2527900000000045
25-12-18_19.57.34.317,-0.05533,-0.0169,0.97307,-0.00496,-0.00023,0.00206,-134.75952,-274.92697,-481.88953,226.30765,0.0
25-12-18_19.57.34.327,-0.04941,-0.03154,0.98979,-0.00428,-0.00145,-0.00191,-133.29793,-281.0657,-480.13562,226.30765,0.0
25-12-18_19.57.34.337,-0.03758,-0.03825,1.0004,0.00657,-0.00412,-0.00076,-130.37473,-279.75024,-475.60468,226.30765,0.0
25-12-18_19.57.34.347,-0.04544,-0.02342,0.98509,0.00825,-0.00397,0.0029,-134.32104,-273.75769,-476.9201,226.30765,0.0
25-12-18_19.57.34.357,-0.05392,-0.01318,0.97228,-0.00397,-0.00038,0.00237,-134.32104,-273.75769,-476.9201,226.30765,0.0
25-12-18_19.57.34.368,-0.04764,-0.02739,0.98314,-0.0084,-0.00053,-0.00122,-139.14433,-272.58841,-481.15875,226.30765,0.0
25-12-18_19.57.34.378,-0.04368,-0.04063,0.99668,0.00519,-0.00374,-0.00168,-130.37473,-272.58841,-472.09683,226.30765,0.0
25-12-18_19.57.34.388,-0.04557,-0.02495,0.98844,0.01054,-0.00466,0.00145,-130.66705,-275.36545,-479.11249,226.30765,0.0
25-12-18_19.57.34.398,-0.05081,-0.01586,0.97606,-0.00176,-0.00176,0.00267,-131.83632,-269.51904,-474.72769,226.30765,0.0
25-12-18_19.57.34.408,-0.04904,-0.02452,0.98576,-0.00794,-0.00107,-0.00061,-131.83632,-269.51904,-474.72769,225.93513,-0.3725200000000086
25-12-18_19.57.34.418,-0.03867,-0.03995,0.99711,0.00328,-0.00283,-0.00168,-132.27481,-273.75769,-480.5741,225.93513,0.0
25-12-18_19.57.34.428,-0.04532,-0.03135,0.9929,0.01069,-0.00313,0.00267,-134.75952,-269.95752,-477.79706,225.93513,0.0
25-12-18_19.57.34.438,-0.05026,-0.01842,0.98021,-0.0087,0.00191,0.00038,-130.08241,-270.24985,-476.48163,225.93513,0.0
25-12-18_19.57.34.448,-0.04215,-0.03672,0.99406,-8e-05,-0.00229,-0.00168,-130.95937,-269.51904,-487.00513,225.93513,0.0
25-12-18_19.57.34.458,-0.04343,-0.03093,0.99424,0.01176,-0.00527,0.00099,-130.95937,-269.51904,-487.00513,225.93513,0.0
25-12-18_19.57.34.468,-0.04831,-0.01501,0.97911,0.00237,-0.0029,0.00328,-129.64392,-272.73456,-479.55099,225.93513,0.0
25-12-18_19.57.34.478,-0.0527,-0.02086,0.97795,-0.00993,0.00122,0.00031,-128.03616,-272.88074,-481.15875,225.93513,0.0
25-12-18_19.57.34.488,-0.04337,-0.03544,0.98515,-0.00206,-0.00015,-0.00252,-127.74384,-271.41913,-487.00513,225.93513,0.0
25-12-18_19.57.34.498,-0.04307,-0.03782,0.99125,0.01161,-0.00466,0.00092,-127.74384,-271.41913,-487.00513,225.93513,0.0
25-12-18_19.57.34.508,-0.04703,-0.01818,0.98259,0.00832,-0.00405,0.00351,-132.71329,-272.14993,-474.58154,226.60565,0.6705200000000104
25-12-18_19.57.34.518,-0.05075,-0.01531,0.98167,-0.00756,0.00023,0.00153,-131.10553,-270.24985,-480.42795,226.60565,0.0
25-12-18_19.57.34.528,-0.04685,-0.03587,0.99107,-0.00626,0.0,-0.0013,-132.56712,-270.98065,-482.32803,226.60565,0.0
25-12-18_19.57.34.538,-0.04166,-0.03916,0.9932,0.01084,-0.00367,8e-05,-132.56712,-269.81137,-480.72028,226.60565,0.0
25-12-18_19.57.34.548,-0.05295,-0.02117,0.98521,0.00962,-0.00336,0.00275,-132.56712,-269.81137,-480.72028,226.60565,0.0
25-12-18_19.57.34.558,-0.05575,-0.01196,0.97996,-0.00702,-0.00046,0.00176,-127.59769,-274.48849,-476.77396,226.60565,0.0
25-12-18_19.57.34.568,-0.04502,-0.0341,0.98905,-0.01038,-0.00046,-0.00084,-127.89001,-270.98065,-473.99689,226.60565,0.0
25-12-18_19.57.34.578,-0.03806,-0.04301,0.99442,0.01191,-0.0058,0.00305,-127.59769,-269.37289,-478.67401,226.60565,0.0
25-12-18_19.57.34.588,-0.05655,-0.00891,0.98003,-0.00206,-0.00053,0.00244,-132.85945,-268.93442,-477.35858,226.60565,0.0
25-12-18_19.57.34.598,-0.04965,-0.02538,0.98728,-0.01008,0.00069,-0.0016,-132.85945,-268.93442,-477.35858,226.60565,0.0
25-12-18_19.57.34.608,-0.03831,-0.04081,0.99936,0.0029,-0.00176,-0.00183,-136.95192,-269.51904,-483.05881,226.60565,0.0
25-12-18_19.57.34.618,-0.04502,-0.0316,0.9871,0.01329,-0.00435,0.0016,-134.32104,-268.78824,-474.43539,225.66643,-0.9392200000000059
25-12-18_19.57.34.629,-0.05368,-0.00982,0.97899,0.00275,-0.00298,0.00382,-131.39784,-270.39603,-472.24298,225.66643,0.0
25-12-18_19.57.34.639,-0.05222,-0.01989,0.98765,-0.01191,-0.00015,0.0,-131.39784,-270.39603,-472.24298,225.66643,0.0
25-12-18_19.57.34.649,-0.03977,-0.04422,0.99454,-0.00428,-0.00084,-0.00275,-138.26736,-272.44226,-476.9201,225.66643,0.0
25-12-18_19.57.34.659,-0.03825,-0.0391,0.98448,0.01237,-0.00367,0.00115,-133.7364,-272.58841,-478.67401,225.66643,0.0
25-12-18_19.57.34.669,-0.05045,-0.01366,0.9771,0.00779,-0.00466,0.00389,-135.9288,-271.56528,-476.33545,225.66643,0.0
25-12-18_19.57.34.679,-0.05374,-0.00884,0.98588,-0.0087,-0.00053,0.00107,-135.63649,-271.1268,-468.44281,225.66643,0.0
25-12-18_19.57.34.689,-0.04307,-0.03806,0.99473,-0.00748,-0.00061,-0.00328,-135.63649,-271.1268,-468.44281,225.66643,0.0
25-12-18_19.57.34.699,-0.03312,-0.04148,0.99357,0.0087,-0.00328,-0.00038,-133.0056,-271.8576,-478.08939,225.66643,0.0
25-12-18_19.57.34.709,-0.04935,-0.02507,0.97759,0.01184,-0.00023,0.00367,-129.49777,-275.07312,-472.68146,225.66643,0.0
25-12-18_19.57.34.719,-0.05813,-0.00921,0.9957,-0.01,0.00076,-0.0029,-134.90569,-269.81137,-478.67401,226.63905,0.9726200000000063
25-12-18_19.57.34.729,-0.0319,-0.0466,0.99839,0.00221,-0.00099,-0.00176,-134.32104,-268.05746,-478.23553,226.63905,0.0
25-12-18_19.57.34.739,-0.04355,-0.03221,0.97362,0.01214,-0.0029,0.00298,-134.32104,-268.05746,-478.23553,226.63905,0.0
25-12-18_19.57.34.749,-0.05716,-0.00586,0.97289,0.00168,-0.00137,0.0042,-128.91313,-272.14993,-483.20499,226.63905,0.0
25-12-18_19.57.34.759,-0.0527,-0.02178,0.99345,-0.00924,0.00038,8e-05,-129.20544,-274.63464,-474.14307,226.63905,0.0
25-12-18_19.57.34.769,-0.03666,-0.04233,0.99857,-0.00115,-0.00115,-0.0016,-134.61337,-273.46536,-475.60468,226.63905,0.0
25-12-18_19.57.34.779,-0.04246,-0.03727,0.98375,0.01023,-0.00176,0.00168,-134.61337,-273.46536,-475.60468,226.63905,0.0
25-12-18_19.57.34.790,-0.05496,-0.01684,0.97002,0.00611,-0.00229,0.00382,-131.39784,-270.39603,-475.16617,226.63905,0.0
25-12-18_19.57.34.799,-0.05703,-0.01562,0.9843,-0.00687,8e-05,0.00099,-131.83632,-272.88074,-473.41226,226.63905,0.0
25-12-18_19.57.34.810,-0.04496,-0.04191,0.99881,-0.00619,0.00015,-0.00229,-135.05185,-269.22675,-477.65091,226.63905,0.0
25-12-18_19.57.34.820,-0.038,-0.03751,0.98747,0.00695,-0.00267,0.00061,-131.69017,-267.91129,-473.85074,226.59538,-0.04366999999999166
25-12-18_19.57.34.830,-0.05362,-0.01824,0.9685,0.00954,-0.00451,0.00374,-131.69017,-267.91129,-473.85074,226.59538,0.0
25-12-18_19.57.34.840,-0.05697,-0.00378,0.98186,-0.00237,-0.00344,0.00183,-138.55969,-266.44971,-475.60468,226.59538,0.0
25-12-18_19.57.34.850,-0.04782,-0.03392,1.00284,0.0126,-0.00092,-0.00046,-133.59024,-270.98065,-479.40482,226.59538,0.0
25-12-18_19.57.34.860,-0.03934,-0.04191,0.97545,0.00932,-0.0029,0.0029,-134.75952,-269.66522,-480.42795,226.59538,0.0
25-12-18_19.57.34.870,-0.06063,-0.00952,0.98003,-0.00023,-0.00191,0.00229,-134.75952,-267.03433,-475.16617,226.59538,0.0
25-12-18_19.57.34.880,-0.04697,-0.02891,1.0004,-0.00634,-0.0029,-0.00214,-134.75952,-267.03433,-475.16617,226.59538,0.0
25-12-18_19.57.34.890,-0.03581,-0.04252,1.00656,0.00023,-0.0016,-0.00168,-135.19801,-263.81882,-476.77396,226.59538,0.0
25-12-18_19.57.34.900,-0.04599,-0.02897,0.97935,0.00664,-0.00153,0.00275,-131.83632,-261.33411,-477.35858,226.59538,0.0
25-12-18_19.57.34.910,-0.05472,-0.00756,0.96801,0.00214,-0.00176,0.00328,-132.56712,-271.8576,-472.09683,226.59538,0.0
25-12-18_19.57.34.920,-0.05075,-0.0197,0.98942,-0.00596,-0.00275,-0.00038,-132.56712,-271.8576,-472.09683,226.59538,0.0
25-12-18_19.57.34.930,-0.03709,-0.04069,1.00558,-8e-05,-0.00275,-0.00221,-136.80577,-269.95752,-478.38171,226.72795,0.13256999999998698
25-12-18_19.57.34.940,-0.04093,-0.03471,0.986,0.0071,-0.00275,0.0016,-133.88257,-268.49594,-478.38171,226.72795,0.0
25-12-18_19.57.34.950,-0.05313,-0.01452,0.96703,0.0026,-0.0026,0.00351,-133.15176,-267.61896,-474.43539,226.72795,0.0
25-12-18_19.57.34.960,-0.05478,-0.0186,0.97972,-0.00626,-0.00206,0.00046,-135.19801,-269.81137,-475.31235,226.72795,0.0
25-12-18_19.57.34.970,-0.04197,-0.03867,1.00077,-0.00244,-0.00336,-0.0016,-135.19801,-269.81137,-475.31235,226.72795,0.0
25-12-18_19.57.34.980,-0.03727,-0.0391,0.99479,0.00725,-0.00389,0.0013,-137.82889,-270.68832,-477.79706,226.72795,0.0
25-12-18_19.57.34.990,-0.04874,-0.02092,0.97478,-0.00374,-0.00092,0.00168,-135.49033,-270.98065,-480.13562,226.72795,0.0
25-12-18_19.57.35.000,-0.05667,-0.01342,0.99521,-0.00359,-0.00206,-0.00168,-133.59024,-270.39603,-473.99689,226.72795,0.0
25-12-18_19.57.35.011,-0.03916,-0.03855,0.99991,0.00596,-0.00267,8e-05,-133.59024,-270.1037,-479.84329,226.72795,0.0
25-12-18_19.57.35.021,-0.04929,-0.02403,0.97942,0.00741,-0.00229,0.00305,-134.46721,-270.1037,-479.84329,226.72795,0.0
25-12-18_19.57.35.031,-0.05453,-0.01397,0.97582,-0.00451,-0.00061,0.00191,-133.0056,-268.78824,-478.82019,227.00131,0.2733599999999967
25-12-18_19.57.35.041,-0.04795,-0.03373,0.99253,-0.0055,-0.00206,-0.00183,-133.7364,-262.64954,-487.44363,227.00131,0.0
25-12-18_19.57.35.051,-0.03666,-0.04008,1.00064,0.00619,-0.00367,-0.00031,-131.98248,-268.34976,-481.3049,227.00131,0.0
25-12-18_19.57.35.061,-0.04795,-0.02952,0.98265,0.00924,-0.00313,0.00275,-131.98248,-268.34976,-481.3049,227.00131,0.0
25-12-18_19.57.35.071,-0.05179,-0.01476,0.97545,-0.00283,-0.00015,0.0026,-138.41353,-267.18048,-476.62778,227.00131,0.0
25-12-18_19.57.35.081,-0.04935,-0.02769,0.98521,-0.00741,-0.00038,-0.00092,-127.59769,-268.78824,-486.12817,227.00131,0.0
25-12-18_19.57.35.091,-0.0391,-0.03672,0.9982,0.00496,-0.00405,-0.00122,-133.44409,-271.27298,-485.6897,227.00131,0.0
25-12-18_19.57.35.101,-0.04862,-0.02708,0.99198,0.00993,-0.00565,0.00221,-132.56712,-265.57272,-481.01257,227.00131,0.0
25-12-18_19.57.35.111,-0.05277,-0.01494,0.97417,-0.00199,-0.00099,0.0026,-132.56712,-265.57272,-481.01257,227.00131,0.0
25-12-18_19.57.35.121,-0.05215,-0.02599,0.98003,-0.00924,0.0013,-8e-05,-135.49033,-268.49594,-474.14307,227.00131,0.0
25-12-18_19.57.35.131,-0.04453,-0.03867,0.99162,0.01237,-0.00512,0.00122,-138.1212,-269.51904,-473.55841,226.42787,-0.5734399999999766
25-12-18_19.57.35.141,-0.04764,-0.01061,0.98204,0.00221,-0.00252,0.00229,-133.15176,-268.49594,-484.52042,226.42787,0.0
25-12-18_19.57.35.151,-0.0488,-0.01806,0.98613,-0.00825,0.00053,0.00069,-133.15176,-268.49594,-472.53531,226.42787,0.0
25-12-18_19.57.35.161,-0.04264,-0.03196,0.99308,0.00168,-0.00153,-0.00092,-136.07497,-265.13425,-472.53531,226.42787,0.0
25-12-18_19.57.35.171,-0.04294,-0.0305,0.9982,0.01138,-0.00527,0.00221,-132.71329,-262.94186,-474.87387,226.42787,0.0
25-12-18_19.57.35.181,-0.04642,-0.01995,0.98905,0.00336,-0.00229,0.00298,-135.05185,-268.78824,-480.13562,226.42787,0.0
25-12-18_19.57.35.191,-0.04679,-0.02287,0.98125,-0.00939,0.0016,0.0,-132.27481,-268.34976,-473.55841,226.42787,0.0
25-12-18_19.57.35.202,-0.03764,-0.03825,0.99296,-0.00451,-0.00153,-0.00145,-132.27481,-268.34976,-473.55841,226.42787,0.0
25-12-18_19.57.35.212,-0.03721,-0.03587,0.99521,0.01023,-0.00473,0.00122,-134.02873,-268.49594,-472.97379,226.42787,0.0
25-12-18_19.57.35.222,-0.04508,-0.0147,0.98088,0.00588,-0.00496,0.00305,-133.0056,-267.76514,-483.49731,226.42787,0.0
25-12-18_19.57.35.231,-0.04953,-0.01244,0.97752,-0.00886,0.00038,0.00137,-130.08241,-270.68832,-471.65836,226.42787,0.0
25-12-18_19.57.35.241,-0.04288,-0.03099,0.98375,-0.00718,8e-05,-0.00099,-133.15176,-270.8345,-472.53531,226.99309,0.5652199999999823
25-12-18_19.57.35.251,-0.03849,-0.04032,0.99046,0.01023,-0.00542,0.00038,-133.15176,-270.8345,-472.53531,226.99309,0.0
25-12-18_19.57.35.262,-0.0466,-0.02891,0.98667,0.00993,-0.00489,0.00359,-129.35161,-269.08057,-472.53531,226.99309,0.0
25-12-18_19.57.35.272,-0.05313,-0.02068,0.98003,-0.01077,0.00351,-0.00168,-130.52089,-270.1037,-466.54276,226.99309,0.0
25-12-18_19.57.35.282,-0.0466,-0.04673,0.98857,0.00626,-0.00107,-0.0016,-133.0056,-269.37289,-476.48163,226.99309,0.0
25-12-18_19.57.35.292,-0.04648,-0.02647,0.9807,0.01306,-0.00321,0.00229,-133.0056,-269.37289,-476.33545,226.99309,0.0
25-12-18_19.57.35.302,-0.05136,-0.00799,0.97649,-0.00076,-8e-05,0.00283,-136.65961,-271.41913,-476.33545,226.99309,0.0
25-12-18_19.57.35.312,-0.04996,-0.02531,0.98637,-0.01054,0.00221,-0.00122,-135.63649,-275.80392,-476.48163,226.99309,0.0
25-12-18_19.57.35.322,-0.03764,-0.04294,0.9929,0.00176,0.00015,-0.0026,-133.59024,-276.68088,-468.00433,226.99309,0.0
25-12-18_19.57.35.332,-0.04477,-0.03568,0.98484,0.01474,-0.00298,0.00183,-136.36728,-274.63464,-477.35858,226.99309,0.0
25-12-18_19.57.35.342,-0.05746,-0.01507,0.97582,0.00588,-0.00237,0.00351,-136.36728,-274.63464,-477.35858,226.88518,-0.10791000000000395
25-12-18_19.57.35.352,-0.05435,-0.01885,0.9904,-0.01031,0.00137,8e-05,-136.51344,-274.63464,-473.85074,226.88518,0.0
25-12-18_19.57.35.363,-0.04325,-0.04721,1.00003,-0.00336,-0.00046,-0.0029,-127.89001,-273.46536,-476.9201,226.88518,0.0
25-12-18_19.57.35.372,-0.04069,-0.03477,0.98655,0.01367,-0.00367,0.00107,-131.25168,-269.95752,-479.40482,226.88518,0.0
25-12-18_19.57.35.382,-0.05947,-0.01159,0.97874,0.00848,-0.00435,0.00389,-137.09808,-269.37289,-479.69714,226.88518,0.0
25-12-18_19.57.35.392,-0.06167,-0.00323,0.98832,-0.00748,-0.00031,0.00092,-137.09808,-269.37289,-479.69714,226.88518,0.0
25-12-18_19.57.35.403,-0.04904,-0.0341,0.99863,-0.0068,-0.00053,-0.00397,-135.63649,-270.68832,-480.72028,226.88518,0.0
25-12-18_19.57.35.413,-0.03739,-0.04203,0.99826,0.01069,-0.00473,0.00221,-130.8132,-268.78824,-473.55841,226.88518,0.0
25-12-18_19.57.35.423,-0.06228,-0.00293,0.9807,-0.00237,-0.00183,0.0029,-135.9288,-271.8576,-481.74338,226.88518,0.0
25-12-18_19.57.35.433,-0.04929,-0.02751,0.99704,-0.00932,-0.00145,-0.00214,-135.9288,-271.8576,-481.74338,226.88518,0.0
25-12-18_19.57.35.443,-0.03422,-0.04422,1.00394,-0.00061,-0.00107,-0.00191,-134.02873,-269.51904,-478.82019,226.97408,0.08889999999999532
25-12-18_19.57.35.452,-0.04429,-0.02934,0.97551,0.011,-0.00206,0.00275,-131.10553,-268.93442,-474.28922,226.97408,0.0
25-12-18_19.57.35.462,-0.05636,-0.00335,0.96905,0.00336,-0.00328,0.00412,-128.03616,-267.76514,-483.78961,226.97408,0.0
25-12-18_19.57.35.473,-0.05295,-0.01647,0.99418,-0.00878,-0.00229,-0.00084,-127.74384,-267.61896,-490.36682,226.97408,0.0
25-12-18_19.57.35.483,-0.03568,-0.04435,1.00308,-0.00397,-0.00183,-0.00321,-127.74384,-267.61896,-490.36682,226.97408,0.0
25-12-18_19.57.35.493,-0.03733,-0.04258,0.98033,0.00733,-0.00344,0.00168,-131.83632,-273.75769,-481.3049,226.97408,0.0
25-12-18_19.57.35.503,-0.05508,-0.01726,0.96819,0.00603,-0.00412,0.00473,-128.03616,-274.34235,-478.52786,226.97408,0.0
25-12-18_19.57.35.513,-0.05893,-0.01104,0.98289,-0.00458,-0.00367,0.00176,-130.37473,-273.31921,-489.7822,226.97408,0.0
25-12-18_19.57.35.523,-0.03989,-0.0416,1.00162,-0.00809,-0.00267,-0.00321,-132.12865,-268.20361,-484.08194,226.97408,0.0
25-12-18_19.57.35.533,-0.02983,-0.04612,0.9907,0.00076,-0.0026,0.0,-132.12865,-268.20361,-484.08194,226.97408,0.0
25-12-18_19.57.35.543,-0.04837,-0.02721,0.96404,0.00962,-0.00344,0.00283,-133.15176,-272.14993,-481.3049,226.97408,0.0
25-12-18_19.57.35.553,-0.0574,-0.00549,0.97435,-0.00771,-0.0026,-0.00237,-128.03616,-273.46536,-481.15875,226.82712,-0.14695999999997866
25-12-18_19.57.35.563,-0.03019,-0.04459,1.0054,-0.00137,-0.00023,-0.00283,-132.42096,-274.34235,-478.52786,226.82712,0.0
25-12-18_19.57.35.573,-0.04392,-0.03703,0.97283,0.00909,-0.00229,0.00214,-132.42096,-274.34235,-478.52786,226.82712,0.0
25-12-18_19.57.35.583,-0.0538,-0.01074,0.97216,0.00405,-0.00298,0.00428,-128.32849,-267.18048,-478.52786,226.82712,0.0
25-12-18_19.57.35.593,-0.05264,-0.02739,0.99857,-0.00542,-0.00199,-0.00069,-130.52089,-270.39603,-483.49731,226.82712,0.0
25-12-18_19.57.35.603,-0.03257,-0.04276,1.00851,-0.00351,0.0,-0.0029,-135.34416,-270.39603,-477.35858,226.82712,0.0
25-12-18_19.57.35.613,-0.03819,-0.04081,0.9807,0.00771,-0.00099,0.00092,-133.88257,-270.68832,-480.86642,226.82712,0.0
25-12-18_19.57.35.623,-0.05032,-0.01141,0.96941,0.00809,-0.00298,0.00389,-133.88257,-270.68832,-480.86642,226.82712,0.0
25-12-18_19.57.35.633,-0.05539,-0.01397,0.98893,-0.00313,-0.00328,0.00023,-131.98248,-271.56528,-478.67401,226.82712,0.0
25-12-18_19.57.35.643,-0.0402,-0.03294,1.00699,-0.00321,-0.00183,-0.0029,-129.35161,-272.14993,-478.82019,226.82712,0.0
25-12-18_19.57.35.653,-0.0369,-0.04008,0.99204,0.0042,-0.00099,-0.00023,-128.91313,-274.78082,-480.42795,227.12772,0.30060000000000286
25-12-18_19.57.35.663,-0.04959,-0.01903,0.96758,0.00756,-0.00176,0.00359,-132.56712,-270.1037,-482.91266,227.12772,0.0
25-12-18_19.57.35.673,-0.05575,-0.01202,0.97917,-0.00145,-0.00168,0.00214,-132.56712,-270.1037,-482.91266,227.12772,0.0
25-12-18_19.57.35.683,-0.04441,-0.03453,1.00168,-0.00336,0.01825,-0.00031,-132.12865,-269.66522,-482.91266,227.12772,0.0
25-12-18_19.57.35.694,-0.03526,-0.03995,1.00003,0.00519,0.00023,0.00321,-129.64392,-268.20361,-481.3049,227.12772,0.0
25-12-18_19.57.35.704,-0.05636,-0.00939,0.96984,-8e-05,-0.00023,0.0029,-131.10553,-276.2424,-481.45105,227.12772,0.0
25-12-18_19.57.35.714,-0.0491,-0.02794,0.99497,-0.00244,-0.00183,-0.00069,-131.10553,-276.2424,-481.45105,227.12772,0.0
25-12-18_19.57.35.724,-0.0355,-0.03776,1.00601,0.00267,-0.00145,-0.00061,-129.05928,-270.54218,-484.95889,227.12772,0.0
25-12-18_19.57.35.734,-0.04734,-0.0305,0.9843,0.0055,-0.00061,0.0029,-131.54401,-271.1268,-477.21243,227.12772,0.0
25-12-18_19.57.35.744,-0.05502,-0.01421,0.96654,-0.00038,-0.00046,0.00267,-130.95937,-270.68832,-476.48163,227.12772,0.0
25-12-18_19.57.35.754,-0.05325,-0.02666,0.98594,-0.0058,-0.00099,-0.00031,-130.66705,-272.14993,-479.98947,226.69095,-0.4367700000000241
25-12-18_19.57.35.764,-0.04233,-0.04203,1.00174,0.00061,-0.00244,-0.00122,-130.66705,-272.14993,-479.98947,226.69095,0.0
25-12-18_19.57.35.774,-0.04569,-0.02867,0.98924,0.0071,-0.00275,0.00229,-129.20544,-269.81137,-474.43539,226.69095,0.0
25-12-18_19.57.35.784,-0.05453,-0.01549,0.97155,0.00061,-0.00199,0.00351,-130.66705,-271.27298,-479.55099,226.69095,0.0
25-12-18_19.57.35.795,-0.0538,-0.01873,0.98387,-0.00565,-0.00069,0.00092,-127.74384,-269.66522,-480.42795,226.69095,0.0
25-12-18_19.57.35.805,-0.04636,-0.038,0.99875,0.00145,-0.00351,-0.0013,-130.37473,-269.22675,-469.17361,226.69095,0.0
25-12-18_19.57.35.814,-0.04874,-0.03044,0.99467,0.00947,-0.00389,0.00214,-130.37473,-269.22675,-469.17361,226.69095,0.0
25-12-18_19.57.35.824,-0.05398,-0.02037,0.97637,0.00199,0.00076,0.00053,-128.18233,-269.81137,-475.31235,226.69095,0.0
25-12-18_19.57.35.834,-0.05459,-0.01854,0.99418,0.00023,-0.00313,-0.00137,-132.42096,-272.44226,-474.72769,226.69095,0.0
25-12-18_19.57.35.844,-0.03959,-0.03202,0.99784,0.01008,-0.00542,0.00076,-131.69017,-269.81137,-472.38913,226.69095,0.0
25-12-18_19.57.35.854,-0.04606,-0.01836,0.98338,0.00344,-0.00328,0.00275,-131.69017,-269.81137,-472.38913,226.69095,0.0
25-12-18_19.57.35.864,-0.05252,-0.01677,0.97692,-0.00809,0.00145,0.00031,-129.79008,-273.31921,-476.04315,226.67606,-0.014889999999979864
25-12-18_19.57.35.875,-0.04465,-0.03068,0.98747,-0.0026,-0.00137,-0.00275,-132.56712,-277.11938,-478.08939,226.67606,0.0
25-12-18_19.57.35.885,-0.03837,-0.03416,0.99784,0.01069,-0.00741,-0.00023,-128.03616,-273.31921,-472.82761,226.67606,0.0
25-12-18_19.57.35.895,-0.04246,-0.01873,0.9893,0.0071,-0.00519,0.0029,-130.52089,-273.75769,-481.88953,226.67606,0.0
25-12-18_19.57.35.905,-0.0502,-0.01641,0.97899,-0.00809,0.00206,0.00115,-130.52089,-273.75769,-481.88953,226.67606,0.0
25-12-18_19.57.35.915,-0.04258,-0.03245,0.98503,-0.00764,0.00023,-0.00191,-132.71329,-272.29608,-473.26611,226.67606,0.0
25-12-18_19.57.35.925,-0.03703,-0.04172,0.99235,0.00687,-0.00374,-0.00107,-136.36728,-273.31921,-473.85074,226.67606,0.0
25-12-18_19.57.35.935,-0.04734,-0.02251,0.98533,0.01061,-0.00382,0.00221,-132.71329,-269.95752,-471.21985,226.67606,0.0
25-12-18_19.57.35.945,-0.04703,-0.01202,0.98051,-0.0026,-0.00069,0.00176,-134.17488,-273.46536,-472.24298,226.67606,0.0
25-12-18_19.57.35.955,-0.04386,-0.02952,0.98857,-0.00985,0.00168,-0.00084,-134.17488,-273.46536,-472.24298,226.67606,0.0
25-12-18_19.57.35.965,-0.03831,-0.03819,0.99326,0.00435,-0.00389,0.00206,-133.7364,-273.17307,-475.60468,226.89134,0.21528000000000702
25-12-18_19.57.35.975,-0.04813,-0.02916,0.98051,-0.00252,-0.00038,0.00275,-134.02873,-272.29608,-471.95065,226.89134,0.0
25-12-18_19.57.35.985,-0.04734,-0.03093,0.98533,-0.01229,0.00214,-0.0016,-135.63649,-272.14993,-475.75082,226.89134,0.0
25-12-18_19.57.35.995,-0.03892,-0.04392,0.9918,0.00038,-0.00015,-0.0013,-135.63649,-272.14993,-475.75082,226.89134,0.0
25-12-18_19.57.36.005,-0.04441,-0.03404,0.98594,0.01298,-0.0042,0.00237,-133.0056,-268.20361,-476.1893,226.89134,0.0
25-12-18_19.57.36.015,-0.05197,-0.01159,0.97783,0.00298,-0.00229,0.00321,-133.44409,-267.18048,-469.31979,226.89134,0.0
25-12-18_19.57.36.025,-0.05466,-0.01952,0.98545,-0.01031,0.00168,-0.00015,-132.42096,-270.54218,-475.16617,226.89134,0.0
25-12-18_19.57.36.035,-0.04319,-0.04002,0.99186,-0.00298,0.00038,-0.0026,-135.05185,-268.64209,-474.87387,226.89134,0.0
25-12-18_19.57.36.045,-0.04532,-0.03892,0.99101,0.01138,-0.00359,0.00092,-135.05185,-268.64209,-474.87387,226.89134,0.0
25-12-18_19.57.36.055,-0.05722,-0.01958,0.97765,0.00886,-0.0042,0.00351,-135.19801,-269.95752,-469.17361,226.89134,0.0
25-12-18_19.57.36.065,-0.0563,-0.01446,0.98308,-0.00817,0.0,0.00107,-136.65961,-268.05746,-479.84329,227.42113,0.5297899999999913
25-12-18_19.57.36.076,-0.0477,-0.04264,0.99375,-0.00764,-8e-05,-0.00275,-135.05185,-272.00378,-483.20499,227.20633,-0.21479999999999677
25-12-18_19.57.36.085,-0.04063,-0.04026,0.98966,0.01016,-0.00321,0.00046,-135.05185,-267.61896,-479.84329,227.20633,0.0
25-12-18_19.57.36.095,-0.05398,-0.02025,0.97826,0.01206,-0.00573,0.00382,-131.10553,-267.61896,-479.84329,227.20633,0.0
25-12-18_19.57.36.106,-0.05789,-0.00506,0.98436,-0.00932,8e-05,-0.00206,-133.44409,-271.41913,-476.1893,227.20633,0.0
25-12-18_19.57.36.116,-0.04612,-0.03196,0.99717,0.00557,-0.00252,-0.00076,-132.42096,-272.73456,-479.11249,227.20633,0.0
25-12-18_19.57.36.126,-0.04819,-0.02599,0.9807,0.01275,-0.00565,0.0026,-134.32104,-272.00378,-477.94321,227.20633,0.0
25-12-18_19.57.36.136,-0.05838,-0.00793,0.97996,-0.00023,-0.00313,0.00298,-134.32104,-272.00378,-477.94321,227.20633,0.0
25-12-18_19.57.36.146,-0.04831,-0.02605,0.99387,-0.01031,-0.00145,-0.00145,-132.27481,-269.95752,-474.28922,227.20633,0.0
25-12-18_19.57.36.156,-0.03385,-0.04465,0.99851,-0.00168,-0.00176,-0.00267,-131.25168,-270.8345,-479.40482,227.20633,0.0
25-12-18_19.57.36.166,-0.04325,-0.03001,0.97972,0.01176,-0.00351,0.00267,-131.10553,-270.1037,-473.41226,227.20633,0.0
25-12-18_19.57.36.176,-0.05118,-0.00793,0.97405,0.00634,-0.00443,0.00344,-128.47464,-271.1268,-476.9201,226.48183,-0.7245000000000061
25-12-18_19.57.36.186,-0.05026,-0.01635,0.99113,-0.00932,-0.00084,-0.00031,-128.47464,-271.1268,-476.9201,226.48183,0.0
25-12-18_19.57.36.196,-0.03721,-0.0391,1.00095,-0.00443,-0.00084,-0.00283,-136.65961,-272.29608,-481.01257,226.48183,0.0
25-12-18_19.57.36.206,-0.03733,-0.03727,0.9868,0.00985,-0.0042,0.00191,-131.25168,-267.32666,-476.04315,226.48183,0.0
25-12-18_19.57.36.216,-0.05008,-0.01726,0.97496,0.00725,-0.00504,0.00443,-129.49777,-269.51904,-479.40482,226.48183,0.0
25-12-18_19.57.36.226,-0.0535,-0.01458,0.98405,-0.00725,-0.0016,0.0013,-129.49777,-269.51904,-482.18185,226.48183,0.0
25-12-18_19.57.36.236,-0.0416,-0.03556,0.99442,-0.00649,-0.00015,-0.00321,-130.37473,-268.78824,-482.18185,226.48183,0.0
25-12-18_19.57.36.246,-0.03544,-0.04069,0.99265,0.01031,-0.00267,0.00389,-131.39784,-269.08057,-474.14307,226.48183,0.0
25-12-18_19.57.36.256,-0.04514,-0.00634,0.97887,-0.00221,-0.00145,0.00275,-132.56712,-269.37289,-477.65091,226.48183,0.0
25-12-18_19.57.36.266,-0.04691,-0.03062,0.99625,-0.00794,-0.00046,-0.0026,-130.52089,-271.71146,-480.13562,226.48183,0.0
25-12-18_19.57.36.276,-0.03514,-0.04246,0.99552,0.00237,-0.00107,-0.00137,-130.52089,-271.71146,-480.13562,226.42377,-0.05806000000001177
25-12-18_19.57.36.286,-0.04959,-0.02824,0.97704,0.01069,-0.00176,0.00305,-129.20544,-272.14993,-474.14307,226.42377,0.0
25-12-18_19.57.36.296,-0.05112,-0.01202,0.97515,8e-05,-0.0016,0.00214,-128.91313,-264.11115,-475.02002,226.42377,0.0
25-12-18_19.57.36.307,-0.04978,-0.02922,0.99601,-0.00848,0.00031,-0.00176,-128.91313,-269.22675,-468.15051,226.42377,0.0
25-12-18_19.57.36.317,-0.03715,-0.04368,1.00302,0.00015,-0.00069,-0.00221,-135.78264,-266.44971,-477.50473,226.42377,0.0
25-12-18_19.57.36.327,-0.04483,-0.03337,0.9799,0.0087,-0.00221,0.00206,-135.78264,-266.44971,-477.50473,226.42377,0.0
25-12-18_19.57.36.337,-0.05813,-0.01507,0.97167,0.00305,-0.00122,0.00367,-131.54401,-273.31921,-473.41226,226.42377,0.0
25-12-18_19.57.36.347,-0.05148,-0.02062,0.98808,-0.00588,0.00031,-0.00046,-133.7364,-277.41168,-478.82019,226.42377,0.0
25-12-18_19.57.36.357,-0.04172,-0.04075,1.00174,-0.00122,-0.00145,-0.00244,-133.29793,-270.1037,-479.11249,226.42377,0.0
25-12-18_19.57.36.367,-0.0441,-0.03398,0.9893,0.00924,-0.00305,0.00099,-133.29793,-270.1037,-479.11249,226.42377,0.0
25-12-18_19.57.36.377,-0.05514,-0.01806,0.97069,0.00412,-0.00153,0.00351,-135.49033,-270.54218,-480.28177,226.42377,0.0
25-12-18_19.57.36.387,-0.05825,-0.01873,0.97856,-0.00176,-0.00145,-0.00267,-134.75952,-272.73456,-473.26611,227.00542,0.5816499999999962
25-12-18_19.57.36.397,-0.04361,-0.03532,0.99436,0.00825,-0.00183,0.00046,-130.52089,-275.65778,-479.11249,227.00542,0.0
25-12-18_19.57.36.407,-0.05014,-0.01806,0.9738,0.0068,-0.00237,0.00298,-132.85945,-276.38858,-476.62778,227.00542,0.0
25-12-18_19.57.36.417,-0.05496,-0.01074,0.9785,-0.00496,-0.00069,0.00153,-132.85945,-276.38858,-476.62778,227.00542,0.0
25-12-18_19.57.36.427,-0.04642,-0.03202,0.99662,-0.00435,-0.00145,-0.00221,-129.05928,-272.14993,-483.35114,227.00542,0.0
25-12-18_19.57.36.437,-0.04172,-0.0369,0.99942,0.00756,-0.00328,0.00038,-132.12865,-273.17307,-478.67401,227.00542,0.0
25-12-18_19.57.36.447,-0.05063,-0.02281,0.98423,0.00748,-0.00428,0.00313,-130.95937,-268.64209,-478.08939,227.00542,0.0
25-12-18_19.57.36.457,-0.05423,-0.01635,0.97978,-0.00573,-0.00092,0.00214,-132.42096,-273.17307,-477.79706,227.00542,0.0
25-12-18_19.57.36.467,-0.0463,-0.03178,0.9904,-0.00626,-0.00099,-0.00122,-132.42096,-273.17307,-477.79706,227.00542,0.0
25-12-18_19.57.36.477,-0.0391,-0.03843,0.999,0.00603,-0.00389,-8e-05,-133.29793,-271.71146,-482.62033,227.00542,0.0
25-12-18_19.57.36.487,-0.04538,-0.02178,0.98722,0.00741,-0.00405,0.00313,-131.39784,-274.05002,-476.1893,225.77176,-1.2336599999999862
25-12-18_19.57.36.497,-0.05362,-0.01263,0.97539,-0.00496,0.00015,0.00221,-133.29793,-272.73456,-477.79706,225.77176,0.0
25-12-18_19.57.36.507,-0.04709,-0.0244,0.98155,-0.00848,-0.00069,-0.00084,-133.29793,-272.73456,-477.79706,225.77176,0.0
25-12-18_19.57.36.517,-0.03916,-0.03971,0.99418,0.00527,-0.00451,0.01856,-132.85945,-270.39603,-476.1893,225.77176,0.0
25-12-18_19.57.36.528,-0.04599,-0.02794,0.98966,-0.00145,-0.00168,0.00275,-131.25168,-274.19617,-478.96634,225.77176,0.0
25-12-18_19.57.36.538,-0.04679,-0.02922,0.9774,-0.01077,0.00053,-0.00023,-135.34416,-271.27298,-480.28177,225.77176,0.0
25-12-18_19.57.36.548,-0.04172,-0.04148,0.98814,0.00206,-0.00283,-0.00107,-136.65961,-270.24985,-479.84329,225.77176,0.0
25-12-18_19.57.36.558,-0.04636,-0.02733,0.9871,0.01321,-0.00535,0.00221,-136.65961,-270.24985,-479.84329,225.77176,0.0
25-12-18_19.57.36.568,-0.04801,-0.01641,0.98155,0.0013,-0.00328,0.00221,-134.17488,-272.73456,-481.59723,225.77176,0.0
25-12-18_19.57.36.578,-0.04618,-0.02257,0.98436,-0.01038,0.00199,-8e-05,-134.90569,-275.65778,-484.52042,225.77176,0.0
25-12-18_19.57.36.588,-0.04313,-0.03819,0.98863,0.00015,-0.00084,-0.0016,-131.25168,-270.24985,-477.06625,226.823,1.051240000000007
25-12-18_19.57.36.598,-0.04355,-0.03074,0.9904,0.01306,-0.00512,0.00199,-127.59769,-272.88074,-476.48163,226.823,0.0
25-12-18_19.57.36.608,-0.04892,-0.01903,0.98918,0.00473,-0.00275,0.00237,-127.59769,-272.88074,-476.48163,226.823,0.0
25-12-18_19.57.36.618,-0.04746,-0.02507,0.98405,-0.00901,0.00176,0.0,-133.0056,-269.95752,-475.60468,226.823,0.0
25-12-18_19.57.36.628,-0.04002,-0.04087,0.98979,-0.00367,-0.00038,-0.00137,-135.9288,-274.34235,-475.16617,226.823,0.0
25-12-18_19.57.36.638,-0.04618,-0.03428,0.99131,0.0113,-0.00405,0.00115,-133.15176,-272.29608,-479.98947,226.823,0.0
25-12-18_19.57.36.648,-0.04862,-0.01311,0.98533,0.00748,-0.00221,0.00313,-133.15176,-272.29608,-479.98947,226.823,0.0
25-12-18_19.57.36.658,-0.05032,-0.01702,0.98576,-0.00954,0.00183,-0.00183,-133.0056,-273.02689,-480.72028,226.823,0.0
25-12-18_19.57.36.668,-0.04294,-0.0327,0.9907,0.01077,-0.00382,0.00092,-133.0056,-269.37289,-477.79706,226.823,0.0
25-12-18_19.57.36.678,-0.05039,-0.01586,0.98503,0.00993,-0.00473,0.0026,-131.54401,-271.8576,-479.25867,226.823,0.0
25-12-18_19.57.36.688,-0.05252,-0.01745,0.98735,-0.00893,0.00115,0.00137,-131.69017,-274.05002,-480.86642,226.823,0.0
25-12-18_19.57.36.699,-0.04532,-0.03507,0.98606,-0.00916,0.00298,-0.00122,-131.69017,-274.05002,-480.86642,226.76546,-0.057540000000017244
25-12-18_19.57.36.709,-0.03941,-0.04014,0.98881,0.00886,-0.00252,0.00053,-131.69017,-273.75769,-483.05881,226.76546,0.0
25-12-18_19.57.36.719,-0.05008,-0.02202,0.98655,0.01336,-0.00512,0.00351,-128.76697,-271.41913,-479.84329,226.76546,0.0
25-12-18_19.57.36.729,-0.05386,-0.01141,0.98497,-0.00336,-0.0013,0.00183,-131.98248,-270.24985,-482.62033,226.76546,0.0
25-12-18_19.57.36.739,-0.04795,-0.02952,0.98893,-0.01184,0.00206,-0.00183,-131.54401,-272.00378,-480.72028,226.76546,0.0
25-12-18_19.57.36.749,-0.04227,-0.04185,0.9896,0.00336,-0.00092,-0.00099,-131.54401,-272.00378,-480.72028,226.76546,0.0
25-12-18_19.57.36.759,-0.051,-0.02702,0.98222,0.01497,-0.00496,0.00298,-131.25168,-269.08057,-469.61209,226.76546,0.0
25-12-18_19.57.36.769,-0.05655,-0.01074,0.98082,0.00183,-0.00328,0.00359,-128.6208,-268.78824,-474.58154,226.76546,0.0
25-12-18_19.57.36.779,-0.05173,-0.02708,0.99399,-0.01336,0.00191,-0.00115,-130.8132,-271.41913,-475.16617,226.76546,0.0
25-12-18_19.57.36.789,-0.04111,-0.04807,0.99113,-0.0016,0.00069,-0.00221,-130.8132,-271.41913,-475.16617,226.76546,0.0
25-12-18_19.57.36.799,-0.04666,-0.03227,0.97631,0.01466,-0.00542,0.00481,-130.95937,-273.61154,-472.53531,226.79218,0.026720000000011623
25-12-18_19.57.36.809,-0.05575,-0.01232,0.98021,-0.01092,0.00023,0.00031,-134.17488,-270.1037,-476.33545,226.79218,0.0
25-12-18_19.57.36.819,-0.0427,-0.04209,0.99314,-0.00596,0.00031,-0.00267,-125.69761,-276.38858,-479.84329,226.79218,0.0
25-12-18_19.57.36.829,-0.04026,-0.0363,0.98314,0.0113,-0.00473,0.00145,-131.10553,-272.58841,-475.16617,226.79218,0.0
25-12-18_19.57.36.839,-0.05594,-0.01635,0.97685,0.01069,-0.00542,0.00405,-131.10553,-272.58841,-475.16617,226.79218,0.0
25-12-18_19.57.36.849,-0.05496,-0.00781,0.98735,-0.00603,-0.00283,0.00084,-130.66705,-274.34235,-476.33545,226.79218,0.0
25-12-18_19.57.36.859,-0.0438,-0.03843,0.9993,-0.01054,0.00015,-0.00321,-131.54401,-273.90384,-475.02002,226.79218,0.0
25-12-18_19.57.36.870,-0.03349,-0.04349,0.99107,0.00466,-0.00183,-0.00076,-131.98248,-276.2424,-472.82761,226.79218,0.0
25-12-18_19.57.36.880,-0.04727,-0.02403,0.97417,0.01237,-0.00535,0.0029,-132.71329,-271.8576,-472.09683,226.79218,0.0
25-12-18_19.57.36.890,-0.0574,-0.00317,0.98289,-0.00046,-0.0029,0.00237,-132.71329,-271.8576,-472.09683,226.79218,0.0
25-12-18_19.57.36.899,-0.04368,-0.02946,0.99704,-0.01077,-0.00122,-0.00206,-133.15176,-275.2193,-471.36603,226.19203,-0.6001500000000135
25-12-18_19.57.36.909,-0.03447,-0.04301,0.99772,-0.00122,-0.00076,-0.00099,-133.0056,-272.58841,-471.8045,226.19203,0.0
25-12-18_19.57.36.919,-0.0449,-0.02916,0.97051,0.01229,-0.00397,0.00405,-131.39784,-273.46536,-476.1893,226.19203,0.0
25-12-18_19.57.36.929,-0.05539,-0.00622,0.97447,0.00512,-0.00504,0.00451,-131.39784,-273.46536,-476.1893,226.19203,0.0
25-12-18_19.57.36.940,-0.05136,-0.02178,0.99674,-0.00893,8e-05,-0.00321,-133.59024,-270.98065,-477.06625,226.19203,0.0
25-12-18_19.57.36.950,-0.03404,-0.04465,0.96911,0.00802,-0.00183,0.00191,-134.17488,-275.2193,-474.87387,226.19203,0.0
25-12-18_19.57.36.960,-0.05222,-0.01555,0.97338,0.00886,-0.00336,0.00428,-129.79008,-274.63464,-472.53531,226.19203,0.0
25-12-18_19.57.36.970,-0.05667,-0.01629,0.98552,-0.00481,-0.00153,0.00061,-131.10553,-271.1268,-471.95065,226.19203,0.0
25-12-18_19.57.36.980,-0.0416,-0.03953,1.00461,-0.00741,-0.00046,-0.0029,-131.10553,-271.1268,-471.95065,226.19203,0.0
25-12-18_19.57.36.990,-0.03514,-0.04471,0.99284,0.00565,-0.00115,0.0,-130.22856,-268.93442,-480.5741,226.19203,0.0
25-12-18_19.57.37.000,-0.04929,-0.01891,0.96667,0.01145,-0.00336,0.00405,-128.32849,-273.31921,-477.21243,226.19203,0.0
25-12-18_19.57.37.010,-0.05752,-0.00884,0.98149,-0.00221,-0.00244,0.00252,-129.64392,-266.742,-474.72769,226.25421,0.062180000000012114
25-12-18_19.57.37.020,-0.04831,-0.03617,1.0051,-0.0087,0.00084,-0.0029,-130.66705,-268.20361,-478.82019,226.25421,0.0
25-12-18_19.57.37.030,-0.03392,-0.04612,0.99485,0.00283,0.00069,-0.00092,-130.66705,-268.20361,-478.82019,226.25421,0.0
25-12-18_19.57.37.040,-0.04874,-0.03074,0.97319,0.01069,-0.00328,0.00351,-127.01305,-270.68832,-474.72769,226.25421,0.0
25-12-18_19.57.37.050,-0.05484,-0.00811,0.97984,0.00199,-0.0029,0.00344,-128.18233,-273.17307,-479.40482,226.25421,0.0
25-12-18_19.57.37.060,-0.0527,-0.02836,1.00138,-0.0055,-0.00214,-0.00107,-129.79008,-265.7189,-476.77396,226.25421,0.0
25-12-18_19.57.37.070,-0.03636,-0.038,1.00131,-0.00076,-0.00061,-0.00206,-129.79008,-265.7189,-476.77396,226.25421,0.0
25-12-18_19.57.37.080,-0.04849,-0.03172,0.97801,0.00657,-0.00199,0.00321,-129.79008,-267.32666,-479.40482,226.25421,0.0
25-12-18_19.57.37.090,-0.05893,-0.00903,0.98789,-0.00328,-0.00336,-0.00031,-125.98993,-266.15738,-474.72769,226.25421,0.0
25-12-18_19.57.37.100,-0.03654,-0.04038,1.00302,-0.00389,-0.00092,-0.00221,-131.10553,-270.39603,-472.24298,226.25421,0.0
25-12-18_19.57.37.110,-0.03983,-0.03379,0.98228,0.00565,-0.00099,0.00115,-133.0056,-269.66522,-471.51218,226.15453,-0.09968000000000643
25-12-18_19.57.37.120,-0.05307,-0.01403,0.96282,0.00672,-0.00237,0.00374,-133.0056,-269.66522,-471.51218,226.15453,0.0
25-12-18_19.57.37.130,-0.05215,-0.0122,0.98533,-0.00336,-0.00267,0.00092,-131.69017,-272.29608,-472.97379,226.15453,0.0
25-12-18_19.57.37.141,-0.04142,-0.03611,1.00144,-0.0026,-0.00244,-0.00214,-134.17488,-274.92697,-475.4585,226.15453,0.0
25-12-18_19.57.37.150,-0.04111,-0.03288,0.99363,0.00641,-0.00252,0.00092,-133.7364,-270.68832,-472.38913,226.15453,0.0
25-12-18_19.57.37.161,-0.04825,-0.02123,0.97374,0.00473,-0.00252,0.00321,-133.7364,-269.66522,-480.28177,226.15453,0.0
25-12-18_19.57.37.171,-0.05697,-0.01403,0.97893,-0.00328,-0.00145,0.00206,-133.59024,-269.66522,-480.28177,226.15453,0.0
25-12-18_19.57.37.181,-0.04612,-0.0341,0.99631,-0.00328,-0.0029,-0.00145,-132.85945,-267.18048,-478.38171,226.15453,0.0
25-12-18_19.57.37.191,-0.03873,-0.03703,1.00138,0.00473,-0.00321,-0.00015,-132.12865,-269.51904,-481.59723,226.15453,0.0
25-12-18_19.57.37.201,-0.04819,-0.02464,0.9835,0.00657,-0.00267,0.00221,-134.17488,-269.22675,-474.87387,226.15453,0.0
25-12-18_19.57.37.211,-0.05539,-0.01336,0.9738,-0.00206,0.0,0.0016,-134.17488,-269.22675,-474.87387,226.68016,0.5256300000000067
25-12-18_19.57.37.221,-0.04618,-0.02867,0.99107,0.00313,-0.00191,-0.00099,-132.71329,-267.32666,-478.08939,226.68016,0.0
25-12-18_19.57.37.231,-0.04093,-0.02336,0.98338,0.00848,-0.00199,0.00237,-136.07497,-267.91129,-475.75082,226.68016,0.0
25-12-18_19.57.37.241,-0.05154,-0.01598,0.97734,-0.00298,-0.00168,0.00176,-133.29793,-270.8345,-476.62778,226.68016,0.0
25-12-18_19.57.37.251,-0.04727,-0.03123,0.99174,-0.00817,-0.00046,-0.00137,-127.59769,-274.92697,-476.04315,226.68016,0.0
25-12-18_19.57.37.261,-0.03959,-0.04215,0.99552,0.00313,-0.00367,-0.00084,-127.59769,-274.92697,-476.04315,226.68016,0.0
25-12-18_19.57.37.271,-0.04538,-0.03111,0.98722,0.01016,-0.00389,0.00252,-129.49777,-269.08057,-473.85074,226.68016,0.0
25-12-18_19.57.37.281,-0.04849,-0.01824,0.97887,-0.00084,-0.00015,0.00206,-130.08241,-267.47281,-474.72769,226.68016,0.0
25-12-18_19.57.37.291,-0.04874,-0.0283,0.98265,-0.00825,0.00145,-0.00038,-136.51344,-270.98065,-476.9201,226.68016,0.0
25-12-18_19.57.37.301,-0.04063,-0.03764,0.99338,0.00321,-0.0042,-0.00122,-136.51344,-270.98065,-478.52786,226.68016,0.0
25-12-18_19.57.37.312,-0.04557,-0.03068,0.99033,0.01077,-0.0055,0.0016,-133.29793,-270.24985,-478.52786,226.68016,0.0
25-12-18_19.57.37.322,-0.05094,-0.01501,0.97527,0.00084,-0.00237,0.0029,-135.34416,-274.48849,-473.99689,226.38676,-0.2933999999999912
25-12-18_19.57.37.332,-0.04825,-0.02775,0.97728,-0.00863,-8e-05,-0.00053,-133.29793,-269.95752,-478.67401,226.38676,0.0
25-12-18_19.57.37.342,-0.04404,-0.04026,0.98838,0.00069,-0.00099,-0.00145,-133.7364,-270.24985,-473.26611,226.38676,0.0
25-12-18_19.57.37.352,-0.04618,-0.0341,0.98948,0.01206,-0.00428,0.00191,-133.7364,-270.24985,-473.26611,226.38676,0.0
25-12-18_19.57.37.362,-0.04874,-0.01732,0.97905,-0.00786,0.00137,0.00061,-136.95192,-270.1037,-473.11993,226.38676,0.0
25-12-18_19.57.37.372,-0.05124,-0.03587,0.98948,-0.00137,-0.0016,-0.00092,-134.32104,-268.20361,-475.60468,226.38676,0.0
25-12-18_19.57.37.382,-0.04392,-0.03184,0.99253,0.01306,-0.00458,0.00107,-133.7364,-271.41913,-472.68146,226.38676,0.0
25-12-18_19.57.37.392,-0.05161,-0.01513,0.98789,0.00733,-0.00328,0.00328,-133.29793,-271.41913,-472.53531,226.38676,0.0
25-12-18_19.57.37.402,-0.0524,-0.01226,0.98503,-0.00786,0.00046,0.00076,-133.29793,-271.41913,-472.53531,226.38676,0.0
25-12-18_19.57.37.412,-0.04325,-0.0316,0.99284,-0.00611,-0.00038,-0.00244,-130.37473,-270.68832,-474.58154,226.38676,0.0
25-12-18_19.57.37.422,-0.03886,-0.03782,0.99747,0.00909,-0.00367,-0.00031,-132.85945,-268.78824,-479.11249,225.97676,-0.4099999999999966
25-12-18_19.57.37.432,-0.04807,-0.01769,0.98881,0.00916,-0.00397,0.00283,-130.8132,-268.93442,-473.11993,225.97676,0.0
25-12-18_19.57.37.442,-0.05539,-0.00628,0.98326,-0.00542,0.00031,0.00168,-130.8132,-268.93442,-478.52786,225.97676,0.0
25-12-18_19.57.37.452,-0.04581,-0.02458,0.99229,-0.01138,0.00137,-0.00214,-132.56712,-274.78082,-478.52786,225.97676,0.0
25-12-18_19.57.37.462,-0.0363,-0.04099,0.9979,0.00412,-0.00229,-0.00137,-131.25168,-268.34976,-473.55841,225.97676,0.0
25-12-18_19.57.37.472,-0.04874,-0.02544,0.98552,0.01268,-0.00435,0.00283,-128.91313,-268.64209,-473.70459,225.97676,0.0
25-12-18_19.57.37.482,-0.05319,-0.00537,0.97838,-0.00191,-0.00214,0.00305,-130.52089,-266.742,-465.9581,225.97676,0.0
25-12-18_19.57.37.492,-0.04941,-0.02641,0.98918,-0.01413,0.00107,-0.00092,-130.52089,-266.742,-465.9581,225.97676,0.0
25-12-18_19.57.37.503,-0.03611,-0.0477,0.99393,0.01268,-0.00389,0.00191,-129.79008,-272.00378,-474.58154,225.97676,0.0
25-12-18_19.57.37.513,-0.05832,-0.01037,0.9724,0.00527,-0.00252,0.00374,-129.64392,-272.44226,-470.3429,225.97676,0.0
25-12-18_19.57.37.523,-0.05112,-0.0136,0.98289,-0.01023,0.00015,0.00015,-130.95937,-274.34235,-475.02002,226.58716,0.6103999999999985
25-12-18_19.57.37.533,-0.03971,-0.04697,0.99436,-0.00664,-0.00015,-0.00344,-128.91313,-270.1037,-475.75082,226.58716,0.0
25-12-18_19.57.37.543,-0.03636,-0.04624,0.98649,0.00962,-0.00305,0.00046,-128.91313,-270.1037,-475.75082,226.58716,0.0
25-12-18_19.57.37.553,-0.05716,-0.02428,0.97118,0.01031,-0.00389,0.00443,-131.83632,-269.22675,-471.21985,226.58716,0.0
25-12-18_19.57.37.563,-0.06039,-0.0083,0.97557,-0.00649,-0.00038,0.00206,-131.39784,-265.42657,-469.02747,226.58716,0.0
25-12-18_19.57.37.573,-0.04075,-0.04496,0.99381,-0.01031,0.00053,-0.00336,-127.45152,-270.68832,-475.16617,226.58716,0.0
25-12-18_19.57.37.583,-0.03245,-0.04886,0.99857,0.00664,-0.00107,-0.00038,-127.45152,-270.68832,-475.16617,226.58716,0.0
25-12-18_19.57.37.593,-0.04843,-0.02806,0.97338,0.01443,-0.00405,0.00389,-130.22856,-268.78824,-471.36603,226.58716,0.0
25-12-18_19.57.37.603,-0.06356,0.00165,0.97496,0.00023,-0.00099,0.00397,-129.49777,-274.19617,-466.54276,226.58716,0.0
25-12-18_19.57.37.613,-0.04843,-0.02208,0.9979,-0.01023,-0.00122,-0.00221,-132.27481,-270.98065,-478.96634,226.58716,0.0
25-12-18_19.57.37.623,-0.03062,-0.04654,1.0068,0.00107,-0.00046,-0.00237,-127.30537,-271.71146,-465.37347,226.58716,0.0
25-12-18_19.57.37.633,-0.04191,-0.03794,0.98606,0.01397,-0.00412,0.00252,-127.30537,-271.71146,-465.37347,226.16531,-0.4218500000000063
25-12-18_19.57.37.643,-0.05984,-0.00866,0.97545,-0.01077,-8e-05,0.00069,-130.22856,-270.68832,-478.38171,226.16531,0.0
25-12-18_19.57.37.653,-0.0363,-0.04386,1.00199,-0.00596,-0.00053,-0.00359,-130.52089,-273.46536,-468.73514,226.16531,0.0
25-12-18_19.57.37.663,-0.03404,-0.04093,0.99216,0.00939,-0.00275,0.0013,-127.74384,-274.92697,-475.31235,226.16531,0.0
25-12-18_19.57.37.673,-0.05569,-0.0133,0.97002,0.01038,-0.00389,0.00588,-134.02873,-274.78082,-477.94321,226.16531,0.0
25-12-18_19.57.37.683,-0.05954,0.00384,0.98131,-0.00473,-0.00191,0.00305,-134.02873,-274.78082,-477.94321,226.16531,0.0
25-12-18_19.57.37.693,-0.04593,-0.03227,1.00217,-0.00825,-0.00053,-0.00344,-128.76697,-274.92697,-474.58154,226.16531,0.0
25-12-18_19.57.37.703,-0.03093,-0.04648,1.00083,0.00367,-0.00145,-0.00076,-130.08241,-274.34235,-472.38913,226.16531,0.0
25-12-18_19.57.37.713,-0.05289,-0.03129,0.97454,0.01199,-0.00283,0.00458,-128.32849,-271.71146,-473.85074,226.16531,0.0
25-12-18_19.57.37.723,-0.06246,-0.00439,0.97258,-0.00031,-0.0026,0.00412,-128.32849,-271.71146,-473.85074,226.16531,0.0
25-12-18_19.57.37.733,-0.04648,-0.02647,0.99948,-0.01069,-0.0016,-0.00214,-131.39784,-273.02689,-472.68146,226.76546,0.6001499999999851
25-12-18_19.57.37.743,-0.03398,-0.0513,1.00449,-0.00313,0.00038,-0.00237,-132.27481,-273.02689,-467.85818,226.76546,0.0
25-12-18_19.57.37.753,-0.04087,-0.03867,0.97569,0.01008,-0.00206,0.00305,-130.8132,-271.27298,-472.82761,226.76546,0.0
25-12-18_19.57.37.763,-0.06155,-0.01019,0.96264,0.00458,-0.00275,0.00443,-132.42096,-272.29608,-477.21243,226.76546,0.0
25-12-18_19.57.37.774,-0.05417,-0.01159,0.98344,-0.00809,-0.00206,-0.00389,-132.42096,-272.29608,-477.21243,226.76546,0.0
25-12-18_19.57.37.784,-0.03855,-0.0452,0.99747,0.00725,-0.00359,0.00038,-131.98248,-274.92697,-476.9201,226.76546,0.0
25-12-18_19.57.37.794,-0.05667,-0.02043,0.96331,0.00886,-0.00451,0.00451,-131.39784,-272.14993,-473.99689,226.76546,0.0
25-12-18_19.57.37.804,-0.05947,-0.00537,0.97643,-0.00542,-0.00237,0.0016,-133.59024,-267.18048,-475.89697,226.76546,0.0
25-12-18_19.57.37.814,-0.04343,-0.03843,1.0018,-0.00733,-0.00214,-0.00351,-133.7364,-272.73456,-470.05057,226.76546,0.0
25-12-18_19.57.37.824,-0.0377,-0.04361,0.99576,0.00672,-0.00153,-0.00038,-133.7364,-272.73456,-470.05057,226.76546,0.0
25-12-18_19.57.37.834,-0.05051,-0.02696,0.97576,0.01145,-0.00428,0.00351,-132.27481,-274.05002,-474.87387,227.28494,0.5194800000000157
25-12-18_19.57.37.844,-0.05844,-0.00866,0.97923,-0.00076,-0.00344,0.00214,-129.05928,-274.19617,-473.99689,227.28494,0.0
25-12-18_19.57.37.854,-0.04544,-0.02782,0.99589,-0.00741,-0.00244,-0.00252,-129.05928,-272.29608,-481.01257,227.28494,0.0
25-12-18_19.57.37.864,-0.03526,-0.04252,1.00784,0.00206,-0.00328,-0.00168,-129.05928,-272.29608,-481.01257,227.28494,0.0
25-12-18_19.57.37.874,-0.04642,-0.02782,0.9846,0.01054,-0.00359,0.00199,-130.52089,-272.14993,-478.82019,227.28494,0.0
25-12-18_19.57.37.884,-0.05277,-0.00994,0.97618,0.00344,-0.00275,0.00237,-134.32104,-273.17307,-472.97379,227.28494,0.0
25-12-18_19.57.37.894,-0.0449,-0.0222,0.99442,-0.00733,-0.00275,-0.00122,-134.61337,-270.8345,-476.33545,227.28494,0.0
25-12-18_19.57.37.904,-0.0327,-0.04483,1.00876,-0.00122,-0.00237,-0.0016,-134.90569,-269.08057,-470.92755,227.28494,0.0
25-12-18_19.57.37.914,-0.04276,-0.03623,0.99064,0.01069,-0.00214,0.00313,-134.90569,-269.08057,-470.92755,227.28494,0.0
25-12-18_19.57.37.924,-0.04843,-0.01494,0.97417,-0.00878,0.00122,-0.00015,-134.46721,-271.27298,-475.89697,227.28494,0.0
25-12-18_19.57.37.934,-0.04044,-0.0352,0.99735,-0.00115,-0.00092,-0.00107,-138.26736,-274.78082,-476.77396,227.28494,0.0
25-12-18_19.57.37.944,-0.0377,-0.03263,0.99277,0.01031,-0.00283,0.00199,-133.44409,-274.63464,-471.65836,226.1422,-1.1427400000000034
25-12-18_19.57.37.954,-0.04971,-0.01616,0.97484,0.00313,-0.00122,0.00313,-131.25168,-270.98065,-477.21243,226.1422,0.0
25-12-18_19.57.37.965,-0.05161,-0.01806,0.97161,-0.00764,0.00092,0.00069,-131.25168,-270.98065,-477.21243,226.1422,0.0
25-12-18_19.57.37.975,-0.0391,-0.03483,0.98558,-0.00298,-0.00107,-0.0016,-135.05185,-273.46536,-478.96634,226.1422,0.0
25-12-18_19.57.37.985,-0.04136,-0.03562,0.99076,0.0084,-0.00252,0.00084,-134.61337,-275.36545,-476.33545,226.1422,0.0
25-12-18_19.57.37.995,-0.04978,-0.01921,0.97631,0.00863,-0.0013,0.00336,-133.15176,-272.73456,-483.49731,226.1422,0.0
25-12-18_19.57.38.005,-0.05209,-0.01494,0.97277,-0.00527,0.00145,0.00084,-133.15176,-272.73456,-483.49731,226.1422,0.0
25-12-18_19.57.38.015,-0.04118,-0.0319,0.98661,-0.00664,-0.00015,-0.00145,-128.03616,-274.19617,-478.96634,226.1422,0.0
25-12-18_19.57.38.025,-0.04569,-0.03806,0.99589,0.00741,-0.00252,0.00061,-125.98993,-268.05746,-477.06625,226.1422,0.0
25-12-18_19.57.38.035,-0.05673,-0.02135,0.98308,0.01031,-0.00244,0.00237,-130.22856,-268.20361,-475.31235,226.1422,0.0
25-12-18_19.57.38.045,-0.05612,-0.01836,0.97612,-0.00702,0.00122,0.00069,-128.6208,-273.17307,-477.35858,226.91241,0.7702099999999916
25-12-18_19.57.38.055,-0.04636,-0.03526,0.99009,-0.01031,-0.00374,-0.00046,-128.6208,-273.17307,-477.35858,226.91241,0.0
25-12-18_19.57.38.065,-0.04404,-0.0416,0.99296,0.01145,-0.00557,0.00229,-130.95937,-269.51904,-478.96634,226.91241,0.0
25-12-18_19.57.38.075,-0.06082,-0.0111,0.98753,-0.0042,-0.00023,0.00069,-126.28224,-270.1037,-478.23553,226.91241,0.0
25-12-18_19.57.38.085,-0.0491,-0.02007,0.98637,-0.01016,0.00267,-0.00252,-131.10553,-269.81137,-481.88953,226.91241,0.0
25-12-18_19.57.38.095,-0.0438,-0.04111,0.99582,0.00458,-0.00435,-0.00115,-129.79008,-264.11115,-473.41226,226.91241,0.0
25-12-18_19.57.38.105,-0.05228,-0.02977,1.00345,0.01214,-0.00664,0.0029,-129.79008,-264.11115,-473.41226,226.91241,0.0
25-12-18_19.57.38.115,-0.0596,-0.01989,0.98667,-0.00229,-0.00015,0.00283,-132.71329,-266.30353,-477.94321,226.91241,0.0
25-12-18_19.57.38.126,-0.05118,-0.028,0.97887,-0.01344,0.00214,-0.00115,-130.52089,-271.71146,-476.33545,226.91241,0.0
25-12-18_19.57.38.136,-0.04118,-0.04361,0.99046,-0.00115,-0.00267,-0.00206,-130.8132,-268.64209,-479.11249,226.91241,0.0
25-12-18_19.57.38.146,-0.04959,-0.02836,0.9835,0.01535,-0.0068,0.00191,-130.8132,-268.64209,-479.11249,226.21259,-0.6998199999999883
25-12-18_19.57.38.156,-0.04721,-0.00586,0.98125,0.00779,-0.00687,0.00313,-130.66705,-271.56528,-481.15875,226.21259,0.0
25-12-18_19.57.38.166,-0.05014,-0.01586,0.98747,-0.01145,-0.00107,0.00053,-135.19801,-270.39603,-483.35114,226.21259,0.0
25-12-18_19.57.38.176,-0.04008,-0.03776,0.98765,-0.00596,-0.00122,-0.00199,-126.28224,-271.71146,-483.05881,226.21259,0.0
25-12-18_19.57.38.186,-0.04111,-0.04648,0.98527,0.0152,-0.0084,0.00153,-132.42096,-271.8576,-482.03571,226.21259,0.0
25-12-18_19.57.38.196,-0.05441,-0.02422,0.98826,-0.00863,-0.00023,0.00099,-132.42096,-271.8576,-482.03571,226.21259,0.0
25-12-18_19.57.38.206,-0.05154,-0.02434,0.98503,-0.01,0.00023,-0.00153,-131.54401,-274.63464,-476.9201,226.21259,0.0
25-12-18_19.57.38.216,-0.03715,-0.04081,0.99168,0.00985,-0.00573,0.00115,-130.22856,-270.24985,-478.08939,226.21259,0.0
25-12-18_19.57.38.226,-0.04959,-0.01159,0.97667,0.01634,-0.00649,0.00443,-127.89001,-270.54218,-480.42795,226.21259,0.0
25-12-18_19.57.38.236,-0.05209,-0.00317,0.981,-0.00382,-0.00206,0.00183,-131.39784,-272.88074,-478.82019,226.21259,0.0
25-12-18_19.57.38.246,-0.03782,-0.03111,0.99564,-0.01428,0.00252,-0.00214,-131.39784,-272.88074,-478.82019,226.21259,0.0
25-12-18_19.57.38.256,-0.03355,-0.04447,0.98985,0.00641,-0.00107,-0.00092,-127.1592,-269.51904,-472.24298,226.13809,-0.07450000000000045
25-12-18_19.57.38.266,-0.04587,-0.02849,0.98234,0.01848,-0.00764,0.0029,-125.55145,-270.1037,-475.75082,226.13809,0.0
25-12-18_19.57.38.276,-0.04813,-0.01141,0.99143,-0.00199,-0.00313,0.00221,-131.54401,-274.92697,-468.44281,226.13809,0.0
25-12-18_19.57.38.286,-0.04294,-0.028,0.99265,-0.01497,0.00359,-0.00137,-131.54401,-274.92697,-468.44281,226.13809,0.0
25-12-18_19.57.38.296,-0.03178,-0.04142,0.99314,0.0016,-0.00137,-0.0013,-127.89001,-273.17307,-476.62778,226.13809,0.0
25-12-18_19.57.38.306,-0.04514,-0.02769,0.98783,0.01504,-0.00496,0.00305,-126.28224,-272.73456,-478.08939,226.13809,0.0
25-12-18_19.57.38.316,-0.05508,-0.00464,0.981,0.00367,-0.0016,0.00336,-127.30537,-274.05002,-474.72769,226.13809,0.0
25-12-18_19.57.38.326,-0.04856,-0.0172,0.98631,-0.01191,0.00267,-0.0013,-131.39784,-278.28867,-475.60468,226.13809,0.0
25-12-18_19.57.38.336,-0.03532,-0.03971,0.98918,0.01336,-0.00321,0.00153,-131.39784,-278.28867,-475.60468,226.13809,0.0
25-12-18_19.57.38.346,-0.0441,-0.00378,0.97929,0.01046,-0.00389,0.00283,-134.02873,-277.11938,-475.75082,226.13809,0.0
25-12-18_19.57.38.357,-0.05331,-0.01501,0.98442,-0.01145,0.00283,-0.00069,-126.57456,-271.41913,-476.9201,226.88107,0.7429799999999886
25-12-18_19.57.38.367,-0.04044,-0.04026,0.99015,-0.01122,0.0029,-0.00359,-131.10553,-269.81137,-478.38171,226.88107,0.0
25-12-18_19.57.38.377,-0.04154,-0.04203,0.98948,0.00916,-0.00237,0.00015,-131.10553,-272.29608,-474.72769,226.88107,0.0
25-12-18_19.57.38.387,-0.05258,-0.02147,0.97807,0.01237,-0.00397,0.00351,-132.85945,-272.29608,-474.72769,226.88107,0.0
25-12-18_19.57.38.397,-0.05697,-0.0136,0.98161,-0.00481,0.0,0.00069,-129.64392,-269.81137,-476.33545,226.88107,0.0
25-12-18_19.57.38.407,-0.04721,-0.03617,0.99241,-0.0126,0.00244,-0.00336,-130.52089,-274.05002,-477.65091,226.88107,0.0
25-12-18_19.57.38.417,-0.04429,-0.04441,0.98942,0.00496,-0.0016,-0.00084,-131.25168,-270.39603,-474.43539,226.88107,0.0
25-12-18_19.57.38.427,-0.05398,-0.02275,0.9796,0.01481,-0.00657,0.00359,-131.25168,-270.39603,-474.43539,226.88107,0.0
25-12-18_19.57.38.437,-0.06198,-0.01263,0.98137,-0.00305,-0.00145,0.00244,-132.85945,-269.37289,-465.66577,226.88107,0.0
25-12-18_19.57.38.447,-0.04789,-0.03038,0.99082,-0.01451,0.00137,-0.00145,-129.20544,-274.34235,-469.02747,226.88107,0.0
25-12-18_19.57.38.457,-0.04185,-0.04697,0.9921,0.00275,-0.00122,-0.00145,-131.10553,-269.22675,-468.00433,226.42583,-0.4552400000000034
25-12-18_19.57.38.467,-0.05295,-0.02897,0.98667,0.01382,-0.00573,0.00359,-132.42096,-273.02689,-471.36603,226.42583,0.0
25-12-18_19.57.38.477,-0.05746,-0.01641,0.98375,-0.00962,-0.00015,-0.00076,-132.42096,-273.02689,-471.36603,226.42583,0.0
25-12-18_19.57.38.487,-0.04721,-0.04178,0.99668,-0.00122,-0.00031,-0.00099,-134.17488,-271.1268,-468.58899,226.42583,0.0
25-12-18_19.57.38.497,-0.05112,-0.02885,0.98594,0.01275,-0.0042,0.00244,-135.19801,-271.56528,-462.45026,226.42583,0.0
25-12-18_19.57.38.507,-0.05423,-0.01141,0.97838,0.00611,-0.00458,0.00328,-132.27481,-273.61154,-470.05057,226.42583,0.0
25-12-18_19.57.38.517,-0.0488,-0.02324,0.98735,-0.01061,-0.00092,0.0,-132.27481,-274.34235,-469.17361,226.42583,0.0
25-12-18_19.57.38.527,-0.03764,-0.0427,0.99302,-0.00344,-0.00107,-0.00076,-132.71329,-274.34235,-469.17361,226.42583,0.0
25-12-18_19.57.38.537,-0.04673,-0.03532,0.98649,0.01428,-0.00603,0.00267,-131.98248,-270.54218,-470.78137,226.42583,0.0
25-12-18_19.57.38.547,-0.0527,-0.01433,0.98247,0.00924,-0.00611,0.00397,-127.1592,-275.36545,-464.93497,226.42583,0.0
25-12-18_19.57.38.557,-0.04978,-0.01921,0.98436,-0.00748,-0.00076,0.0013,-131.39784,-270.98065,-467.85818,226.42583,0.0
25-12-18_19.57.38.567,-0.03947,-0.03819,0.99375,-0.00412,-0.00099,-0.00069,-131.39784,-270.98065,-467.85818,226.9268,0.5009699999999953
25-12-18_19.57.38.577,-0.04166,-0.03544,0.99326,0.011,-0.00619,0.00176,-130.52089,-270.98065,-469.75827,226.9268,0.0
25-12-18_19.57.38.587,-0.0535,-0.01891,0.9832,0.00939,-0.00473,0.00336,-132.85945,-269.95752,-472.24298,226.9268,0.0
25-12-18_19.57.38.597,-0.05185,-0.01787,0.97905,-0.00741,-0.00023,0.00046,-133.29793,-273.75769,-472.38913,226.9268,0.0
25-12-18_19.57.38.608,-0.0391,-0.03782,0.98789,-0.00809,-0.00053,-0.00267,-131.25168,-273.75769,-473.70459,226.9268,0.0
25-12-18_19.57.38.618,-0.03941,-0.03751,0.99021,0.01329,-0.00603,0.00252,-131.25168,-273.75769,-473.70459,226.9268,0.0
25-12-18_19.57.38.628,-0.04721,-0.00824,0.98545,-0.00573,-0.0013,0.00122,-133.59024,-271.27298,-473.85074,226.9268,0.0
25-12-18_19.57.38.638,-0.04111,-0.02739,0.98911,-0.01016,0.00176,-0.00153,-132.42096,-275.9501,-474.87387,226.9268,0.0
25-12-18_19.57.38.648,-0.03465,-0.03697,0.99149,0.00741,-0.00328,-0.00023,-134.61337,-276.38858,-476.62778,226.9268,0.0
25-12-18_19.57.38.658,-0.04935,-0.02239,0.99076,0.01344,-0.00535,0.00321,-134.61337,-276.38858,-472.82761,226.9268,0.0
25-12-18_19.57.38.668,-0.0499,-0.01488,0.98582,-0.00359,-0.00076,0.00191,-133.44409,-268.49594,-472.82761,226.18793,-0.7388699999999915
25-12-18_19.57.38.678,-0.04075,-0.0283,0.98613,-0.01176,0.00298,-0.00168,-135.78264,-266.59586,-473.26611,226.18793,0.0
25-12-18_19.57.38.688,-0.03538,-0.03959,0.99247,0.00145,-0.00206,-0.00076,-133.44409,-269.81137,-475.02002,226.18793,0.0
25-12-18_19.57.38.699,-0.04703,-0.02135,0.98503,0.01336,-0.00512,0.00275,-136.36728,-269.81137,-476.77396,226.18793,0.0
25-12-18_19.57.38.708,-0.05075,-0.00494,0.98222,0.00145,-0.00214,0.00214,-136.36728,-269.81137,-476.77396,226.18793,0.0
25-12-18_19.57.38.718,-0.04544,-0.02269,0.99052,-0.01443,0.00229,-0.00168,-130.37473,-269.95752,-474.43539,226.18793,0.0
25-12-18_19.57.38.728,-0.03916,-0.04136,0.99235,-0.00199,0.00076,-0.0016,-131.83632,-269.37289,-477.65091,226.18793,0.0
25-12-18_19.57.38.738,-0.04819,-0.03453,0.98753,0.01474,-0.00512,0.00229,-129.05928,-269.51904,-467.71204,226.18793,0.0
25-12-18_19.57.38.748,-0.0502,-0.01946,0.98826,0.00389,-0.00389,-0.01703,-133.59024,-266.742,-475.16617,226.18793,0.0
25-12-18_19.57.38.758,-0.05045,-0.0308,0.98655,-0.00573,0.00214,-0.00137,-133.59024,-266.742,-475.16617,226.18793,0.0
25-12-18_19.57.38.768,-0.04782,-0.03697,0.98552,0.01229,-0.00336,0.00168,-131.83632,-270.1037,-469.46594,226.18793,0.0
25-12-18_19.57.38.778,-0.05325,-0.01427,0.97746,0.00863,-0.00405,0.00305,-132.71329,-271.8576,-465.9581,227.01981,0.8318800000000124
25-12-18_19.57.38.788,-0.05289,-0.01726,0.98472,-0.01016,0.00122,0.00015,-131.39784,-265.57272,-465.9581,227.01981,0.0
25-12-18_19.57.38.798,-0.04349,-0.03873,0.98686,-0.00825,0.00099,-0.00229,-131.39784,-265.57272,-465.9581,227.01981,0.0
25-12-18_19.57.38.808,-0.04636,-0.04301,0.98442,0.01107,-0.00336,0.00115,-130.08241,-268.05746,-469.46594,227.01981,0.0
25-12-18_19.57.38.818,-0.05819,-0.02397,0.98192,0.01306,-0.0055,0.00321,-132.42096,-270.8345,-464.93497,227.01981,0.0
25-12-18_19.57.38.828,-0.05545,-0.02111,0.98515,-0.00786,-0.00015,0.00069,-130.22856,-271.71146,-465.81195,227.01981,0.0
25-12-18_19.57.38.839,-0.04569,-0.0405,0.98771,-0.01084,0.00237,-0.00221,-128.47464,-271.41913,-464.64267,227.01981,0.0
25-12-18_19.57.38.849,-0.04246,-0.03983,0.98704,0.00962,-0.00305,0.00076,-128.47464,-271.41913,-464.64267,227.01981,0.0
25-12-18_19.57.38.859,-0.05154,-0.01812,0.97984,0.01474,-0.0068,0.00367,-132.27481,-270.1037,-467.27353,227.01981,0.0
25-12-18_19.57.38.869,-0.05649,-0.01025,0.98484,-0.00283,-0.00199,0.00122,-134.17488,-272.00378,-462.01178,227.01981,0.0
25-12-18_19.57.38.879,-0.0438,-0.02751,0.98851,-0.01046,0.00145,-0.00229,-134.75952,-269.22675,-464.93497,227.11281,0.09299999999998931
25-12-18_19.57.38.889,-0.04002,-0.04264,0.99284,0.00504,-0.00336,0.00359,-137.68272,-271.56528,-465.22729,227.11281,0.0
25-12-18_19.57.38.899,-0.05057,-0.02342,0.98789,0.0013,-0.00283,0.00229,-137.68272,-271.56528,-465.22729,227.11281,0.0
25-12-18_19.57.38.909,-0.04361,-0.02525,0.9932,-0.01245,0.00038,-0.00115,-129.20544,-270.39603,-468.73514,227.11281,0.0
25-12-18_19.57.38.919,-0.0352,-0.04239,0.99711,0.00023,-0.0016,-0.00038,-129.64392,-270.8345,-469.17361,227.11281,0.0
25-12-18_19.57.38.929,-0.04727,-0.0266,0.9868,0.01611,-0.00603,0.0029,-135.9288,-268.34976,-475.4585,227.11281,0.0
