ax,ay,az,gx,gy,gz,mx,my,mz,pressure,temperature,altitude
-0.04106,0.03178,1.00070,-0.00025,0.00001,-0.00056,-0.44072,-0.29214,-1.15717,981.95000,27.13000,294.04000
-0.03900,0.03166,0.99766,-0.00025,0.00001,-0.00056,-0.44104,-0.29235,-1.17227,981.97000,27.13000,293.86000
-0.04008,0.03280,1.00172,-0.00025,0.00001,0.00044,-0.44605,-0.27900,-1.16615,982.06000,27.13000,293.08000
-0.04106,0.03081,1.00167,-0.00025,0.00001,0.00044,-0.43845,-0.30029,-1.16932,982.05000,27.14000,293.12000
-0.04004,0.03076,1.00065,0.00075,0.00001,-0.00056,-0.44099,-0.29496,-1.16627,982.01000,27.14000,293.45000
-0.04105,0.03275,0.99973,0.00075,0.00001,-0.00056,-0.44379,-0.28979,-1.17531,982.11000,27.13000,292.66000
-0.04010,0.03284,1.00272,0.00075,0.00001,-0.00056,-0.44383,-0.29508,-1.16936,982.06000,27.14000,293.11000
-0.03907,0.03179,1.00167,-0.00025,0.00001,0.00044,-0.43273,-0.29475,-1.16911,982.00000,27.13000,293.56000
-0.04002,0.02973,0.99962,-0.00025,0.00001,-0.00056,-0.44106,-0.30289,-1.15734,981.99000,27.14000,293.68000
-0.03904,0.03172,0.99967,-0.00025,0.00001,-0.00056,-0.43836,-0.30550,-1.15732,982.00000,27.13000,293.61000
-0.04008,0.03280,1.00172,0.00075,0.00001,0.00044,-0.43246,-0.29983,-1.14805,982.00000,27.14000,293.57000
-0.04204,0.03176,0.99972,0.00075,0.00001,-0.00056,-0.43536,-0.29210,-1.16611,982.08000,27.14000,292.88000
-0.04002,0.03170,0.99868,-0.00025,0.00001,0.00044,-0.44027,-0.28131,-1.15097,982.03000,27.14000,293.33000
-0.04010,0.03284,1.00272,0.00075,0.00001,-0.00056,-0.45527,-0.30616,-1.16978,982.00000,27.13000,293.57000
-0.03903,0.02975,1.00060,0.00075,0.00001,-0.00056,-0.45527,-0.30616,-1.16978,981.99000,27.13000,293.69000
-0.03702,0.03364,0.99770,0.00075,0.00001,-0.00056,-0.45469,-0.28735,-1.16948,982.02000,27.14000,293.45000
-0.04306,0.02982,1.00167,-0.00025,0.00001,-0.00056,-0.46026,-0.29806,-1.15468,981.97000,27.14000,293.88000
-0.03793,0.03152,0.99364,-0.00025,0.00001,-0.00056,-0.44669,-0.30574,-1.15751,981.97000,27.13000,293.83000
-0.03809,0.03379,1.00172,0.00075,0.00001,-0.00056,-0.45512,-0.29554,-1.17867,982.01000,27.14000,293.53000
-0.04210,0.03383,1.00178,0.00075,0.00001,-0.00056,-0.43863,-0.30042,-1.17838,982.02000,27.13000,293.39000
-0.04106,0.03081,1.00167,-0.00025,0.00001,-0.00056,-0.44982,-0.30344,-1.17867,981.97000,27.14000,293.82000
-0.03899,0.03065,0.99763,-0.00025,0.00001,0.00044,-0.44982,-0.30344,-1.17867,982.00000,27.13000,293.56000
-0.04115,0.03392,1.00477,-0.00025,0.00001,-0.00056,-0.45249,-0.30608,-1.16971,982.00000,27.14000,293.58000
-0.04208,0.03085,1.00269,-0.00025,0.00001,-0.00056,-0.45471,-0.29000,-1.16650,982.05000,27.14000,293.14000
-0.03997,0.02963,0.99661,0.00075,0.00001,-0.00056,-0.44963,-0.30331,-1.16961,982.05000,27.14000,293.15000
-0.03900,0.03263,0.99670,0.00075,0.00001,-0.00056,-0.44137,-0.29521,-1.18439,982.04000,27.13000,293.24000
-0.04012,0.03287,1.00372,0.00075,0.00001,-0.00056,-0.44661,-0.29517,-1.16942,982.04000,27.13000,293.24000
-0.04109,0.03184,1.00270,0.00075,0.00001,-0.00056,-0.44922,-0.29777,-1.15745,981.93000,27.14000,294.22000
-0.04003,0.03271,0.99871,-0.00025,0.00001,-0.00056,-0.44922,-0.29777,-1.15745,982.01000,27.13000,293.49000
-0.04110,0.03382,1.00177,-0.00025,0.00001,0.00044,-0.44611,-0.29483,-1.14526,981.98000,27.13000,293.73000
-0.04011,0.03187,1.00369,0.00075,0.00001,-0.00056,-0.46034,-0.30074,-1.15472,982.00000,27.13000,293.57000
-0.04000,0.02969,0.99862,-0.00025,0.00001,-0.00056,-0.44661,-0.30306,-1.15747,982.05000,27.13000,293.12000
-0.03905,0.03273,0.99970,-0.00025,0.00001,-0.00056,-0.45228,-0.30331,-1.16363,981.98000,27.14000,293.79000
-0.04110,0.03285,1.00274,-0.00025,0.00001,0.00044,-0.45525,-0.30352,-1.17275,981.99000,27.13000,293.68000
-0.03904,0.03075,1.00064,0.00075,0.00001,0.00044,-0.45469,-0.28735,-1.16948,981.93000,27.13000,294.17000
-0.04107,0.03278,1.00073,0.00075,0.00001,0.00044,-0.45469,-0.28735,-1.16948,981.98000,27.13000,293.74000
-0.04108,0.03379,1.00077,-0.00025,0.00001,0.00044,-0.46561,-0.28756,-1.16067,982.02000,27.13000,293.38000
-0.03808,0.03181,1.00265,-0.00025,0.00001,0.00044,-0.46861,-0.29306,-1.16384,981.95000,27.13000,294.03000
-0.04003,0.03073,0.99965,-0.00025,0.00001,-0.00056,-0.46331,-0.30095,-1.16384,982.05000,27.13000,293.17000
-0.04007,0.03277,1.00072,0.00075,0.00001,-0.00056,-0.46022,-0.29277,-1.16063,982.00000,27.13000,293.60000
-0.04107,0.03181,1.00170,0.00075,0.00001,-0.00056,-0.46579,-0.29558,-1.15778,982.05000,27.14000,293.16000
-0.04009,0.03183,1.00269,-0.00025,0.00001,-0.00056,-0.45179,-0.28719,-1.16338,981.99000,27.14000,293.68000
-0.04206,0.03179,1.00072,-0.00025,0.00001,-0.00056,-0.45179,-0.28719,-1.16338,982.01000,27.13000,293.50000
-0.04005,0.03177,1.00068,-0.00025,0.00001,-0.00056,-0.45446,-0.28983,-1.15442,982.03000,27.13000,293.35000
-0.03905,0.03273,0.99970,0.00075,0.00001,-0.00056,-0.45185,-0.29512,-1.15445,982.00000,27.13000,293.58000
-0.04008,0.03280,1.00172,0.00075,0.00001,-0.00056,-0.45222,-0.29537,-1.17256,981.99000,27.13000,293.62000
-0.04009,0.03183,1.00269,-0.00025,0.00001,-0.00056,-0.44976,-0.30339,-1.17565,982.01000,27.14000,293.49000
-0.04004,0.03076,1.00065,-0.00025,0.00001,-0.00056,-0.44990,-0.30612,-1.17871,982.06000,27.13000,293.06000
-0.03905,0.03273,0.99970,0.00075,0.00001,0.00044,-0.44684,-0.30058,-1.17252,982.00000,27.13000,293.62000
-0.04011,0.03384,1.00275,0.00075,0.00001,0.00044,-0.44684,-0.30058,-1.17252,982.01000,27.13000,293.49000
-0.04005,0.02979,1.00162,0.00075,0.00001,0.00044,-0.45266,-0.30356,-1.18175,982.03000,27.13000,293.33000
-0.04006,0.03374,0.99975,0.00075,0.00001,0.00044,-0.44417,-0.29794,-1.18148,982.03000,27.13000,293.30000
-0.04109,0.03282,1.00174,0.00075,0.00001,-0.00056,-0.44671,-0.30050,-1.16648,982.07000,27.13000,292.97000
-0.04006,0.03080,1.00165,-0.00025,0.00001,0.00044,-0.44437,-0.30071,-1.18756,981.91000,27.13000,294.36000
-0.04004,0.03076,1.00065,-0.00025,0.00001,-0.00056,-0.44338,-0.28425,-1.16315,982.03000,27.13000,293.33000
-0.04005,0.03274,0.99972,-0.00025,0.00001,-0.00056,-0.45241,-0.29550,-1.18162,981.99000,27.13000,293.67000
-0.04109,0.03282,1.00174,-0.00025,0.00001,-0.00056,-0.45241,-0.29550,-1.18162,981.97000,27.13000,293.84000
-0.04106,0.03178,1.00070,-0.00025,0.00001,-0.00056,-0.44930,-0.29256,-1.16944,982.10000,27.14000,292.74000
-0.04002,0.03170,0.99868,-0.00025,0.00001,0.00044,-0.44354,-0.29752,-1.15128,982.05000,27.13000,293.11000
-0.04007,0.03180,1.00169,0.00075,0.00001,0.00044,-0.46068,-0.30360,-1.16684,982.01000,27.14000,293.49000
-0.04007,0.03180,1.00169,0.00075,0.00001,0.00044,-0.46013,-0.29797,-1.14864,981.99000,27.14000,293.65000
-0.04107,0.03181,1.00170,0.00075,0.00001,-0.00056,-0.46299,-0.30074,-1.14874,981.95000,27.13000,293.98000
-0.03908,0.03279,1.00170,0.00075,0.00001,0.00044,-0.44619,-0.28962,-1.15726,981.93000,27.14000,294.19000
-0.03908,0.03279,1.00170,0.00075,0.00001,-0.00056,-0.44644,-0.28979,-1.16933,981.97000,27.13000,293.81000
-0.04005,0.03274,0.99972,0.00075,0.00001,-0.00056,-0.45485,-0.29273,-1.16956,982.00000,27.13000,293.60000
-0.04007,0.03277,1.00072,0.00075,0.00001,0.00044,-0.44648,-0.29508,-1.16338,982.00000,27.13000,293.56000
-0.04004,0.03173,0.99968,0.00075,-0.00099,0.00044,-0.46324,-0.29302,-1.17277,981.98000,27.13000,293.71000
-0.04007,0.03180,1.00169,0.00075,0.00001,-0.00056,-0.45794,-0.30091,-1.17277,982.00000,27.13000,293.57000
-0.04007,0.03180,1.00169,-0.00025,0.00001,-0.00056,-0.46343,-0.30104,-1.16988,982.05000,27.13000,293.19000
-0.03906,0.03276,1.00070,-0.00025,0.00001,-0.00056,-0.45483,-0.29797,-1.16059,982.01000,27.13000,293.53000
-0.03906,0.03276,1.00070,-0.00025,0.00001,0.00044,-0.45496,-0.30595,-1.15468,982.01000,27.13000,293.51000
-0.04005,0.03177,1.00068,0.00075,0.00001,-0.00056,-0.45496,-0.30595,-1.15468,982.08000,27.14000,292.86000
-0.04005,0.03177,1.00068,0.00075,0.00001,-0.00056,-0.45748,-0.29797,-1.15461,982.05000,27.13000,293.17000
-0.04007,0.03180,1.00169,0.00075,0.00001,-0.00056,-0.45233,-0.30071,-1.16963,981.95000,27.13000,293.97000
-0.03905,0.03176,1.00067,-0.00025,0.00001,0.00044,-0.43803,-0.29475,-1.15715,982.04000,27.14000,293.26000
-0.03909,0.03182,1.00267,0.00075,0.00001,0.00044,-0.45197,-0.29520,-1.16049,981.95000,27.13000,293.97000
-0.03905,0.03273,0.99970,0.00075,0.00001,0.00044,-0.46613,-0.29054,-1.18185,981.98000,27.13000,293.71000
-0.04007,0.03180,1.00169,0.00075,0.00001,-0.00056,-0.45456,-0.28727,-1.16344,982.06000,27.13000,293.06000
-0.04006,0.03080,1.00165,-0.00025,0.00001,-0.00056,-0.45456,-0.28727,-1.16344,982.00000,27.14000,293.54000
-0.04007,0.03277,1.00072,0.00075,0.00001,0.00044,-0.44603,-0.28425,-1.15717,982.02000,27.13000,293.39000
-0.03902,0.03072,0.99963,0.00075,0.00001,0.00044,-0.44986,-0.30873,-1.17271,982.01000,27.13000,293.53000
-0.04005,0.03274,0.99972,0.00075,0.00001,-0.00056,-0.45247,-0.30343,-1.17269,982.00000,27.13000,293.62000
-0.04007,0.03277,1.00072,-0.00025,0.00001,-0.00056,-0.44663,-0.29781,-1.16644,981.94000,27.13000,294.07000
-0.04005,0.03177,1.00068,0.00075,0.00001,0.00044,-0.44655,-0.29512,-1.16640,981.98000,27.13000,293.79000
-0.04008,0.03083,1.00265,-0.00025,0.00001,-0.00056,-0.44961,-0.30856,-1.16063,981.98000,27.13000,293.78000
-0.04005,0.03274,0.99972,0.00075,0.00001,-0.00056,-0.44961,-0.30856,-1.16063,982.02000,27.13000,293.42000
-0.03905,0.03176,1.00067,0.00075,0.00001,0.00044,-0.45471,-0.29000,-1.16650,982.05000,27.13000,293.18000
-0.04104,0.03175,0.99970,0.00075,0.00001,-0.00056,-0.44922,-0.29777,-1.15745,982.02000,27.13000,293.44000
-0.04004,0.03076,1.00065,-0.00025,0.00001,-0.00056,-0.44941,-0.29789,-1.16650,982.00000,27.13000,293.59000
-0.04007,0.03277,1.00072,-0.00025,0.00001,-0.00056,-0.44696,-0.30067,-1.17856,982.05000,27.13000,293.15000
-0.04004,0.03076,1.00065,0.00075,0.00001,-0.00056,-0.45206,-0.29000,-1.17248,982.03000,27.13000,293.30000
-0.04107,0.03278,1.00073,-0.00025,0.00001,-0.00056,-0.45193,-0.28202,-1.17839,982.03000,27.13000,293.30000
-0.04008,0.03280,1.00172,0.00075,0.00001,0.00044,-0.45193,-0.28202,-1.17839,981.99000,27.13000,293.70000
-0.04106,0.03178,1.00070,0.00075,0.00001,-0.00056,-0.45769,-0.29285,-1.17265,982.08000,27.13000,292.93000
-0.04005,0.03274,0.99972,-0.00025,0.00001,-0.00056,-0.44309,-0.27879,-1.15702,981.96000,27.12000,293.96000
-0.04007,0.03277,1.00072,-0.00025,0.00001,0.00044,-0.45776,-0.29289,-1.17567,982.07000,27.13000,293.01000
-0.03905,0.03176,1.00067,0.00075,0.00001,-0.00056,-0.44936,-0.29260,-1.17246,982.00000,27.13000,293.62000
-0.04104,0.03175,0.99970,0.00075,0.00001,-0.00056,-0.44849,-0.28412,-1.14214,982.06000,27.13000,293.07000
-0.04003,0.03271,0.99871,0.00075,0.00001,0.00044,-0.45446,-0.28983,-1.15442,982.04000,27.13000,293.28000
-0.04006,0.03080,1.00165,0.00075,0.00001,-0.00056,-0.45446,-0.28983,-1.15442,982.04000,27.13000,293.25000
-0.04007,0.03277,1.00072,0.00075,0.00001,0.00044,-0.45751,-0.28483,-1.17554,981.98000,27.13000,293.74000
-0.03905,0.03176,1.00067,0.00075,0.00001,-0.00056,-0.45156,-0.28966,-1.14832,981.98000,27.13000,293.75000
-0.04007,0.03277,1.00072,-0.00025,0.00001,-0.00056,-0.46279,-0.29008,-1.15461,981.97000,27.13000,293.88000
-0.04216,0.03296,1.00576,-0.00025,0.00001,-0.00056,-0.44619,-0.28962,-1.15726,981.95000,27.13000,293.98000
-0.03685,0.02839,0.99052,-0.00025,0.00001,-0.00056,-0.43522,-0.28148,-1.17500,982.04000,27.13000,293.27000
-0.03714,0.03387,1.00470,0.00075,0.00001,0.00044,-0.45170,-0.28450,-1.16334,982.03000,27.13000,293.36000
-0.04111,0.03385,1.00277,-0.00025,0.00001,-0.00056,-0.45170,-0.28450,-1.16334,982.01000,27.13000,293.46000
-0.04402,0.02877,0.99965,-0.00025,0.00001,-0.00056,-0.44112,-0.29504,-1.17231,982.04000,27.13000,293.21000
-0.03612,0.03286,1.00466,0.00075,0.00001,0.00044,-0.44655,-0.29512,-1.16640,982.07000,27.13000,292.98000
-0.04214,0.03490,1.00382,0.00075,0.00001,0.00044,-0.44087,-0.28698,-1.17219,982.01000,27.13000,293.48000
-0.04004,0.03173,0.99968,-0.00025,0.00001,-0.00056,-0.44083,-0.28958,-1.16619,982.01000,27.13000,293.51000
-0.04000,0.02969,0.99862,-0.00025,0.00001,-0.00056,-0.44102,-0.29760,-1.16330,981.98000,27.13000,293.73000
-0.03807,0.03472,0.99975,0.00075,0.00001,-0.00056,-0.44348,-0.28958,-1.16021,981.93000,27.13000,294.19000
-0.04212,0.03289,1.00375,-0.00025,0.00001,0.00044,-0.44348,-0.28958,-1.16021,981.93000,27.13000,294.14000
-0.03802,0.03168,0.99865,0.00075,0.00001,0.00044,-0.44074,-0.29479,-1.15420,982.00000,27.13000,293.61000
-0.04003,0.03271,0.99871,0.00075,0.00001,-0.00056,-0.44561,-0.28660,-1.13306,982.02000,27.13000,293.40000
-0.04110,0.03285,1.00274,0.00075,0.00001,-0.00056,-0.43782,-0.28408,-1.16302,981.98000,27.13000,293.72000
-0.04111,0.03188,1.00371,0.00075,0.00001,0.00044,-0.44621,-0.29227,-1.15428,982.02000,27.13000,293.41000
-0.04099,0.02967,0.99763,-0.00025,0.00001,0.00044,-0.45174,-0.29768,-1.14543,982.02000,27.13000,293.40000
-0.04004,0.03371,0.99875,0.00075,0.00001,-0.00056,-0.45210,-0.31107,-1.14262,981.93000,27.13000,294.16000
-0.04107,0.02984,1.00264,0.00075,0.00001,-0.00056,-0.45210,-0.31107,-1.14262,981.91000,27.13000,294.31000
-0.03901,0.03069,0.99863,0.00075,0.00001,-0.00056,-0.43803,-0.29475,-1.15715,981.98000,27.13000,293.76000
-0.04008,0.03378,1.00075,0.00075,0.00001,0.00044,-0.43840,-0.30289,-1.16332,981.93000,27.13000,294.21000
-0.04011,0.03187,1.00369,-0.00025,0.00001,-0.00056,-0.44339,-0.30268,-1.13627,981.97000,27.13000,293.82000
-0.03909,0.03182,1.00267,-0.00025,0.00001,-0.00056,-0.44905,-0.30028,-1.14541,982.00000,27.13000,293.56000
-0.04004,0.03173,0.99968,0.00075,0.00001,-0.00056,-0.44887,-0.29227,-1.14830,981.99000,27.13000,293.69000
-0.03908,0.03279,1.00170,0.00075,0.00001,0.00044,-0.43791,-0.29466,-1.15111,982.05000,27.13000,293.18000
-0.03907,0.03179,1.00167,-0.00025,0.00001,-0.00056,-0.43797,-0.29471,-1.15413,981.99000,27.13000,293.65000
-0.04005,0.03177,1.00068,0.00075,0.00001,0.00044,-0.45715,-0.28722,-1.15444,982.06000,27.13000,293.06000
-0.04004,0.03173,0.99968,-0.00025,0.00001,-0.00056,-0.44646,-0.29244,-1.16636,981.97000,27.13000,293.80000
-0.04008,0.03280,1.00172,-0.00025,0.00001,-0.00056,-0.44661,-0.29517,-1.16942,982.05000,27.12000,293.15000
-0.03908,0.03279,1.00170,0.00075,0.00001,-0.00056,-0.46016,-0.30062,-1.14566,982.03000,27.13000,293.35000
-0.03907,0.03179,1.00167,0.00075,0.00001,0.00044,-0.45222,-0.31116,-1.14866,982.04000,27.13000,293.26000
-0.03905,0.03176,1.00067,0.00075,0.00001,0.00044,-0.43287,-0.30537,-1.16022,982.03000,27.12000,293.32000
-0.04000,0.02969,0.99862,0.00075,0.00001,-0.00056,-0.43256,-0.30516,-1.14512,982.02000,27.13000,293.44000
-0.04007,0.03180,1.00169,0.00075,0.00001,-0.00056,-0.44644,-0.30558,-1.14543,981.97000,27.13000,293.86000
-0.04012,0.03287,1.00372,0.00075,0.00001,-0.00056,-0.44367,-0.30549,-1.14537,981.95000,27.13000,294.04000
-0.04001,0.03070,0.99865,0.00075,0.00001,0.00044,-0.44640,-0.29239,-1.16334,981.89000,27.13000,294.54000
-0.03905,0.03273,0.99970,0.00075,0.00001,0.00044,-0.45164,-0.29235,-1.14836,981.99000,27.12000,293.69000
-0.04106,0.03178,1.00070,0.00075,0.00001,0.00044,-0.45744,-0.29268,-1.16057,982.03000,27.13000,293.28000
-0.04109,0.03184,1.00270,-0.00025,0.00001,0.00044,-0.45189,-0.29252,-1.16044,982.00000,27.13000,293.61000
-0.04104,0.03272,0.99873,0.00075,0.00001,-0.00056,-0.47178,-0.29604,-1.17904,981.96000,27.13000,293.89000
-0.04004,0.03173,0.99968,-0.00025,0.00001,-0.00056,-0.47178,-0.29604,-1.17904,981.98000,27.12000,293.73000
-0.03908,0.03279,1.00170,-0.00025,0.00001,-0.00056,-0.46020,-0.29012,-1.16361,982.00000,27.13000,293.60000
-0.04109,0.03184,1.00270,-0.00025,0.00001,0.00044,-0.46001,-0.29789,-1.14260,981.97000,27.13000,293.85000
-0.03904,0.03172,0.99967,-0.00025,0.00001,0.00044,-0.45185,-0.29512,-1.15445,982.10000,27.13000,292.74000
-0.04007,0.03277,1.00072,0.00075,0.00001,-0.00056,-0.46078,-0.30104,-1.17586,981.97000,27.13000,293.84000
-0.04109,0.03282,1.00174,0.00075,0.00001,-0.00056,-0.45479,-0.29268,-1.16654,982.01000,27.12000,293.49000
-0.04107,0.03181,1.00170,-0.00025,0.00001,0.00044,-0.45262,-0.29827,-1.18770,982.00000,27.13000,293.57000
-0.04106,0.03178,1.00070,-0.00025,0.00001,-0.00056,-0.45262,-0.29827,-1.18770,982.05000,27.13000,293.15000
-0.04009,0.03183,1.00269,-0.00025,0.00001,-0.00056,-0.44968,-0.30071,-1.17561,982.00000,27.13000,293.56000
-0.04109,0.03282,1.00174,0.00075,0.00001,-0.00056,-0.44406,-0.30050,-1.17246,981.93000,27.12000,294.17000
-0.04005,0.03177,1.00068,0.00075,0.00001,0.00044,-0.45227,-0.29277,-1.17856,982.04000,27.13000,293.22000
-0.04007,0.03277,1.00072,-0.00025,0.00001,0.00044,-0.44907,-0.28714,-1.16634,982.03000,27.13000,293.29000
-0.04003,0.03073,0.99965,-0.00025,0.00001,-0.00056,-0.45243,-0.29815,-1.17865,981.91000,27.13000,294.39000
-0.04006,0.03080,1.00165,0.00075,0.00001,-0.00056,-0.44360,-0.28967,-1.16625,982.02000,27.13000,293.45000
-0.04004,0.03076,1.00065,-0.00025,0.00001,0.00044,-0.44360,-0.28967,-1.16625,982.02000,27.12000,293.45000
-0.04008,0.03280,1.00172,-0.00025,0.00001,-0.00056,-0.44371,-0.29500,-1.16332,981.90000,27.13000,294.47000
-0.04007,0.03277,1.00072,0.00075,0.00001,-0.00056,-0.44392,-0.29777,-1.16940,981.95000,27.13000,294.05000
-0.03906,0.03276,1.00070,-0.00025,0.00001,-0.00056,-0.45164,-0.30024,-1.13641,981.89000,27.12000,294.51000
-0.04105,0.03077,1.00067,0.00075,0.00001,-0.00056,-0.45730,-0.28995,-1.15751,982.00000,27.12000,293.59000
-0.04007,0.03180,1.00169,0.00075,0.00001,-0.00056,-0.45208,-0.30054,-1.15755,981.99000,27.12000,293.68000
-0.04104,0.03175,0.99970,0.00075,0.00001,-0.00056,-0.45181,-0.29772,-1.14845,981.93000,27.13000,294.14000
-0.04005,0.03177,1.00068,-0.00025,0.00001,-0.00056,-0.45181,-0.29772,-1.14845,981.96000,27.13000,293.95000
-0.04004,0.03076,1.00065,-0.00025,0.00001,-0.00056,-0.45492,-0.30066,-1.16063,981.97000,27.12000,293.80000
-0.04005,0.03177,1.00068,0.00075,0.00001,-0.00056,-0.45425,-0.29495,-1.13639,981.96000,27.12000,293.94000
-0.04007,0.03180,1.00169,-0.00025,0.00001,-0.00056,-0.44680,-0.30318,-1.16653,982.03000,27.13000,293.30000
-0.04005,0.03274,0.99972,-0.00025,0.00001,0.00044,-0.44093,-0.28702,-1.17521,982.01000,27.13000,293.53000
-0.04206,0.03179,1.00072,-0.00025,0.00001,-0.00056,-0.45227,-0.29277,-1.17856,981.98000,27.13000,293.78000
-0.04007,0.03277,1.00072,0.00075,0.00001,-0.00056,-0.45417,-0.28437,-1.14830,981.99000,27.13000,293.71000
-0.03905,0.03176,1.00067,0.00075,0.00001,-0.00056,-0.45417,-0.28437,-1.14830,982.03000,27.13000,293.28000
-0.04008,0.03280,1.00172,-0.00025,0.00001,-0.00056,-0.45786,-0.29823,-1.17273,982.00000,27.13000,293.58000
-0.04106,0.03178,1.00070,-0.00025,-0.00099,-0.00056,-0.46295,-0.29545,-1.15470,982.01000,27.12000,293.47000
-0.04005,0.03274,0.99972,-0.00025,0.00001,-0.00056,-0.45782,-0.30083,-1.16673,981.94000,27.12000,294.08000
-0.03905,0.03176,1.00067,-0.00025,0.00001,-0.00056,-0.46331,-0.29306,-1.17579,982.01000,27.12000,293.53000
-0.04004,0.03076,1.00065,-0.00025,0.00001,-0.00056,-0.44922,-0.29777,-1.15745,981.90000,27.13000,294.40000
-0.04008,0.03280,1.00172,0.00075,0.00001,-0.00056,-0.45177,-0.29243,-1.15440,981.93000,27.13000,294.20000
-0.04005,0.03177,1.00068,-0.00025,0.00001,-0.00056,-0.45177,-0.29243,-1.15440,981.97000,27.12000,293.86000
-0.03906,0.03276,1.00070,-0.00025,0.00001,-0.00056,-0.46049,-0.29558,-1.16973,982.07000,27.12000,293.02000
-0.04005,0.03274,0.99972,0.00075,0.00001,0.00044,-0.44619,-0.28962,-1.15726,981.96000,27.12000,293.88000
-0.04004,0.03173,0.99968,0.00075,0.00001,-0.00056,-0.46312,-0.30083,-1.15478,981.96000,27.12000,293.93000
-0.03905,0.03176,1.00067,0.00075,0.00001,0.00044,-0.45467,-0.29260,-1.16051,981.99000,27.12000,293.69000
-0.04106,0.03375,0.99977,0.00075,0.00001,-0.00056,-0.46556,-0.29016,-1.15467,981.94000,27.12000,294.12000
-0.04005,0.03177,1.00068,-0.00025,0.00001,-0.00056,-0.44889,-0.29491,-1.14532,981.99000,27.12000,293.68000
-0.04007,0.03277,1.00072,-0.00025,0.00001,-0.00056,-0.44889,-0.29491,-1.14532,981.95000,27.12000,294.01000
-0.04109,0.03282,1.00174,0.00075,0.00001,-0.00056,-0.45734,-0.28735,-1.16350,982.01000,27.12000,293.50000
-0.04104,0.03175,0.99970,0.00075,0.00001,-0.00056,-0.46293,-0.29281,-1.15767,982.02000,27.12000,293.43000
-0.04104,0.03175,0.99970,0.00075,0.00001,-0.00056,-0.44640,-0.29239,-1.16334,981.95000,27.12000,294.02000
-0.04005,0.03274,0.99972,-0.00025,0.00001,-0.00056,-0.45502,-0.29810,-1.16965,981.93000,27.13000,294.18000
-0.04007,0.03180,1.00169,0.00075,0.00001,-0.00056,-0.44936,-0.30050,-1.16051,981.97000,27.13000,293.84000
-0.04005,0.03177,1.00068,-0.00025,0.00001,-0.00056,-0.45251,-0.30083,-1.17869,981.99000,27.12000,293.63000
-0.04007,0.03277,1.00072,-0.00025,0.00001,-0.00056,-0.45201,-0.30049,-1.15453,981.91000,27.12000,294.32000
-0.04104,0.03175,0.99970,0.00075,0.00001,-0.00056,-0.45748,-0.29797,-1.15461,981.95000,27.12000,294.04000
-0.03904,0.03172,0.99967,0.00075,0.00001,-0.00056,-0.46012,-0.28743,-1.16357,982.05000,27.12000,293.18000
-0.04104,0.03175,0.99970,0.00075,0.00001,-0.00056,-0.45510,-0.30079,-1.16969,981.94000,27.12000,294.12000
-0.04007,0.03180,1.00169,0.00075,0.00001,-0.00056,-0.45525,-0.30352,-1.17275,982.06000,27.12000,293.04000
-0.04007,0.03180,1.00169,0.00075,0.00001,-0.00056,-0.45769,-0.29285,-1.17265,981.97000,27.12000,293.80000
-0.04209,0.03283,1.00175,-0.00025,0.00001,-0.00056,-0.45243,-0.29815,-1.17865,981.99000,27.12000,293.64000
-0.03907,0.03179,1.00167,-0.00025,0.00001,-0.00056,-0.45208,-0.29264,-1.16950,982.01000,27.12000,293.51000
-0.04106,0.03178,1.00070,-0.00025,0.00001,0.00044,-0.45763,-0.29281,-1.16963,981.99000,27.12000,293.64000
-0.04004,0.03173,0.99968,0.00075,0.00001,0.00044,-0.45753,-0.29537,-1.16061,982.00000,27.12000,293.57000
-0.04104,0.03175,0.99970,-0.00025,0.00001,0.00044,-0.47128,-0.29570,-1.15488,981.99000,27.12000,293.69000
-0.04004,0.03173,0.99968,-0.00025,0.00001,0.00044,-0.45212,-0.29793,-1.16355,981.95000,27.12000,293.99000
-0.04005,0.03177,1.00068,-0.00025,0.00001,-0.00056,-0.45448,-0.29247,-1.15145,982.01000,27.12000,293.54000
-0.04007,0.03180,1.00169,-0.00025,0.00001,-0.00056,-0.45226,-0.30066,-1.16661,982.01000,27.12000,293.48000
-0.04102,0.03171,0.99870,0.00075,0.00001,-0.00056,-0.46533,-0.28474,-1.15157,981.95000,27.12000,294.01000
-0.04005,0.03177,1.00068,0.00075,0.00001,0.00044,-0.46533,-0.28474,-1.15157,982.00000,27.12000,293.62000
-0.04008,0.03378,1.00075,-0.00025,0.00001,-0.00056,-0.46039,-0.29025,-1.17267,981.91000,27.12000,294.34000
-0.04004,0.03076,1.00065,-0.00025,0.00001,-0.00056,-0.44588,-0.28941,-1.14216,982.00000,27.12000,293.61000
-0.04004,0.03173,0.99968,-0.00025,0.00001,-0.00056,-0.44304,-0.28139,-1.15103,981.99000,27.12000,293.66000
-0.04004,0.03173,0.99968,0.00075,0.00001,-0.00056,-0.45755,-0.29012,-1.16958,981.99000,27.13000,293.69000
-0.03904,0.03172,0.99967,0.00075,0.00001,-0.00056,-0.46314,-0.28769,-1.17571,982.00000,27.12000,293.56000
-0.03906,0.03276,1.00070,0.00075,0.00001,0.00044,-0.45181,-0.28194,-1.17235,981.98000,27.12000,293.75000
-0.04007,0.03180,1.00169,0.00075,0.00001,-0.00056,-0.45181,-0.28194,-1.17235,981.94000,27.12000,294.13000
-0.04104,0.03175,0.99970,-0.00025,0.00001,-0.00056,-0.44615,-0.28433,-1.16321,981.93000,27.12000,294.14000
-0.04007,0.03277,1.00072,0.00075,0.00001,-0.00056,-0.44358,-0.28702,-1.16923,981.96000,27.12000,293.95000
-0.04107,0.03181,1.00170,0.00075,-0.00099,-0.00056,-0.44075,-0.27900,-1.17810,982.01000,27.12000,293.48000
-0.03907,0.03179,1.00167,0.00075,0.00001,-0.00056,-0.45220,-0.29273,-1.17554,982.03000,27.12000,293.34000
-0.04007,0.03277,1.00072,-0.00025,0.00001,-0.00056,-0.44895,-0.28706,-1.16030,982.00000,27.12000,293.57000
-0.03906,0.03276,1.00070,-0.00025,0.00001,-0.00056,-0.44930,-0.29256,-1.16944,981.95000,27.12000,293.99000
-0.04206,0.03276,0.99975,-0.00025,0.00001,-0.00056,-0.44930,-0.29256,-1.16944,981.94000,27.12000,294.12000
-0.04106,0.03178,1.00070,-0.00025,0.00001,0.00044,-0.45460,-0.29256,-1.15749,982.01000,27.13000,293.49000
-0.04004,0.03076,1.00065,0.00075,0.00001,-0.00056,-0.46312,-0.29293,-1.16673,982.00000,27.13000,293.58000
-0.04009,0.03381,1.00175,0.00075,0.00001,-0.00056,-0.44909,-0.28979,-1.16336,981.94000,27.13000,294.06000
-0.04007,0.03180,1.00169,0.00075,0.00001,0.00044,-0.45761,-0.29806,-1.16065,981.99000,27.12000,293.65000
-0.04007,0.03180,1.00169,0.00075,0.00001,0.00044,-0.44335,-0.28950,-1.15417,981.92000,27.13000,294.29000
-0.03909,0.03380,1.00173,-0.00025,0.00001,-0.00056,-0.45477,-0.29793,-1.15757,981.97000,27.13000,293.79000
-0.04005,0.03274,0.99972,-0.00025,0.00001,-0.00056,-0.45477,-0.29793,-1.15757,981.95000,27.12000,294.01000
-0.04105,0.03275,0.99973,-0.00025,0.00001,-0.00056,-0.45485,-0.29273,-1.16956,982.09000,27.12000,292.82000
-0.04007,0.03180,1.00169,-0.00025,0.00001,0.00044,-0.44087,-0.29487,-1.16024,982.01000,27.12000,293.53000
-0.04007,0.03180,1.00169,-0.00025,0.00001,0.00044,-0.44907,-0.28714,-1.16634,981.93000,27.12000,294.22000
-0.04002,0.03170,0.99868,0.00075,0.00001,0.00044,-0.45175,-0.28979,-1.15738,981.98000,27.12000,293.74000
-0.04008,0.03280,1.00172,-0.00025,0.00001,0.00044,-0.45243,-0.29815,-1.17865,981.98000,27.12000,293.74000
-0.04107,0.03181,1.00170,0.00075,0.00001,-0.00056,-0.45751,-0.28483,-1.17554,982.01000,27.12000,293.47000
-0.04004,0.03076,1.00065,0.00075,0.00001,0.00044,-0.45751,-0.28483,-1.17554,982.03000,27.12000,293.34000
-0.04008,0.03280,1.00172,-0.00025,0.00001,-0.00056,-0.44325,-0.28416,-1.15711,981.98000,27.13000,293.76000
-0.03908,0.03279,1.00170,-0.00025,0.00001,-0.00056,-0.45721,-0.28727,-1.15746,982.01000,27.12000,293.54000
-0.04107,0.03181,1.00170,-0.00025,0.00001,-0.00056,-0.45506,-0.28761,-1.18760,981.96000,27.12000,293.88000
-0.04109,0.03282,1.00174,0.00075,0.00001,-0.00056,-0.45788,-0.29298,-1.18171,982.01000,27.12000,293.49000
-0.04107,0.03278,1.00073,0.00075,0.00001,-0.00056,-0.44918,-0.29248,-1.16340,981.98000,27.12000,293.77000
-0.04005,0.03177,1.00068,0.00075,0.00001,-0.00056,-0.45467,-0.28471,-1.17246,981.99000,27.12000,293.64000
-0.04107,0.03278,1.00073,0.00075,0.00001,-0.00056,-0.45467,-0.28471,-1.17246,982.00000,27.12000,293.61000
-0.04007,0.03277,1.00072,-0.00025,0.00001,-0.00056,-0.46285,-0.29012,-1.15763,982.02000,27.12000,293.41000
-0.04107,0.03181,1.00170,-0.00025,0.00001,-0.00056,-0.45181,-0.28983,-1.16040,982.00000,27.12000,293.62000
-0.04007,0.03277,1.00072,0.00075,0.00001,-0.00056,-0.45471,-0.29000,-1.16650,981.95000,27.12000,294.00000
-0.03907,0.03179,1.00167,0.00075,0.00001,-0.00056,-0.44901,-0.27921,-1.17527,981.99000,27.12000,293.67000
-0.04005,0.03274,0.99972,-0.00025,0.00001,-0.00056,-0.46024,-0.29541,-1.15765,981.99000,27.12000,293.67000
-0.04008,0.03280,1.00172,-0.00025,0.00001,0.00044,-0.45498,-0.29281,-1.17560,982.00000,27.12000,293.56000
-0.04004,0.03076,1.00065,-0.00025,0.00001,-0.00056,-0.45498,-0.29281,-1.17560,982.00000,27.12000,293.62000
-0.04007,0.03277,1.00072,-0.00025,0.00001,-0.00056,-0.46026,-0.29806,-1.15468,982.08000,27.12000,292.90000
-0.04008,0.03280,1.00172,0.00075,0.00001,-0.00056,-0.45206,-0.29000,-1.17248,982.01000,27.12000,293.48000
-0.04007,0.03180,1.00169,0.00075,0.00001,-0.00056,-0.44705,-0.30335,-1.17861,982.02000,27.12000,293.40000
-0.03905,0.03273,0.99970,-0.00025,0.00001,-0.00056,-0.45786,-0.29823,-1.17273,982.03000,27.12000,293.32000
-0.04007,0.03180,1.00169,-0.00025,0.00001,0.00044,-0.44648,-0.30297,-1.15143,981.94000,27.12000,294.13000
-0.03905,0.03176,1.00067,-0.00025,0.00001,-0.00056,-0.45500,-0.30335,-1.16067,981.98000,27.12000,293.77000
-0.04006,0.03374,0.99975,0.00075,0.00001,0.00044,-0.45460,-0.29256,-1.15749,982.02000,27.12000,293.39000
-0.04004,0.03076,1.00065,0.00075,0.00001,-0.00056,-0.43795,-0.29206,-1.15711,982.08000,27.12000,292.90000
-0.03906,0.03276,1.00070,-0.00025,0.00001,-0.00056,-0.43872,-0.30310,-1.17842,981.97000,27.12000,293.84000
-0.03905,0.03176,1.00067,-0.00025,0.00001,0.00044,-0.45204,-0.30314,-1.15155,982.02000,27.12000,293.44000
-0.04005,0.03177,1.00068,0.00075,0.00001,0.00044,-0.44673,-0.30314,-1.16351,981.92000,27.12000,294.29000
-0.04007,0.03180,1.00169,-0.00025,0.00001,0.00044,-0.44099,-0.29496,-1.16627,982.01000,27.12000,293.50000
-0.04206,0.03276,0.99975,0.00075,0.00001,-0.00056,-0.44680,-0.30318,-1.16653,981.96000,27.12000,293.89000
-0.04106,0.03178,1.00070,0.00075,0.00001,-0.00056,-0.45172,-0.29504,-1.14841,981.91000,27.12000,294.32000
-0.04107,0.03181,1.00170,-0.00025,0.00001,-0.00056,-0.45172,-0.29504,-1.14841,981.97000,27.12000,293.84000
-0.04005,0.03177,1.00068,-0.00025,0.00001,-0.00056,-0.44909,-0.29768,-1.15141,982.03000,27.12000,293.34000
-0.04006,0.03080,1.00165,0.00075,0.00001,-0.00056,-0.44642,-0.29504,-1.16036,982.02000,27.12000,293.37000
-0.04005,0.03177,1.00068,-0.00025,0.00001,0.00044,-0.44636,-0.28710,-1.16929,982.01000,27.12000,293.53000
-0.04004,0.03173,0.99968,-0.00025,0.00001,-0.00056,-0.44642,-0.29504,-1.16036,982.01000,27.12000,293.47000
-0.03907,0.03179,1.00167,-0.00025,0.00001,-0.00056,-0.44905,-0.29239,-1.15736,982.03000,27.12000,293.32000
-0.04106,0.03178,1.00070,0.00075,0.00001,0.00044,-0.43227,-0.29181,-1.15095,981.99000,27.12000,293.68000
-0.04106,0.03178,1.00070,0.00075,0.00001,0.00044,-0.43227,-0.29181,-1.15095,981.92000,27.12000,294.25000
-0.04008,0.03280,1.00172,0.00075,0.00001,0.00044,-0.43739,-0.28379,-1.14189,982.04000,27.12000,293.20000
-0.04007,0.03180,1.00169,-0.00025,0.00001,0.00044,-0.44321,-0.28677,-1.15111,982.07000,27.12000,292.97000
-0.03905,0.03273,0.99970,-0.00025,0.00001,-0.00056,-0.43766,-0.28660,-1.15099,981.98000,27.12000,293.77000
-0.04004,0.03076,1.00065,0.00075,0.00001,-0.00056,-0.43488,-0.28652,-1.15092,981.97000,27.12000,293.87000
-0.04005,0.03177,1.00068,0.00075,0.00001,0.00044,-0.44089,-0.29752,-1.15726,981.98000,27.12000,293.79000
-0.04003,0.03073,0.99965,-0.00025,0.00001,-0.00056,-0.43519,-0.29462,-1.15407,981.99000,27.12000,293.70000
-0.04106,0.03178,1.00070,0.00075,0.00001,-0.00056,-0.43519,-0.29462,-1.15407,981.96000,27.12000,293.96000
-0.04006,0.03080,1.00165,-0.00025,0.00001,0.00044,-0.43791,-0.29466,-1.15111,981.90000,27.12000,294.46000
-0.04106,0.03178,1.00070,0.00075,0.00001,-0.00056,-0.42384,-0.28623,-1.15369,982.12000,27.12000,292.59000
-0.04005,0.03177,1.00068,0.00075,0.00001,-0.00056,-0.43530,-0.29206,-1.16309,981.96000,27.12000,293.89000
-0.04005,0.03177,1.00068,-0.00025,0.00001,-0.00056,-0.43517,-0.29198,-1.15705,982.00000,27.12000,293.58000
-0.04105,0.03275,0.99973,0.00075,0.00001,-0.00056,-0.44102,-0.29760,-1.16330,982.02000,27.12000,293.42000
-0.04005,0.03177,1.00068,-0.00025,0.00001,0.00044,-0.43791,-0.29466,-1.15111,982.00000,27.12000,293.61000
-0.04105,0.03275,0.99973,0.00075,0.00001,-0.00056,-0.43791,-0.29466,-1.15111,982.00000,27.12000,293.55000
-0.03905,0.03176,1.00067,0.00075,0.00001,-0.00056,-0.44644,-0.29768,-1.15738,982.01000,27.12000,293.50000
-0.03905,0.03176,1.00067,-0.00025,0.00001,-0.00056,-0.44373,-0.30553,-1.14839,982.01000,27.12000,293.46000
-0.04005,0.03274,0.99972,0.00075,0.00001,-0.00056,-0.43834,-0.30285,-1.16030,982.00000,27.12000,293.58000
-0.03905,0.03273,0.99970,0.00075,0.00001,-0.00056,-0.44677,-0.30054,-1.16950,982.04000,27.12000,293.23000
-0.04004,0.03173,0.99968,0.00075,0.00001,-0.00056,-0.44387,-0.30037,-1.16340,981.96000,27.12000,293.88000
-0.03907,0.03179,1.00167,-0.00025,0.00001,-0.00056,-0.44999,-0.30881,-1.17875,981.97000,27.12000,293.83000
-0.04109,0.03282,1.00174,-0.00025,0.00001,-0.00056,-0.44999,-0.30881,-1.17875,982.05000,27.12000,293.13000
-0.04008,0.03280,1.00172,0.00075,0.00001,-0.00056,-0.44139,-0.30575,-1.16946,981.92000,27.12000,294.27000
-0.04005,0.03177,1.00068,0.00075,0.00001,-0.00056,-0.44924,-0.30041,-1.15447,982.04000,27.12000,293.26000
-0.04004,0.03173,0.99968,0.00075,0.00001,-0.00056,-0.44385,-0.30562,-1.15443,982.04000,27.12000,293.23000
-0.04104,0.03175,0.99970,0.00075,0.00001,-0.00056,-0.44070,-0.29739,-1.14820,981.98000,27.12000,293.77000
-0.04004,0.03076,1.00065,-0.00025,0.00001,-0.00056,-0.44377,-0.30293,-1.15439,981.97000,27.12000,293.87000
-0.04004,0.03173,0.99968,-0.00025,0.00001,-0.00056,-0.45251,-0.31662,-1.15478,981.99000,27.12000,293.63000
-0.04007,0.03277,1.00072,0.00075,0.00001,-0.00056,-0.45251,-0.31662,-1.15478,982.07000,27.12000,293.02000
-0.04004,0.03076,1.00065,-0.00025,0.00001,0.00044,-0.44986,-0.30873,-1.17271,981.93000,27.12000,294.21000
-0.04107,0.03278,1.00073,-0.00025,0.00001,0.00044,-0.46337,-0.30099,-1.16686,981.95000,27.12000,294.02000
-0.04106,0.03178,1.00070,0.00075,0.00001,-0.00056,-0.45440,-0.29768,-1.13945,981.98000,27.12000,293.78000
-0.04005,0.03177,1.00068,0.00075,0.00001,0.00044,-0.46264,-0.29524,-1.13960,981.98000,27.12000,293.71000
-0.04107,0.03278,1.00073,0.00075,0.00001,0.00044,-0.45701,-0.28449,-1.15138,981.99000,27.13000,293.65000
-0.04004,0.03173,0.99968,-0.00025,0.00001,-0.00056,-0.45168,-0.28975,-1.15436,981.99000,27.12000,293.64000
-0.03905,0.03176,1.00067,-0.00025,0.00001,0.00044,-0.45168,-0.28975,-1.15436,981.97000,27.12000,293.81000
-0.04105,0.03275,0.99973,0.00075,0.00001,-0.00056,-0.44636,-0.29500,-1.15734,981.98000,27.12000,293.77000
-0.03907,0.03179,1.00167,-0.00025,0.00001,-0.00056,-0.46009,-0.30057,-1.14264,982.07000,27.12000,292.95000
-0.04004,0.03173,0.99968,-0.00025,0.00001,-0.00056,-0.44884,-0.29751,-1.13933,982.07000,27.12000,292.98000
-0.04007,0.03277,1.00072,-0.00025,0.00001,-0.00056,-0.44609,-0.28429,-1.16019,981.97000,27.12000,293.85000
-0.04106,0.03178,1.00070,0.00075,0.00001,-0.00056,-0.44655,-0.29512,-1.16640,982.02000,27.12000,293.38000
-0.04005,0.03177,1.00068,0.00075,0.00001,0.00044,-0.45460,-0.29256,-1.15749,981.96000,27.11000,293.94000
-0.04107,0.03278,1.00073,0.00075,0.00001,0.00044,-0.45460,-0.29256,-1.15749,981.96000,27.12000,293.96000
-0.04005,0.03177,1.00068,0.00075,0.00001,-0.00056,-0.44930,-0.30045,-1.15749,981.99000,27.12000,293.65000
-0.04007,0.03277,1.00072,-0.00025,0.00001,-0.00056,-0.44648,-0.30297,-1.15143,981.98000,27.11000,293.79000
-0.04005,0.03177,1.00068,-0.00025,0.00001,0.00044,-0.44932,-0.30310,-1.15451,981.99000,27.11000,293.71000
-0.04007,0.03277,1.00072,-0.00025,0.00001,-0.00056,-0.43807,-0.29215,-1.16315,981.97000,27.12000,293.80000
-0.04109,0.03282,1.00174,-0.00025,-0.00099,-0.00056,-0.44655,-0.29512,-1.16640,981.97000,27.12000,293.87000
-0.04106,0.03178,1.00070,0.00075,0.00001,-0.00056,-0.44342,-0.28954,-1.15719,981.97000,27.12000,293.86000
-0.04007,0.03180,1.00169,0.00075,0.00001,-0.00056,-0.44358,-0.30281,-1.14533,981.98000,27.11000,293.75000
-0.04105,0.03275,0.99973,0.00075,0.00001,0.00044,-0.44081,-0.30272,-1.14526,981.96000,27.12000,293.91000
-0.04005,0.03177,1.00068,-0.00025,0.00001,0.00044,-0.43233,-0.29185,-1.15397,982.01000,27.12000,293.45000
-0.04007,0.03180,1.00169,0.00075,0.00001,0.00044,-0.43741,-0.28643,-1.13891,981.98000,27.12000,293.74000
-0.03908,0.03279,1.00170,0.00075,0.00001,0.00044,-0.43470,-0.27850,-1.15382,981.93000,27.12000,294.16000
-0.03905,0.03176,1.00067,0.00075,0.00001,-0.00056,-0.45694,-0.29234,-1.13641,981.97000,27.12000,293.82000
-0.04106,0.03081,1.00167,0.00075,0.00001,0.00044,-0.44680,-0.29529,-1.17848,981.96000,27.12000,293.96000
-0.04008,0.03280,1.00172,0.00075,0.00001,-0.00056,-0.44642,-0.29504,-1.16036,981.90000,27.12000,294.41000
-0.03905,0.03176,1.00067,-0.00025,0.00001,-0.00056,-0.44642,-0.29504,-1.16036,981.93000,27.12000,294.21000
-0.03904,0.03172,0.99967,0.00075,0.00001,-0.00056,-0.45235,-0.30335,-1.16665,981.96000,27.12000,293.93000
-0.04104,0.03175,0.99970,0.00075,0.00001,-0.00056,-0.44356,-0.30016,-1.14830,982.01000,27.11000,293.50000
-0.04109,0.03282,1.00174,0.00075,0.00001,0.00044,-0.43509,-0.29718,-1.14505,981.98000,27.11000,293.75000
-0.03907,0.03179,1.00167,0.00075,0.00001,-0.00056,-0.43749,-0.28912,-1.13895,981.96000,27.12000,293.88000
-0.04008,0.03280,1.00172,0.00075,0.00001,-0.00056,-0.43494,-0.29445,-1.14199,982.00000,27.11000,293.58000
-0.04008,0.03280,1.00172,0.00075,0.00001,-0.00056,-0.44939,-0.29525,-1.16948,982.05000,27.11000,293.14000
-0.04104,0.03175,0.99970,-0.00025,0.00001,-0.00056,-0.44939,-0.29525,-1.16948,982.01000,27.12000,293.53000
-0.04005,0.03177,1.00068,0.00075,0.00001,-0.00056,-0.44104,-0.29235,-1.17227,982.02000,27.12000,293.38000
-0.04005,0.03274,0.99972,0.00075,0.00001,-0.00056,-0.43774,-0.28140,-1.16298,981.91000,27.12000,294.36000
-0.04009,0.03183,1.00269,0.00075,0.00001,-0.00056,-0.43818,-0.28958,-1.17217,981.96000,27.11000,293.90000
-0.04008,0.03378,1.00075,-0.00025,0.00001,0.00044,-0.44936,-0.29260,-1.17246,981.99000,27.12000,293.66000
-0.04005,0.03177,1.00068,-0.00025,0.00001,-0.00056,-0.44665,-0.30046,-1.16346,981.94000,27.12000,294.11000
-0.04005,0.03274,0.99972,-0.00025,0.00001,-0.00056,-0.44653,-0.29248,-1.16938,981.97000,27.11000,293.85000
-0.04009,0.03381,1.00175,0.00075,0.00001,-0.00056,-0.44653,-0.29248,-1.16938,981.97000,27.12000,293.83000
-0.04007,0.03180,1.00169,-0.00025,0.00001,-0.00056,-0.43840,-0.30289,-1.16332,982.01000,27.12000,293.45000
-0.04004,0.03173,0.99968,-0.00025,0.00001,0.00044,-0.43807,-0.29215,-1.16315,981.99000,27.12000,293.71000
-0.03906,0.03276,1.00070,-0.00025,0.00001,0.00044,-0.44108,-0.29764,-1.16632,982.05000,27.11000,293.15000
-0.04107,0.03181,1.00170,-0.00025,0.00001,-0.00056,-0.44131,-0.29517,-1.18137,981.98000,27.12000,293.75000
-0.03909,0.03380,1.00173,-0.00025,0.00001,0.00044,-0.44936,-0.29260,-1.17246,982.00000,27.12000,293.56000
-0.04107,0.03278,1.00073,-0.00025,0.00001,-0.00056,-0.43822,-0.30277,-1.15426,981.96000,27.12000,293.91000
-0.04106,0.03178,1.00070,-0.00025,0.00001,-0.00056,-0.43822,-0.30277,-1.15426,982.02000,27.12000,293.45000
-0.03904,0.03075,1.00064,0.00075,0.00001,-0.00056,-0.42450,-0.29983,-1.16598,981.93000,27.11000,294.20000
-0.04103,0.03074,0.99967,0.00075,0.00001,-0.00056,-0.44137,-0.29521,-1.18439,982.00000,27.12000,293.57000
-0.04102,0.03171,0.99870,0.00075,0.00001,-0.00056,-0.44611,-0.28693,-1.15721,981.96000,27.12000,293.94000
-0.04008,0.03280,1.00172,-0.00025,0.00001,-0.00056,-0.44653,-0.29248,-1.16938,981.97000,27.12000,293.81000
-0.04005,0.03177,1.00068,0.00075,0.00001,-0.00056,-0.44644,-0.29768,-1.15738,981.99000,27.11000,293.67000
-0.03910,0.03283,1.00270,0.00075,0.00001,-0.00056,-0.44102,-0.29760,-1.16330,981.98000,27.12000,293.79000
-0.04007,0.03277,1.00072,0.00075,0.00001,-0.00056,-0.44102,-0.29760,-1.16330,981.99000,27.11000,293.64000
-0.04004,0.03173,0.99968,-0.00025,0.00001,-0.00056,-0.44129,-0.30042,-1.17240,981.97000,27.12000,293.81000
-0.04004,0.03173,0.99968,0.00075,0.00001,-0.00056,-0.44671,-0.30050,-1.16648,981.98000,27.12000,293.72000
-0.04005,0.03177,1.00068,0.00075,0.00001,-0.00056,-0.44671,-0.29261,-1.17844,981.97000,27.11000,293.80000
-0.04007,0.03180,1.00169,0.00075,0.00001,0.00044,-0.44669,-0.29785,-1.16946,981.91000,27.12000,294.38000
-0.03905,0.03176,1.00067,0.00075,0.00001,-0.00056,-0.44369,-0.29235,-1.16629,981.96000,27.11000,293.91000
-0.03904,0.03075,1.00064,-0.00025,0.00001,-0.00056,-0.43870,-0.30046,-1.18140,981.90000,27.12000,294.39000
-0.04107,0.03278,1.00073,-0.00025,0.00001,-0.00056,-0.43870,-0.30046,-1.18140,982.01000,27.11000,293.45000
-0.04106,0.03178,1.00070,-0.00025,0.00001,-0.00056,-0.44657,-0.29777,-1.16342,981.95000,27.12000,294.04000
-0.03902,0.03072,0.99963,-0.00025,0.00001,-0.00056,-0.46003,-0.29264,-1.15157,982.00000,27.11000,293.60000
-0.03907,0.03179,1.00167,0.00075,0.00001,-0.00056,-0.43845,-0.29240,-1.18127,982.04000,27.12000,293.27000
-0.04007,0.03277,1.00072,0.00075,0.00001,-0.00056,-0.43302,-0.30021,-1.17523,982.03000,27.11000,293.36000
-0.03904,0.03075,1.00064,-0.00025,0.00001,0.00044,-0.44118,-0.29508,-1.17533,981.90000,27.11000,294.47000
-0.04005,0.03274,0.99972,-0.00025,0.00001,-0.00056,-0.43571,-0.29761,-1.17525,981.99000,27.12000,293.69000
-0.04004,0.03173,0.99968,-0.00025,0.00001,0.00044,-0.43571,-0.29761,-1.17525,982.02000,27.12000,293.37000
-0.04005,0.03274,0.99972,-0.00025,0.00001,-0.00056,-0.44632,-0.29760,-1.15134,981.96000,27.11000,293.95000
-0.03902,0.03072,0.99963,-0.00025,0.00001,-0.00056,-0.44903,-0.28975,-1.16034,981.91000,27.12000,294.31000
-0.04005,0.03177,1.00068,-0.00025,0.00001,-0.00056,-0.44338,-0.29214,-1.15120,981.98000,27.12000,293.75000
-0.04005,0.03177,1.00068,-0.00025,0.00001,-0.00056,-0.44338,-0.29214,-1.15120,981.90000,27.12000,294.43000
-0.04208,0.03182,1.00172,0.00075,0.00001,-0.00056,-0.42686,-0.29437,-1.15388,982.04000,27.11000,293.24000
-0.04004,0.03173,0.99968,-0.00025,0.00001,-0.00056,-0.44916,-0.29772,-1.15443,982.05000,27.11000,293.19000
-0.04005,0.03274,0.99972,-0.00025,0.00001,-0.00056,-0.44916,-0.29772,-1.15443,981.98000,27.11000,293.79000
-0.04006,0.03080,1.00165,-0.00025,0.00001,-0.00056,-0.44077,-0.29743,-1.15122,982.03000,27.12000,293.28000
-0.03904,0.03075,1.00064,0.00075,0.00001,0.00044,-0.44358,-0.30281,-1.14533,981.93000,27.12000,294.20000
-0.04109,0.03184,1.00270,-0.00025,0.00001,0.00044,-0.44089,-0.29752,-1.15726,982.01000,27.11000,293.48000
-0.03910,0.03283,1.00270,-0.00025,0.00001,0.00044,-0.44646,-0.30033,-1.15441,981.98000,27.11000,293.74000
-0.03804,0.03272,0.99968,-0.00025,0.00001,-0.00056,-0.45193,-0.29781,-1.15449,981.94000,27.12000,294.07000
-0.04004,0.03173,0.99968,0.00075,0.00001,0.00044,-0.44085,-0.29223,-1.16321,981.95000,27.11000,294.01000
-0.04007,0.03180,1.00169,0.00075,0.00001,0.00044,-0.44035,-0.29189,-1.13906,982.00000,27.11000,293.61000
-0.04007,0.03180,1.00169,-0.00025,0.00001,-0.00056,-0.45170,-0.30028,-1.13943,981.97000,27.12000,293.81000
-0.04005,0.03177,1.00068,0.00075,0.00001,-0.00056,-0.44653,-0.30037,-1.15743,982.01000,27.12000,293.54000
-0.04107,0.03181,1.00170,0.00075,0.00001,-0.00056,-0.44928,-0.29781,-1.16047,981.96000,27.12000,293.96000
-0.03908,0.03279,1.00170,0.00075,0.00001,-0.00056,-0.45452,-0.28987,-1.15744,982.00000,27.11000,293.57000
-0.04007,0.03277,1.00072,-0.00025,0.00001,-0.00056,-0.44062,-0.29470,-1.14816,981.97000,27.11000,293.84000
-0.04107,0.03181,1.00170,-0.00025,0.00001,-0.00056,-0.43757,-0.29181,-1.13899,981.97000,27.12000,293.87000
-0.04104,0.03175,0.99970,-0.00025,0.00001,0.00044,-0.43791,-0.29466,-1.15111,981.96000,27.11000,293.94000
-0.03905,0.03273,0.99970,0.00075,0.00001,0.00044,-0.42958,-0.29441,-1.15093,982.01000,27.11000,293.49000
-0.04005,0.03274,0.99972,-0.00025,0.00001,-0.00056,-0.44043,-0.27879,-1.16300,982.06000,27.11000,293.11000
-0.04007,0.03180,1.00169,-0.00025,0.00001,-0.00056,-0.44325,-0.28416,-1.15711,981.96000,27.12000,293.95000
-0.04005,0.03177,1.00068,-0.00025,0.00001,0.00044,-0.43745,-0.28383,-1.14491,982.01000,27.11000,293.53000
-0.04008,0.03280,1.00172,0.00075,0.00001,-0.00056,-0.43714,-0.28362,-1.12981,982.07000,27.11000,292.99000
-0.04004,0.03173,0.99968,-0.00025,0.00001,-0.00056,-0.43498,-0.29185,-1.14799,982.00000,27.11000,293.57000
-0.04007,0.03277,1.00072,0.00075,0.00001,-0.00056,-0.44031,-0.29449,-1.13306,981.96000,27.11000,293.95000
-0.04004,0.03173,0.99968,-0.00025,-0.00099,-0.00056,-0.44031,-0.29449,-1.13306,981.93000,27.12000,294.18000
-0.04008,0.03280,1.00172,-0.00025,0.00001,0.00044,-0.44367,-0.28971,-1.16927,981.98000,27.11000,293.74000
-0.04008,0.03280,1.00172,-0.00025,0.00001,-0.00056,-0.45152,-0.28437,-1.15428,982.04000,27.11000,293.27000
-0.04007,0.03180,1.00169,0.00075,0.00001,-0.00056,-0.44070,-0.28950,-1.16015,982.01000,27.12000,293.47000
-0.04005,0.03177,1.00068,0.00075,0.00001,0.00044,-0.44364,-0.30285,-1.14835,982.04000,27.11000,293.25000
-0.04104,0.03175,0.99970,0.00075,0.00001,0.00044,-0.44598,-0.29474,-1.13922,981.97000,27.12000,293.83000
-0.03906,0.03276,1.00070,-0.00025,0.00001,-0.00056,-0.44075,-0.28690,-1.16615,982.04000,27.11000,293.22000
-0.04105,0.03077,1.00067,0.00075,0.00001,-0.00056,-0.44075,-0.28690,-1.16615,981.99000,27.11000,293.68000
-0.04005,0.03177,1.00068,-0.00025,0.00001,0.00044,-0.44903,-0.28975,-1.16034,982.12000,27.11000,292.57000
-0.03908,0.03279,1.00170,-0.00025,0.00001,0.00044,-0.44354,-0.28962,-1.16323,981.93000,27.11000,294.14000
-0.04007,0.03180,1.00169,-0.00025,0.00001,-0.00056,-0.42939,-0.29429,-1.14187,981.94000,27.11000,294.10000
-0.04005,0.03274,0.99972,-0.00025,0.00001,-0.00056,-0.44551,-0.28126,-1.13599,981.97000,27.11000,293.83000
-0.04007,0.03277,1.00072,-0.00025,0.00001,-0.00056,-0.44574,-0.28668,-1.13910,981.92000,27.11000,294.26000
-0.04105,0.03275,0.99973,-0.00025,0.00001,-0.00056,-0.43152,-0.28341,-1.12666,981.96000,27.11000,293.92000
-0.04007,0.03180,1.00169,0.00075,0.00001,-0.00056,-0.43152,-0.28341,-1.12666,982.02000,27.11000,293.42000
-0.04005,0.03274,0.99972,-0.00025,0.00001,-0.00056,-0.44045,-0.28933,-1.14807,982.01000,27.12000,293.47000
-0.04109,0.03282,1.00174,-0.00025,-0.00099,-0.00056,-0.44311,-0.28144,-1.15405,982.03000,27.12000,293.36000
-0.03906,0.03276,1.00070,-0.00025,0.00001,0.00044,-0.44640,-0.30029,-1.15139,982.01000,27.11000,293.49000
-0.04109,0.03282,1.00174,0.00075,0.00001,-0.00056,-0.43745,-0.28383,-1.14491,981.99000,27.12000,293.71000
-0.04004,0.03173,0.99968,-0.00025,0.00001,0.00044,-0.44653,-0.29248,-1.16938,982.02000,27.11000,293.41000
-0.04007,0.03180,1.00169,0.00075,0.00001,-0.00056,-0.46312,-0.30083,-1.15478,982.03000,27.11000,293.35000
-0.04005,0.03177,1.00068,-0.00025,0.00001,-0.00056,-0.46312,-0.30083,-1.15478,982.05000,27.11000,293.15000
-0.03904,0.03075,1.00064,-0.00025,0.00001,-0.00056,-0.44081,-0.29483,-1.15722,981.99000,27.11000,293.65000
-0.04008,0.03280,1.00172,-0.00025,0.00001,0.00044,-0.44400,-0.30046,-1.16944,982.05000,27.11000,293.19000
-0.04005,0.03177,1.00068,-0.00025,0.00001,-0.00056,-0.43843,-0.29765,-1.17229,981.94000,27.11000,294.13000
-0.04107,0.03181,1.00170,0.00075,0.00001,-0.00056,-0.44903,-0.28975,-1.16034,981.96000,27.11000,293.94000
-0.04106,0.03178,1.00070,-0.00025,0.00001,-0.00056,-0.44102,-0.29760,-1.16330,982.08000,27.11000,292.92000
-0.04007,0.03180,1.00169,-0.00025,0.00001,-0.00056,-0.44690,-0.30062,-1.17554,982.04000,27.11000,293.22000
-0.04004,0.03076,1.00065,-0.00025,0.00001,0.00044,-0.44690,-0.30062,-1.17554,982.00000,27.11000,293.59000
-0.03905,0.03176,1.00067,-0.00025,0.00001,-0.00056,-0.44419,-0.30848,-1.16655,982.03000,27.11000,293.36000
-0.04005,0.03274,0.99972,0.00075,0.00001,-0.00056,-0.44120,-0.29773,-1.17236,981.98000,27.11000,293.77000
-0.04008,0.03280,1.00172,0.00075,0.00001,0.00044,-0.44924,-0.29252,-1.16642,982.00000,27.11000,293.59000
-0.04004,0.03173,0.99968,-0.00025,0.00001,-0.00056,-0.43292,-0.30277,-1.16621,981.95000,27.11000,294.04000
-0.04007,0.03277,1.00072,-0.00025,0.00001,-0.00056,-0.44360,-0.29756,-1.15430,982.00000,27.11000,293.57000
-0.04007,0.03277,1.00072,0.00075,0.00001,-0.00056,-0.44936,-0.30050,-1.16051,981.99000,27.11000,293.64000
-0.04005,0.03177,1.00068,-0.00025,0.00001,-0.00056,-0.44936,-0.30050,-1.16051,982.00000,27.11000,293.55000
-0.04102,0.03171,0.99870,0.00075,0.00001,0.00044,-0.43542,-0.29215,-1.16913,981.99000,27.11000,293.69000
-0.04109,0.03184,1.00270,0.00075,0.00001,-0.00056,-0.43528,-0.29731,-1.15411,982.01000,27.11000,293.45000
-0.04009,0.03183,1.00269,0.00075,0.00001,-0.00056,-0.42997,-0.29731,-1.16607,981.90000,27.11000,294.40000
-0.04106,0.03178,1.00070,0.00075,0.00001,0.00044,-0.44097,-0.30020,-1.15730,982.08000,27.11000,292.87000
-0.03905,0.03176,1.00067,0.00075,0.00001,0.00044,-0.44381,-0.29244,-1.17233,982.02000,27.11000,293.43000
-0.04106,0.03178,1.00070,0.00075,0.00001,0.00044,-0.43026,-0.30277,-1.17219,981.93000,27.11000,294.16000
-0.04005,0.03177,1.00068,-0.00025,0.00001,0.00044,-0.43026,-0.30277,-1.17219,982.02000,27.11000,293.38000
-0.03906,0.03276,1.00070,0.00075,0.00001,-0.00056,-0.43586,-0.29244,-1.19026,981.97000,27.12000,293.85000
-0.03906,0.03276,1.00070,-0.00025,0.00001,-0.00056,-0.44118,-0.29508,-1.17533,981.99000,27.11000,293.70000
-0.03805,0.03174,1.00065,0.00075,0.00001,-0.00056,-0.44444,-0.30864,-1.17863,982.02000,27.12000,293.37000
-0.03905,0.03273,0.99970,-0.00025,0.00001,-0.00056,-0.43279,-0.30269,-1.16017,981.91000,27.11000,294.32000
-0.03905,0.03176,1.00067,-0.00025,0.00001,-0.00056,-0.42173,-0.29975,-1.16592,981.98000,27.11000,293.73000
-0.04007,0.03277,1.00072,0.00075,0.00001,0.00044,-0.42989,-0.29463,-1.16602,982.05000,27.11000,293.12000
-0.03806,0.03275,1.00068,-0.00025,0.00001,-0.00056,-0.42989,-0.29463,-1.16602,981.97000,27.11000,293.87000
-0.03907,0.03179,1.00167,-0.00025,0.00001,0.00044,-0.44655,-0.29512,-1.16640,982.04000,27.11000,293.25000
-0.04008,0.03280,1.00172,-0.00025,0.00001,-0.00056,-0.42484,-0.30269,-1.17811,982.06000,27.11000,293.04000
-0.04005,0.03274,0.99972,-0.00025,0.00001,-0.00056,-0.42935,-0.28900,-1.14782,981.98000,27.12000,293.73000
-0.04107,0.03278,1.00073,-0.00025,0.00001,0.00044,-0.42724,-0.29463,-1.17200,981.92000,27.11000,294.24000
-0.04007,0.03277,1.00072,-0.00025,0.00001,-0.00056,-0.43563,-0.29492,-1.17521,982.02000,27.11000,293.42000
-0.04004,0.03173,0.99968,0.00075,0.00001,-0.00056,-0.44073,-0.28425,-1.16913,982.00000,27.11000,293.55000
-0.04005,0.03177,1.00068,0.00075,0.00001,-0.00056,-0.44077,-0.28165,-1.17512,982.01000,27.11000,293.50000
-0.03909,0.03182,1.00267,0.00075,0.00001,-0.00056,-0.43244,-0.28140,-1.17493,982.02000,27.11000,293.43000
-0.04007,0.03277,1.00072,0.00075,0.00001,-0.00056,-0.44659,-0.29252,-1.17240,981.97000,27.11000,293.84000
-0.04005,0.03274,0.99972,-0.00025,0.00001,-0.00056,-0.43818,-0.28958,-1.17217,982.04000,27.11000,293.28000
-0.03904,0.03172,0.99967,0.00075,0.00001,-0.00056,-0.43816,-0.28694,-1.17514,982.01000,27.11000,293.51000
-0.03905,0.03176,1.00067,0.00075,0.00001,0.00044,-0.44369,-0.28446,-1.17825,981.98000,27.11000,293.73000
-0.03906,0.03276,1.00070,-0.00025,0.00001,-0.00056,-0.44338,-0.28425,-1.16315,982.05000,27.11000,293.12000
-0.04005,0.03274,0.99972,-0.00025,0.00001,-0.00056,-0.43843,-0.28975,-1.18425,981.99000,27.11000,293.68000
-0.04004,0.03173,0.99968,-0.00025,0.00001,-0.00056,-0.43843,-0.28975,-1.18425,981.94000,27.11000,294.11000
-0.03905,0.03176,1.00067,0.00075,0.00001,-0.00056,-0.44398,-0.29781,-1.17242,981.98000,27.11000,293.74000
-0.04007,0.03180,1.00169,0.00075,0.00001,-0.00056,-0.45258,-0.29298,-1.19366,982.03000,27.11000,293.29000
-0.04005,0.03177,1.00068,0.00075,0.00001,0.00044,-0.44124,-0.29513,-1.17835,982.02000,27.11000,293.43000
-0.04105,0.03077,1.00067,0.00075,0.00001,-0.00056,-0.44137,-0.30310,-1.17244,982.03000,27.11000,293.32000
-0.03905,0.03176,1.00067,-0.00025,0.00001,-0.00056,-0.44414,-0.30319,-1.17250,981.89000,27.11000,294.53000
-0.04005,0.03177,1.00068,0.00075,0.00001,-0.00056,-0.43830,-0.29756,-1.16625,981.98000,27.11000,293.73000
-0.04005,0.03177,1.00068,-0.00025,0.00001,-0.00056,-0.43830,-0.29756,-1.16625,981.99000,27.11000,293.69000
-0.04004,0.03173,0.99968,0.00075,0.00001,-0.00056,-0.44949,-0.30058,-1.16655,982.00000,27.11000,293.55000
-0.04005,0.03177,1.00068,-0.00025,0.00001,-0.00056,-0.44081,-0.29483,-1.15722,981.94000,27.11000,294.09000
-0.03907,0.03179,1.00167,-0.00025,0.00001,-0.00056,-0.44632,-0.28971,-1.16330,981.97000,27.11000,293.86000
-0.03905,0.03176,1.00067,-0.00025,0.00001,-0.00056,-0.44918,-0.28458,-1.17535,981.99000,27.11000,293.68000
-0.04005,0.03274,0.99972,0.00075,0.00001,-0.00056,-0.44404,-0.29785,-1.17544,981.99000,27.11000,293.65000
-0.03905,0.03176,1.00067,0.00075,0.00001,-0.00056,-0.44388,-0.29248,-1.17535,981.99000,27.11000,293.66000
-0.04005,0.03177,1.00068,-0.00025,0.00001,-0.00056,-0.44388,-0.29248,-1.17535,982.06000,27.11000,293.08000
-0.04107,0.03278,1.00073,0.00075,0.00001,-0.00056,-0.44379,-0.28979,-1.17531,981.97000,27.11000,293.86000
-0.03907,0.03376,1.00073,-0.00025,0.00001,-0.00056,-0.44640,-0.28450,-1.17529,981.98000,27.11000,293.77000
-0.04105,0.03275,0.99973,0.00075,0.00001,-0.00056,-0.44628,-0.28442,-1.16925,981.92000,27.11000,294.23000
-0.04005,0.03177,1.00068,0.00075,0.00001,-0.00056,-0.44064,-0.28156,-1.16908,982.11000,27.11000,292.62000
-0.03907,0.03179,1.00167,-0.00025,0.00001,-0.00056,-0.43528,-0.28942,-1.16607,981.88000,27.11000,294.58000
-0.04007,0.03277,1.00072,-0.00025,0.00001,0.00044,-0.44630,-0.28706,-1.16627,981.95000,27.11000,293.98000
-0.04007,0.03277,1.00072,-0.00025,0.00001,-0.00056,-0.44630,-0.28706,-1.16627,982.04000,27.11000,293.23000
-0.03904,0.03172,0.99967,0.00075,0.00001,-0.00056,-0.44054,-0.27623,-1.17202,982.00000,27.11000,293.62000
-0.04007,0.03277,1.00072,0.00075,0.00001,-0.00056,-0.44031,-0.28660,-1.14501,982.01000,27.11000,293.48000
-0.03907,0.03179,1.00167,0.00075,0.00001,-0.00056,-0.44675,-0.29789,-1.17248,981.98000,27.11000,293.76000
-0.03907,0.03179,1.00167,0.00075,0.00001,0.00044,-0.44333,-0.28685,-1.15715,981.96000,27.11000,293.92000
-0.03906,0.03276,1.00070,0.00075,0.00001,-0.00056,-0.45170,-0.28450,-1.16334,982.03000,27.11000,293.36000
-0.04005,0.03177,1.00068,0.00075,0.00001,0.00044,-0.45674,-0.27379,-1.15423,981.98000,27.11000,293.78000
-0.04008,0.03378,1.00075,-0.00025,0.00001,0.00044,-0.45674,-0.27379,-1.15423,981.95000,27.11000,293.99000
-0.04004,0.03173,0.99968,-0.00025,0.00001,-0.00056,-0.44304,-0.27350,-1.16298,981.99000,27.11000,293.70000
-0.04008,0.03280,1.00172,-0.00025,0.00001,-0.00056,-0.44671,-0.29261,-1.17844,981.98000,27.11000,293.71000
-0.04106,0.03178,1.00070,0.00075,0.00001,-0.00056,-0.44350,-0.29223,-1.15724,981.99000,27.11000,293.64000
-0.03904,0.03075,1.00064,-0.00025,0.00001,-0.00056,-0.42722,-0.29198,-1.17498,981.95000,27.11000,294.01000
-0.03904,0.03172,0.99967,-0.00025,0.00001,-0.00056,-0.44033,-0.28135,-1.15398,982.03000,27.11000,293.30000
-0.04107,0.03181,1.00170,-0.00025,0.00001,-0.00056,-0.44294,-0.26817,-1.16591,981.92000,27.11000,294.24000
-0.04007,0.03277,1.00072,0.00075,0.00001,-0.00056,-0.44294,-0.26817,-1.16591,981.98000,27.11000,293.72000
-0.04008,0.03280,1.00172,0.00075,0.00001,0.00044,-0.44332,-0.27632,-1.17208,981.97000,27.11000,293.84000
-0.04007,0.03277,1.00072,0.00075,0.00001,0.00044,-0.44588,-0.28152,-1.15411,982.01000,27.11000,293.46000
-0.04106,0.03178,1.00070,0.00075,0.00001,-0.00056,-0.43789,-0.28413,-1.16604,981.98000,27.11000,293.78000
-0.04106,0.03178,1.00070,0.00075,0.00001,-0.00056,-0.44874,-0.28429,-1.15421,982.00000,27.11000,293.55000
-0.04007,0.03180,1.00169,0.00075,0.00001,-0.00056,-0.44576,-0.27354,-1.16002,981.90000,27.11000,294.47000
-0.04006,0.03080,1.00165,0.00075,0.00001,0.00044,-0.44597,-0.27631,-1.16610,981.98000,27.11000,293.79000
-0.04007,0.03277,1.00072,0.00075,0.00001,-0.00056,-0.44597,-0.27631,-1.16610,981.99000,27.11000,293.68000
-0.04104,0.03175,0.99970,0.00075,0.00001,-0.00056,-0.46030,-0.28756,-1.17262,982.05000,27.11000,293.19000
-0.04005,0.03274,0.99972,0.00075,0.00001,-0.00056,-0.45172,-0.29504,-1.14841,982.11000,27.11000,292.67000
-0.04005,0.03177,1.00068,0.00075,0.00001,-0.00056,-0.45390,-0.28156,-1.13920,982.01000,27.11000,293.50000
-0.04005,0.03177,1.00068,-0.00025,0.00001,-0.00056,-0.44323,-0.28941,-1.14813,981.99000,27.11000,293.68000
-0.04106,0.03178,1.00070,0.00075,0.00001,-0.00056,-0.44601,-0.28160,-1.16015,982.04000,27.11000,293.24000
-0.04005,0.03177,1.00068,-0.00025,0.00001,-0.00056,-0.44601,-0.28950,-1.14820,982.03000,27.11000,293.34000
-0.04106,0.03178,1.00070,-0.00025,0.00001,0.00044,-0.44613,-0.28958,-1.15424,981.98000,27.11000,293.77000
-0.04004,0.03173,0.99968,-0.00025,0.00001,-0.00056,-0.43209,-0.28379,-1.15384,981.99000,27.11000,293.65000
-0.04005,0.03177,1.00068,-0.00025,0.00001,-0.00056,-0.44916,-0.28983,-1.16638,982.01000,27.11000,293.48000
-0.04006,0.03080,1.00165,0.00075,0.00001,-0.00056,-0.44097,-0.29231,-1.16925,982.04000,27.11000,293.24000
-0.04008,0.03280,1.00172,0.00075,0.00001,0.00044,-0.43770,-0.28400,-1.15698,982.05000,27.11000,293.13000
-0.03904,0.03075,1.00064,0.00075,0.00001,-0.00056,-0.44072,-0.29214,-1.15717,981.98000,27.11000,293.77000
-0.04007,0.03277,1.00072,-0.00025,0.00001,-0.00056,-0.44052,-0.27359,-1.17500,981.98000,27.11000,293.72000
-0.04008,0.03280,1.00172,-0.00025,0.00001,-0.00056,-0.44110,-0.29240,-1.17529,981.99000,27.11000,293.63000
-0.04005,0.03177,1.00068,-0.00025,0.00001,-0.00056,-0.43832,-0.29231,-1.17523,981.99000,27.11000,293.66000
-0.04106,0.03178,1.00070,-0.00025,0.00001,-0.00056,-0.43801,-0.28421,-1.17208,981.96000,27.10000,293.88000
-0.04005,0.03177,1.00068,-0.00025,0.00001,-0.00056,-0.45417,-0.28437,-1.14830,981.96000,27.11000,293.92000
-0.03905,0.03176,1.00067,0.00075,0.00001,-0.00056,-0.44296,-0.27871,-1.15099,982.07000,27.11000,293.00000
-0.04107,0.03181,1.00170,0.00075,0.00001,0.00044,-0.45168,-0.28975,-1.15436,982.03000,27.11000,293.33000
-0.04007,0.03277,1.00072,0.00075,0.00001,-0.00056,-0.45187,-0.28987,-1.16342,981.95000,27.11000,293.99000
-0.04003,0.03073,0.99965,-0.00025,0.00001,0.00044,-0.43807,-0.29215,-1.16315,982.01000,27.11000,293.46000
-0.04005,0.03177,1.00068,0.00075,0.00001,-0.00056,-0.43807,-0.29215,-1.16315,982.01000,27.11000,293.52000
-0.04103,0.03074,0.99967,0.00075,0.00001,-0.00056,-0.45156,-0.28177,-1.16027,981.94000,27.11000,294.09000
-0.03905,0.03176,1.00067,-0.00025,0.00001,-0.00056,-0.44332,-0.27632,-1.17208,982.01000,27.10000,293.53000
-0.04004,0.03173,0.99968,0.00075,0.00001,-0.00056,-0.44601,-0.28160,-1.16015,981.97000,27.11000,293.87000
-0.04008,0.03378,1.00075,0.00075,0.00001,0.00044,-0.46037,-0.28760,-1.17564,981.98000,27.11000,293.79000
-0.03904,0.03172,0.99967,-0.00025,0.00001,-0.00056,-0.44006,-0.27065,-1.15684,981.96000,27.11000,293.93000
-0.04005,0.03177,1.00068,-0.00025,0.00001,-0.00056,-0.43805,-0.28161,-1.17808,981.95000,27.11000,293.98000
-0.04104,0.03175,0.99970,0.00075,0.00001,-0.00056,-0.43805,-0.28161,-1.17808,981.96000,27.11000,293.96000
-0.03904,0.03172,0.99967,0.00075,0.00001,0.00044,-0.43818,-0.28958,-1.17217,981.99000,27.10000,293.67000
-0.04106,0.03178,1.00070,0.00075,0.00001,-0.00056,-0.45483,-0.29008,-1.17254,981.94000,27.11000,294.12000
-0.04106,0.03178,1.00070,0.00075,0.00001,-0.00056,-0.45137,-0.28164,-1.15121,981.98000,27.11000,293.78000
-0.03806,0.03275,1.00068,0.00075,0.00001,-0.00056,-0.44644,-0.28979,-1.16933,982.06000,27.11000,293.08000
-0.04007,0.03277,1.00072,0.00075,0.00001,-0.00056,-0.43814,-0.29219,-1.16617,981.98000,27.11000,293.71000
-0.04007,0.03180,1.00169,-0.00025,0.00001,-0.00056,-0.45523,-0.29298,-1.18768,982.03000,27.11000,293.31000
-0.03905,0.03176,1.00067,0.00075,-0.00099,0.00044,-0.45523,-0.29298,-1.18768,982.01000,27.11000,293.45000
-0.04008,0.03280,1.00172,0.00075,0.00001,-0.00056,-0.44914,-0.28719,-1.16935,981.91000,27.11000,294.31000
-0.04004,0.03076,1.00065,0.00075,-0.00099,0.00044,-0.44095,-0.28967,-1.17223,982.02000,27.11000,293.38000
-0.04007,0.03180,1.00169,0.00075,0.00001,-0.00056,-0.43849,-0.28980,-1.18727,982.00000,27.11000,293.55000
-0.03905,0.03273,0.99970,-0.00025,0.00001,0.00044,-0.45264,-0.30092,-1.18473,981.96000,27.11000,293.89000
-0.03904,0.03075,1.00064,-0.00025,0.00001,-0.00056,-0.45187,-0.27409,-1.18732,982.00000,27.10000,293.59000
-0.04005,0.03274,0.99972,0.00075,0.00001,0.00044,-0.44108,-0.28975,-1.17827,982.01000,27.11000,293.53000
-0.04005,0.03274,0.99972,-0.00025,0.00001,0.00044,-0.44108,-0.28975,-1.17827,981.97000,27.10000,293.80000
-0.03905,0.03273,0.99970,0.00075,0.00001,-0.00056,-0.44375,-0.29240,-1.16931,982.01000,27.11000,293.50000
-0.04005,0.03274,0.99972,-0.00025,0.00001,0.00044,-0.44081,-0.28694,-1.16917,982.05000,27.11000,293.16000
-0.04005,0.03274,0.99972,-0.00025,0.00001,-0.00056,-0.44365,-0.27917,-1.18420,981.96000,27.11000,293.89000
-0.04005,0.03177,1.00068,-0.00025,0.00001,-0.00056,-0.42436,-0.28921,-1.17487,981.98000,27.11000,293.76000
-0.03902,0.03072,0.99963,-0.00025,0.00001,0.00044,-0.43522,-0.28148,-1.17500,981.97000,27.10000,293.84000
-0.04005,0.03177,1.00068,0.00075,0.00001,0.00044,-0.43211,-0.28644,-1.15086,981.97000,27.11000,293.81000
-0.03906,0.03276,1.00070,0.00075,0.00001,-0.00056,-0.43211,-0.28644,-1.15086,982.03000,27.11000,293.33000
-0.04007,0.03180,1.00169,0.00075,0.00001,-0.00056,-0.43766,-0.27871,-1.16294,981.99000,27.10000,293.69000
-0.03907,0.03179,1.00167,0.00075,0.00001,0.00044,-0.44091,-0.29227,-1.16623,982.04000,27.11000,293.25000
-0.03904,0.03172,0.99967,-0.00025,0.00001,-0.00056,-0.43762,-0.28131,-1.15694,981.98000,27.11000,293.79000
-0.03906,0.03276,1.00070,0.00075,0.00001,0.00044,-0.43513,-0.28669,-1.16300,981.99000,27.11000,293.63000
-0.04107,0.03181,1.00170,0.00075,0.00001,0.00044,-0.43772,-0.28664,-1.15401,982.03000,27.11000,293.36000
-0.04005,0.03177,1.00068,-0.00025,0.00001,-0.00056,-0.44632,-0.28181,-1.17525,981.97000,27.11000,293.84000
-0.04005,0.03177,1.00068,0.00075,0.00001,-0.00056,-0.44632,-0.28181,-1.17525,981.95000,27.11000,294.03000
-0.03906,0.03276,1.00070,0.00075,0.00001,-0.00056,-0.43809,-0.29479,-1.16017,981.96000,27.11000,293.93000
-0.04005,0.03274,0.99972,0.00075,0.00001,-0.00056,-0.43509,-0.28140,-1.16896,981.97000,27.10000,293.81000
-0.03905,0.03176,1.00067,-0.00025,0.00001,-0.00056,-0.44611,-0.27904,-1.16917,982.02000,27.11000,293.37000
-0.04005,0.03177,1.00068,-0.00025,0.00001,-0.00056,-0.43726,-0.27581,-1.14780,982.01000,27.10000,293.47000
-0.04008,0.03280,1.00172,0.00075,0.00001,0.00044,-0.43743,-0.26540,-1.17179,982.00000,27.10000,293.61000
-0.04007,0.03277,1.00072,0.00075,0.00001,-0.00056,-0.44885,-0.28173,-1.16323,981.96000,27.11000,293.96000
-0.04008,0.03280,1.00172,-0.00025,0.00001,-0.00056,-0.44885,-0.28173,-1.16323,981.98000,27.10000,293.72000
-0.04007,0.03180,1.00169,-0.00025,0.00001,-0.00056,-0.44839,-0.27090,-1.15702,982.01000,27.10000,293.53000
-0.04107,0.03181,1.00170,0.00075,0.00001,0.00044,-0.44037,-0.28664,-1.14803,982.00000,27.11000,293.54000
-0.04005,0.03274,0.99972,0.00075,0.00001,-0.00056,-0.43211,-0.27854,-1.16281,982.00000,27.11000,293.57000
-0.03904,0.03172,0.99967,0.00075,0.00001,-0.00056,-0.44365,-0.28706,-1.17225,981.96000,27.11000,293.94000
-0.04005,0.03177,1.00068,0.00075,0.00001,0.00044,-0.44605,-0.27900,-1.16615,982.00000,27.11000,293.60000
-0.04106,0.03178,1.00070,-0.00025,0.00001,-0.00056,-0.45225,-0.29013,-1.18154,981.94000,27.11000,294.06000
-0.04107,0.03278,1.00073,-0.00025,0.00001,-0.00056,-0.45150,-0.28962,-1.14530,982.03000,27.11000,293.34000
-0.04005,0.03177,1.00068,0.00075,0.00001,-0.00056,-0.44586,-0.28677,-1.14514,981.97000,27.11000,293.83000
-0.04007,0.03277,1.00072,0.00075,0.00001,-0.00056,-0.44342,-0.28954,-1.15719,981.95000,27.11000,294.01000
-0.04005,0.03177,1.00068,0.00075,0.00001,0.00044,-0.44308,-0.28668,-1.14507,982.02000,27.11000,293.41000
-0.04106,0.03178,1.00070,0.00075,0.00001,0.00044,-0.43231,-0.28921,-1.15694,981.98000,27.11000,293.71000
-0.04005,0.03177,1.00068,0.00075,0.00001,-0.00056,-0.44363,-0.29231,-1.16328,982.01000,27.11000,293.50000
-0.03905,0.03273,0.99970,-0.00025,0.00001,0.00044,-0.43764,-0.29185,-1.14201,981.97000,27.11000,293.83000
-0.03808,0.03476,1.00075,-0.00025,0.00001,-0.00056,-0.44858,-0.27891,-1.15413,981.92000,27.11000,294.30000
-0.03911,0.03286,1.00370,-0.00025,0.00001,-0.00056,-0.44858,-0.27891,-1.15413,981.92000,27.11000,294.23000
-0.03800,0.03068,0.99862,-0.00025,0.00001,0.00044,-0.44640,-0.29239,-1.16334,982.04000,27.10000,293.24000
-0.04003,0.03073,0.99965,0.00075,0.00001,0.00044,-0.44897,-0.28971,-1.15732,981.97000,27.11000,293.87000
-0.03807,0.03178,1.00165,-0.00025,0.00001,-0.00056,-0.44025,-0.27867,-1.15394,981.95000,27.10000,293.99000
-0.04002,0.02875,1.00059,0.00075,0.00001,-0.00056,-0.44064,-0.29735,-1.14518,981.99000,27.10000,293.64000
-0.04005,0.03471,0.99878,0.00075,0.00001,-0.00056,-0.44887,-0.29227,-1.14830,982.01000,27.10000,293.51000
-0.04005,0.03274,0.99972,0.00075,0.00001,0.00044,-0.44070,-0.28950,-1.16015,982.00000,27.10000,293.57000
-0.04115,0.03392,1.00477,0.00075,0.00001,0.00044,-0.44070,-0.28950,-1.16015,981.99000,27.11000,293.69000
-0.03912,0.03386,1.00374,0.00075,0.00001,-0.00056,-0.43490,-0.28916,-1.14795,982.04000,27.11000,293.20000
-0.04104,0.02977,1.00064,-0.00025,0.00001,-0.00056,-0.44149,-0.30319,-1.17848,981.93000,27.10000,294.17000
-0.04105,0.03077,1.00067,0.00075,0.00001,-0.00056,-0.43204,-0.27850,-1.15979,982.01000,27.11000,293.51000
-0.03804,0.03369,0.99871,0.00075,0.00001,-0.00056,-0.42958,-0.28652,-1.16288,981.99000,27.11000,293.67000
-0.04011,0.03384,1.00275,0.00075,0.00001,-0.00056,-0.44617,-0.28698,-1.16023,982.02000,27.10000,293.40000
-0.04111,0.03188,1.00371,0.00075,0.00001,-0.00056,-0.45191,-0.29516,-1.15747,981.94000,27.11000,294.05000
-0.03804,0.03074,1.00062,-0.00025,0.00001,-0.00056,-0.45191,-0.29516,-1.15747,982.06000,27.11000,293.06000
-0.04005,0.03274,0.99972,-0.00025,0.00001,-0.00056,-0.44661,-0.28727,-1.18137,981.97000,27.11000,293.83000
-0.03906,0.03276,1.00070,0.00075,0.00001,-0.00056,-0.44910,-0.28190,-1.17531,981.96000,27.10000,293.91000
-0.04106,0.03178,1.00070,0.00075,0.00001,-0.00056,-0.44356,-0.28438,-1.17221,981.99000,27.10000,293.63000
-0.04109,0.03282,1.00174,0.00075,0.00001,-0.00056,-0.45208,-0.30054,-1.15755,981.99000,27.10000,293.64000
-0.04007,0.03277,1.00072,0.00075,0.00001,-0.00056,-0.44671,-0.29261,-1.17844,981.91000,27.10000,294.31000
-0.03807,0.03178,1.00165,-0.00025,0.00001,-0.00056,-0.44907,-0.28714,-1.16634,982.05000,27.10000,293.18000
-0.04101,0.03071,0.99867,0.00075,0.00001,-0.00056,-0.44907,-0.28714,-1.16634,982.02000,27.11000,293.45000
-0.04007,0.03180,1.00169,0.00075,0.00001,-0.00056,-0.44360,-0.28967,-1.16625,981.94000,27.10000,294.06000
-0.04107,0.03181,1.00170,-0.00025,0.00001,-0.00056,-0.43766,-0.27871,-1.16294,981.99000,27.11000,293.68000
-0.04106,0.03178,1.00070,-0.00025,0.00001,-0.00056,-0.44567,-0.27875,-1.14803,982.05000,27.11000,293.16000
-0.04007,0.03180,1.00169,-0.00025,0.00001,-0.00056,-0.44835,-0.28139,-1.13907,982.01000,27.11000,293.47000
-0.04104,0.03175,0.99970,0.00075,0.00001,-0.00056,-0.44010,-0.28383,-1.13893,981.99000,27.10000,293.64000
-0.04109,0.03282,1.00174,-0.00025,0.00001,-0.00056,-0.43784,-0.28673,-1.16005,981.98000,27.10000,293.72000
-0.04008,0.03280,1.00172,0.00075,0.00001,0.00044,-0.43784,-0.28673,-1.16005,982.03000,27.11000,293.29000
-0.04005,0.03177,1.00068,-0.00025,0.00001,-0.00056,-0.44648,-0.29508,-1.16338,981.96000,27.10000,293.96000
-0.04004,0.03173,0.99968,0.00075,0.00001,-0.00056,-0.43778,-0.28669,-1.15703,981.98000,27.11000,293.77000
-0.04005,0.03177,1.00068,0.00075,0.00001,0.00044,-0.42962,-0.28392,-1.16888,982.00000,27.11000,293.59000
-0.04005,0.03177,1.00068,-0.00025,0.00001,-0.00056,-0.44889,-0.28702,-1.15728,981.95000,27.10000,293.99000
-0.04004,0.03076,1.00065,-0.00025,0.00001,-0.00056,-0.44638,-0.28975,-1.16632,981.98000,27.10000,293.76000
-0.04005,0.03177,1.00068,0.00075,0.00001,0.00044,-0.45189,-0.29252,-1.16044,981.95000,27.11000,294.01000
-0.04008,0.03378,1.00075,0.00075,0.00001,0.00044,-0.45189,-0.29252,-1.16044,981.95000,27.10000,294.04000
-0.04004,0.03173,0.99968,0.00075,0.00001,-0.00056,-0.45179,-0.29508,-1.15143,981.92000,27.10000,294.23000
-0.04106,0.03081,1.00167,-0.00025,0.00001,-0.00056,-0.44580,-0.28672,-1.14212,981.97000,27.11000,293.85000
-0.04005,0.03177,1.00068,-0.00025,0.00001,0.00044,-0.45133,-0.28424,-1.14522,981.96000,27.10000,293.90000
-0.04107,0.03278,1.00073,-0.00025,0.00001,-0.00056,-0.43511,-0.29194,-1.15403,982.00000,27.10000,293.59000
-0.03909,0.03182,1.00267,0.00075,0.00001,-0.00056,-0.44325,-0.28416,-1.15711,981.99000,27.10000,293.70000
-0.04005,0.03274,0.99972,0.00075,0.00001,0.00044,-0.43217,-0.27859,-1.16583,982.00000,27.11000,293.61000
-0.04004,0.03173,0.99968,0.00075,0.00001,-0.00056,-0.43217,-0.27859,-1.16583,982.04000,27.10000,293.22000
-0.04005,0.03177,1.00068,0.00075,0.00001,-0.00056,-0.44621,-0.29227,-1.15428,981.99000,27.10000,293.70000
-0.04106,0.03178,1.00070,-0.00025,0.00001,-0.00056,-0.44073,-0.28425,-1.16913,982.02000,27.10000,293.38000
-0.03999,0.03067,0.99765,-0.00025,0.00001,-0.00056,-0.44052,-0.28148,-1.16304,982.06000,27.10000,293.05000
-0.03805,0.03174,1.00065,-0.00025,0.00001,0.00044,-0.43803,-0.29475,-1.15715,982.01000,27.10000,293.50000
-0.04008,0.03280,1.00172,0.00075,0.00001,0.00044,-0.44914,-0.28719,-1.16935,981.95000,27.10000,294.04000
-0.03908,0.03279,1.00170,0.00075,0.00001,-0.00056,-0.44924,-0.30041,-1.15447,981.97000,27.10000,293.87000
-0.03806,0.03275,1.00068,-0.00025,0.00001,0.00044,-0.44924,-0.30041,-1.15447,981.92000,27.10000,294.23000
-0.04005,0.03177,1.00068,-0.00025,0.00001,-0.00056,-0.43814,-0.29219,-1.16617,981.92000,27.10000,294.27000
-0.04004,0.03173,0.99968,-0.00025,0.00001,-0.00056,-0.44112,-0.29504,-1.17231,982.03000,27.10000,293.34000
-0.04006,0.03080,1.00165,0.00075,0.00001,-0.00056,-0.44932,-0.29521,-1.16646,982.01000,27.10000,293.48000
-0.03905,0.03176,1.00067,0.00075,0.00001,0.00044,-0.44667,-0.29521,-1.17244,981.97000,27.11000,293.80000
-0.04007,0.03180,1.00169,0.00075,0.00001,0.00044,-0.45197,-0.28731,-1.17244,981.87000,27.10000,294.72000
-0.03908,0.03279,1.00170,-0.00025,0.00001,0.00044,-0.44348,-0.28958,-1.16021,981.98000,27.10000,293.73000
-0.04005,0.03177,1.00068,-0.00025,0.00001,-0.00056,-0.44379,-0.28979,-1.17531,982.02000,27.10000,293.44000
-0.03905,0.03176,1.00067,0.00075,0.00001,0.00044,-0.44682,-0.29794,-1.17550,981.98000,27.10000,293.72000
-0.03905,0.03176,1.00067,0.00075,0.00001,0.00044,-0.45135,-0.27900,-1.15419,982.02000,27.10000,293.41000
-0.03905,0.03176,1.00067,0.00075,0.00001,0.00044,-0.44373,-0.28975,-1.17229,981.95000,27.10000,293.99000
-0.04007,0.03277,1.00072,0.00075,0.00001,0.00044,-0.44993,-0.29298,-1.19964,981.93000,27.10000,294.15000
-0.04006,0.03080,1.00165,-0.00025,0.00001,-0.00056,-0.45235,-0.29546,-1.17860,981.99000,27.10000,293.67000
-0.04005,0.03274,0.99972,-0.00025,0.00001,-0.00056,-0.45732,-0.28471,-1.16648,982.00000,27.10000,293.59000
-0.04007,0.03180,1.00169,0.00075,0.00001,-0.00056,-0.45728,-0.28731,-1.16048,981.95000,27.10000,293.99000
-0.03805,0.03174,1.00065,-0.00025,0.00001,-0.00056,-0.45172,-0.28714,-1.16036,981.93000,27.10000,294.18000
-0.03908,0.03279,1.00170,-0.00025,0.00001,-0.00056,-0.44122,-0.30037,-1.16938,982.03000,27.10000,293.35000
-0.04005,0.03177,1.00068,0.00075,0.00001,-0.00056,-0.45195,-0.28467,-1.17541,981.91000,27.10000,294.38000
-0.03906,0.03276,1.00070,-0.00025,0.00001,-0.00056,-0.44937,-0.28471,-1.18441,981.98000,27.10000,293.72000
-0.04005,0.03177,1.00068,-0.00025,0.00001,0.00044,-0.43816,-0.28694,-1.17514,981.95000,27.10000,293.97000
-0.04005,0.03177,1.00068,0.00075,0.00001,-0.00056,-0.44152,-0.29005,-1.19941,981.93000,27.10000,294.17000
-0.04103,0.03074,0.99967,0.00075,0.00001,-0.00056,-0.44075,-0.28690,-1.16615,982.01000,27.10000,293.50000
-0.04104,0.03175,0.99970,0.00075,0.00001,-0.00056,-0.44075,-0.28690,-1.16615,981.98000,27.10000,293.79000
-0.03907,0.03179,1.00167,-0.00025,0.00001,-0.00056,-0.44943,-0.29265,-1.17548,982.00000,27.10000,293.58000
-0.04007,0.03180,1.00169,0.00075,0.00001,-0.00056,-0.44160,-0.30063,-1.18750,982.03000,27.10000,293.29000
-0.04005,0.03177,1.00068,-0.00025,0.00001,0.00044,-0.44147,-0.30054,-1.18146,982.01000,27.10000,293.49000
-0.04005,0.03274,0.99972,0.00075,0.00001,-0.00056,-0.42682,-0.28119,-1.17179,981.91000,27.10000,294.31000
-0.03909,0.03380,1.00173,0.00075,0.00001,-0.00056,-0.45197,-0.29520,-1.16049,981.97000,27.10000,293.81000
-0.03906,0.03276,1.00070,0.00075,0.00001,-0.00056,-0.44628,-0.29231,-1.15730,981.95000,27.10000,294.03000
-0.04007,0.03277,1.00072,-0.00025,0.00001,0.00044,-0.44628,-0.29231,-1.15730,982.07000,27.10000,293.01000
-0.04007,0.03180,1.00169,-0.00025,0.00001,0.00044,-0.44914,-0.28719,-1.16935,981.93000,27.10000,294.20000
-0.04009,0.03183,1.00269,0.00075,0.00001,-0.00056,-0.45185,-0.28723,-1.16640,981.84000,27.10000,294.91000
-0.04004,0.03173,0.99968,-0.00025,0.00001,-0.00056,-0.44379,-0.28979,-1.17531,981.97000,27.10000,293.88000
-0.04008,0.03280,1.00172,-0.00025,0.00001,0.00044,-0.44974,-0.30075,-1.17863,981.98000,27.10000,293.71000
-0.04008,0.03280,1.00172,0.00075,0.00001,-0.00056,-0.45204,-0.29525,-1.16350,981.98000,27.10000,293.75000
-0.04107,0.03278,1.00073,-0.00025,0.00001,0.00044,-0.44383,-0.29508,-1.16936,981.99000,27.10000,293.70000
-0.04105,0.03077,1.00067,0.00075,0.00001,-0.00056,-0.44383,-0.29508,-1.16936,981.94000,27.10000,294.08000
-0.03906,0.03276,1.00070,-0.00025,0.00001,-0.00056,-0.46001,-0.28999,-1.15455,981.98000,27.10000,293.73000
-0.03905,0.03176,1.00067,0.00075,0.00001,-0.00056,-0.45730,-0.28995,-1.15751,981.91000,27.11000,294.32000
-0.03906,0.03276,1.00070,0.00075,0.00001,-0.00056,-0.45150,-0.28962,-1.14530,982.01000,27.10000,293.48000
-0.04009,0.03381,1.00175,0.00075,0.00001,-0.00056,-0.45995,-0.28995,-1.15153,981.98000,27.10000,293.72000
-0.04005,0.03177,1.00068,-0.00025,0.00001,0.00044,-0.44089,-0.28963,-1.16921,981.96000,27.10000,293.88000
-0.03906,0.03276,1.00070,-0.00025,0.00001,-0.00056,-0.44617,-0.29487,-1.14828,981.98000,27.10000,293.79000
-0.04004,0.03173,0.99968,-0.00025,0.00001,-0.00056,-0.44617,-0.29487,-1.14828,982.00000,27.10000,293.58000
-0.04005,0.03177,1.00068,0.00075,0.00001,-0.00056,-0.43868,-0.29782,-1.18437,982.00000,27.10000,293.60000
-0.03905,0.03176,1.00067,-0.00025,0.00001,-0.00056,-0.44665,-0.29256,-1.17542,981.93000,27.10000,294.15000
-0.04007,0.03277,1.00072,0.00075,0.00001,-0.00056,-0.45483,-0.29797,-1.16059,982.03000,27.10000,293.33000
-0.04004,0.03173,0.99968,0.00075,0.00001,0.00044,-0.44698,-0.30331,-1.17559,981.92000,27.10000,294.22000
-0.03907,0.03376,1.00073,0.00075,-0.00099,0.00044,-0.44104,-0.29235,-1.17227,982.02000,27.10000,293.40000
-0.04007,0.03277,1.00072,0.00075,0.00001,-0.00056,-0.43594,-0.30302,-1.17836,981.95000,27.10000,294.01000
-0.04107,0.03278,1.00073,0.00075,0.00001,0.00044,-0.43594,-0.30302,-1.17836,981.96000,27.09000,293.92000
-0.04005,0.03274,0.99972,0.00075,0.00001,0.00044,-0.44692,-0.29538,-1.18452,981.93000,27.10000,294.16000
-0.04005,0.03177,1.00068,0.00075,0.00001,0.00044,-0.44980,-0.29290,-1.19360,981.95000,27.10000,294.01000
-0.03905,0.03176,1.00067,0.00075,0.00001,-0.00056,-0.45220,-0.29273,-1.17554,981.99000,27.10000,293.64000
-0.04104,0.03272,0.99873,0.00075,0.00001,-0.00056,-0.44323,-0.27363,-1.17204,981.94000,27.10000,294.09000
-0.03902,0.03072,0.99963,0.00075,0.00001,0.00044,-0.43847,-0.29504,-1.17829,981.94000,27.10000,294.09000
-0.03904,0.03172,0.99967,-0.00025,0.00001,-0.00056,-0.42989,-0.28673,-1.17798,981.97000,27.10000,293.87000
-0.04107,0.03278,1.00073,0.00075,0.00001,-0.00056,-0.42989,-0.28673,-1.17798,981.99000,27.10000,293.62000
-0.03905,0.03176,1.00067,-0.00025,0.00001,0.00044,-0.43285,-0.29484,-1.17515,982.01000,27.10000,293.46000
-0.03905,0.03176,1.00067,-0.00025,0.00001,-0.00056,-0.44126,-0.29777,-1.17538,981.97000,27.10000,293.81000
-0.03905,0.03176,1.00067,-0.00025,0.00001,0.00044,-0.45185,-0.28723,-1.16640,982.00000,27.10000,293.60000
-0.04005,0.03274,0.99972,-0.00025,0.00001,-0.00056,-0.44970,-0.30335,-1.17263,981.91000,27.10000,294.32000
-0.04107,0.03278,1.00073,-0.00025,0.00001,-0.00056,-0.45197,-0.29520,-1.16049,981.95000,27.10000,294.03000
-0.04007,0.03277,1.00072,0.00075,0.00001,-0.00056,-0.44601,-0.28160,-1.16015,981.97000,27.10000,293.86000
-0.04104,0.03175,0.99970,-0.00025,0.00001,-0.00056,-0.44601,-0.28160,-1.16015,981.96000,27.10000,293.95000
-0.04004,0.03173,0.99968,0.00075,0.00001,-0.00056,-0.44365,-0.29496,-1.16030,982.01000,27.10000,293.52000
-0.04106,0.03178,1.00070,-0.00025,0.00001,-0.00056,-0.45218,-0.29008,-1.17852,981.94000,27.10000,294.11000
-0.04005,0.03274,0.99972,0.00075,0.00001,-0.00056,-0.44709,-0.30864,-1.17265,981.98000,27.10000,293.76000
-0.03905,0.03176,1.00067,0.00075,0.00001,-0.00056,-0.43816,-0.29483,-1.16319,981.98000,27.10000,293.74000
-0.03905,0.03176,1.00067,-0.00025,0.00001,-0.00056,-0.44410,-0.30579,-1.16651,981.95000,27.10000,294.02000
-0.03906,0.03276,1.00070,-0.00025,0.00001,-0.00056,-0.45494,-0.29541,-1.16961,981.96000,27.10000,293.91000
-0.03908,0.03279,1.00170,-0.00025,0.00001,-0.00056,-0.45454,-0.30041,-1.14251,982.02000,27.10000,293.44000
-0.03808,0.03278,1.00168,-0.00025,0.00001,0.00044,-0.45454,-0.30041,-1.14251,981.92000,27.10000,294.30000
-0.04107,0.03278,1.00073,0.00075,0.00001,-0.00056,-0.45755,-0.29802,-1.15763,981.97000,27.10000,293.86000
-0.04005,0.03177,1.00068,-0.00025,0.00001,0.00044,-0.44976,-0.30339,-1.17565,981.94000,27.10000,294.08000
-0.04107,0.03278,1.00073,0.00075,0.00001,-0.00056,-0.45235,-0.30335,-1.16665,981.99000,27.10000,293.71000
-0.04107,0.03181,1.00170,-0.00025,0.00001,-0.00056,-0.44120,-0.29773,-1.17236,982.03000,27.10000,293.30000
-0.04104,0.03175,0.99970,-0.00025,0.00001,-0.00056,-0.45769,-0.30074,-1.16069,981.96000,27.10000,293.89000
-0.03905,0.03176,1.00067,-0.00025,0.00001,-0.00056,-0.45179,-0.28719,-1.16338,981.98000,27.10000,293.71000
-0.03905,0.03273,0.99970,-0.00025,0.00001,-0.00056,-0.45179,-0.28719,-1.16338,981.91000,27.10000,294.33000
-0.04007,0.03180,1.00169,0.00075,0.00001,-0.00056,-0.44342,-0.29743,-1.14524,981.95000,27.10000,293.97000
-0.04105,0.03275,0.99973,-0.00025,0.00001,-0.00056,-0.44599,-0.27896,-1.16313,981.99000,27.10000,293.63000
-0.04004,0.03173,0.99968,0.00075,0.00001,-0.00056,-0.44369,-0.29235,-1.16629,981.98000,27.10000,293.75000
-0.03905,0.03176,1.00067,0.00075,0.00001,0.00044,-0.45225,-0.29013,-1.18154,981.92000,27.10000,294.28000
-0.04106,0.03178,1.00070,0.00075,0.00001,0.00044,-0.44974,-0.30075,-1.17863,981.99000,27.10000,293.66000
-0.03907,0.03179,1.00167,0.00075,0.00001,-0.00056,-0.44375,-0.29240,-1.16931,981.97000,27.10000,293.83000
-0.04005,0.03177,1.00068,0.00075,0.00001,0.00044,-0.44375,-0.29240,-1.16931,981.98000,27.10000,293.73000
-0.04008,0.03280,1.00172,0.00075,0.00001,0.00044,-0.44615,-0.29222,-1.15126,981.93000,27.10000,294.18000
-0.04005,0.03274,0.99972,0.00075,0.00001,0.00044,-0.44659,-0.29252,-1.17240,981.94000,27.10000,294.07000
-0.04005,0.03274,0.99972,0.00075,0.00001,0.00044,-0.44673,-0.30314,-1.16351,981.96000,27.10000,293.92000
-0.04105,0.03275,0.99973,-0.00025,0.00001,-0.00056,-0.44692,-0.30327,-1.17257,981.98000,27.10000,293.74000
-0.04005,0.03274,0.99972,0.00075,0.00001,0.00044,-0.44404,-0.29785,-1.17544,982.01000,27.10000,293.48000
-0.04007,0.03180,1.00169,0.00075,0.00001,-0.00056,-0.44959,-0.29802,-1.17556,982.00000,27.10000,293.55000
-0.04106,0.03178,1.00070,-0.00025,0.00001,-0.00056,-0.44959,-0.29802,-1.17556,981.94000,27.10000,294.10000
-0.04007,0.03180,1.00169,0.00075,0.00001,-0.00056,-0.44153,-0.30848,-1.17253,982.02000,27.10000,293.40000
-0.03905,0.03176,1.00067,0.00075,0.00001,-0.00056,-0.46088,-0.30637,-1.17292,981.90000,27.10000,294.42000
-0.04005,0.03177,1.00068,0.00075,0.00001,-0.00056,-0.44920,-0.29512,-1.16042,981.93000,27.10000,294.16000
-0.04010,0.03284,1.00272,0.00075,0.00001,-0.00056,-0.45800,-0.30885,-1.16384,981.93000,27.10000,294.18000
-0.03805,0.03174,1.00065,-0.00025,0.00001,-0.00056,-0.45512,-0.30343,-1.16671,981.96000,27.10000,293.91000
-0.03905,0.03176,1.00067,-0.00025,0.00001,-0.00056,-0.44650,-0.29773,-1.16040,981.97000,27.10000,293.80000
-0.04110,0.03382,1.00177,0.00075,0.00001,-0.00056,-0.44650,-0.29773,-1.16040,981.99000,27.10000,293.68000
-0.04007,0.03277,1.00072,0.00075,0.00001,-0.00056,-0.44638,-0.29764,-1.15436,981.99000,27.10000,293.66000
-0.03905,0.03273,0.99970,-0.00025,0.00001,0.00044,-0.44093,-0.30281,-1.15130,981.98000,27.10000,293.76000
-0.03904,0.03172,0.99967,-0.00025,0.00001,-0.00056,-0.44936,-0.30050,-1.16051,981.97000,27.10000,293.87000
-0.04109,0.03282,1.00174,0.00075,0.00001,-0.00056,-0.43793,-0.29731,-1.14814,982.01000,27.10000,293.50000
-0.03904,0.03075,1.00064,0.00075,0.00001,0.00044,-0.45761,-0.30595,-1.14870,981.95000,27.10000,293.98000
-0.04001,0.03070,0.99865,-0.00025,0.00001,0.00044,-0.45483,-0.29797,-1.16059,981.86000,27.10000,294.74000
-0.03902,0.03169,0.99867,-0.00025,0.00001,0.00044,-0.45483,-0.29797,-1.16059,981.90000,27.10000,294.42000
-0.04017,0.03297,1.00672,-0.00025,0.00001,-0.00056,-0.43805,-0.29739,-1.15418,981.96000,27.10000,293.92000
-0.04007,0.03180,1.00169,-0.00025,0.00001,-0.00056,-0.45222,-0.30327,-1.16061,981.93000,27.10000,294.18000
-0.03904,0.03172,0.99967,-0.00025,0.00001,-0.00056,-0.46057,-0.30616,-1.15782,981.96000,27.10000,293.93000
-0.03905,0.03176,1.00067,0.00075,0.00001,-0.00056,-0.45222,-0.29537,-1.17256,981.91000,27.10000,294.39000
-0.04011,0.03187,1.00369,0.00075,0.00001,0.00044,-0.44688,-0.30587,-1.16657,982.05000,27.10000,293.18000
-0.04005,0.03274,0.99972,-0.00025,0.00001,-0.00056,-0.44963,-0.30331,-1.16961,981.93000,27.10000,294.18000
-0.04106,0.03178,1.00070,-0.00025,0.00001,-0.00056,-0.44963,-0.30331,-1.16961,981.94000,27.09000,294.12000
-0.03902,0.03072,0.99963,-0.00025,0.00001,-0.00056,-0.45243,-0.31393,-1.15474,981.94000,27.10000,294.12000
-0.04005,0.03177,1.00068,-0.00025,0.00001,-0.00056,-0.44112,-0.30293,-1.16036,982.04000,27.10000,293.23000
-0.04010,0.03284,1.00272,-0.00025,0.00001,-0.00056,-0.44375,-0.29240,-1.16931,982.01000,27.10000,293.49000
-0.03907,0.03179,1.00167,-0.00025,0.00001,-0.00056,-0.44425,-0.30063,-1.18152,981.97000,27.10000,293.83000
-0.03904,0.03172,0.99967,0.00075,0.00001,-0.00056,-0.44373,-0.30553,-1.14839,981.97000,27.10000,293.87000
-0.04107,0.03181,1.00170,0.00075,0.00001,0.00044,-0.43818,-0.29748,-1.16022,981.92000,27.10000,294.29000
-0.03906,0.03276,1.00070,-0.00025,0.00001,-0.00056,-0.43818,-0.29748,-1.16022,981.96000,27.10000,293.93000
-0.04005,0.03274,0.99972,-0.00025,0.00001,-0.00056,-0.44704,-0.31125,-1.16665,981.95000,27.10000,293.97000
-0.04104,0.03175,0.99970,0.00075,0.00001,-0.00056,-0.43870,-0.30046,-1.18140,981.97000,27.10000,293.81000
-0.04106,0.03178,1.00070,0.00075,0.00001,-0.00056,-0.44663,-0.29781,-1.16644,981.96000,27.10000,293.91000
-0.03908,0.03279,1.00170,0.00075,0.00001,-0.00056,-0.46005,-0.28739,-1.16055,981.93000,27.09000,294.14000
-0.04007,0.03180,1.00169,-0.00025,0.00001,-0.00056,-0.44688,-0.30587,-1.16657,981.96000,27.10000,293.92000
-0.04005,0.03274,0.99972,-0.00025,0.00001,-0.00056,-0.44093,-0.29492,-1.16326,981.93000,27.10000,294.18000
-0.03908,0.03279,1.00170,-0.00025,0.00001,-0.00056,-0.44118,-0.29508,-1.17533,981.94000,27.10000,294.13000
-0.04011,0.03384,1.00275,-0.00025,0.00001,-0.00056,-0.44943,-0.29265,-1.17548,981.94000,27.10000,294.09000
-0.04005,0.03177,1.00068,-0.00025,0.00001,0.00044,-0.43304,-0.30285,-1.17225,982.04000,27.09000,293.20000
-0.03904,0.03172,0.99967,-0.00025,0.00001,0.00044,-0.44653,-0.30037,-1.15743,981.98000,27.09000,293.75000
-0.03902,0.03169,0.99867,0.00075,0.00001,-0.00056,-0.44657,-0.29777,-1.16342,981.94000,27.10000,294.11000
-0.04105,0.03275,0.99973,-0.00025,0.00001,-0.00056,-0.44408,-0.29525,-1.18144,981.93000,27.10000,294.19000
-0.04010,0.03284,1.00272,-0.00025,0.00001,-0.00056,-0.45264,-0.30092,-1.18473,981.97000,27.09000,293.79000
-0.04008,0.03083,1.00265,-0.00025,0.00001,-0.00056,-0.45237,-0.29810,-1.17563,981.96000,27.10000,293.91000
-0.04107,0.03181,1.00170,-0.00025,0.00001,0.00044,-0.45237,-0.29810,-1.17563,981.98000,27.09000,293.73000
-0.04002,0.03170,0.99868,0.00075,0.00001,-0.00056,-0.45158,-0.28441,-1.15730,981.87000,27.09000,294.66000
-0.04005,0.03274,0.99972,-0.00025,0.00001,-0.00056,-0.43843,-0.29765,-1.17229,981.95000,27.09000,294.04000
-0.04004,0.03173,0.99968,0.00075,0.00001,-0.00056,-0.44124,-0.30302,-1.16640,981.92000,27.09000,294.29000
-0.04005,0.03177,1.00068,0.00075,0.00001,-0.00056,-0.44655,-0.29512,-1.16640,982.00000,27.10000,293.56000
-0.03907,0.03179,1.00167,-0.00025,0.00001,-0.00056,-0.44601,-0.28950,-1.14820,981.99000,27.09000,293.69000
-0.04006,0.03080,1.00165,-0.00025,0.00001,-0.00056,-0.44122,-0.30037,-1.16938,981.99000,27.09000,293.69000
-0.04009,0.03183,1.00269,0.00075,0.00001,-0.00056,-0.44122,-0.30037,-1.16938,981.97000,27.09000,293.86000
-0.04005,0.03274,0.99972,-0.00025,0.00001,-0.00056,-0.43513,-0.29458,-1.15105,981.96000,27.10000,293.95000
-0.03905,0.03176,1.00067,-0.00025,0.00001,0.00044,-0.44924,-0.29252,-1.16642,982.00000,27.10000,293.55000
-0.04007,0.03180,1.00169,0.00075,0.00001,-0.00056,-0.44926,-0.28727,-1.17539,982.03000,27.10000,293.30000
-0.03908,0.03279,1.00170,-0.00025,0.00001,-0.00056,-0.44079,-0.29219,-1.16019,981.97000,27.09000,293.87000
-0.03904,0.03075,1.00064,-0.00025,0.00001,-0.00056,-0.45262,-0.29827,-1.18770,981.92000,27.10000,294.24000
-0.04005,0.03177,1.00068,-0.00025,0.00001,-0.00056,-0.44385,-0.29773,-1.16638,981.91000,27.09000,294.36000
-0.04105,0.03077,1.00067,-0.00025,0.00001,0.00044,-0.44385,-0.29773,-1.16638,981.94000,27.09000,294.05000
-0.04004,0.03173,0.99968,-0.00025,0.00001,0.00044,-0.44404,-0.29785,-1.17544,981.99000,27.09000,293.71000
-0.04004,0.03173,0.99968,-0.00025,0.00001,-0.00056,-0.45247,-0.30343,-1.17269,981.97000,27.10000,293.85000
-0.03910,0.03283,1.00270,0.00075,0.00001,-0.00056,-0.45007,-0.30361,-1.19075,981.94000,27.09000,294.09000
-0.03908,0.03279,1.00170,0.00075,0.00001,-0.00056,-0.45838,-0.30121,-1.19391,981.93000,27.09000,294.21000
-0.04005,0.03177,1.00068,-0.00025,0.00001,-0.00056,-0.45235,-0.29546,-1.17860,982.04000,27.09000,293.20000
-0.04106,0.03178,1.00070,-0.00025,0.00001,-0.00056,-0.45469,-0.30314,-1.14558,981.94000,27.09000,294.06000
-0.03999,0.03067,0.99765,0.00075,0.00001,-0.00056,-0.45469,-0.30314,-1.14558,982.02000,27.09000,293.39000
-0.04002,0.03170,0.99868,0.00075,0.00001,-0.00056,-0.45775,-0.30079,-1.16371,981.95000,27.10000,294.05000
-0.04008,0.03280,1.00172,0.00075,0.00001,-0.00056,-0.44963,-0.30331,-1.16961,981.95000,27.09000,294.04000
-0.04007,0.03180,1.00169,0.00075,0.00001,-0.00056,-0.44419,-0.30058,-1.17850,982.01000,27.09000,293.52000
-0.04004,0.03173,0.99968,0.00075,0.00001,0.00044,-0.44659,-0.29252,-1.17240,981.93000,27.10000,294.15000
-0.03905,0.03176,1.00067,0.00075,0.00001,0.00044,-0.44369,-0.29235,-1.16629,981.91000,27.09000,294.35000
-0.03905,0.03273,0.99970,-0.00025,0.00001,-0.00056,-0.44644,-0.28979,-1.16933,981.90000,27.09000,294.46000
-0.04004,0.03173,0.99968,-0.00025,0.00001,-0.00056,-0.44644,-0.28979,-1.16933,981.91000,27.10000,294.36000
-0.04106,0.03178,1.00070,0.00075,0.00001,-0.00056,-0.45746,-0.29533,-1.15759,981.92000,27.10000,294.24000
-0.03905,0.03176,1.00067,0.00075,0.00001,-0.00056,-0.43818,-0.29748,-1.16022,981.92000,27.09000,294.26000
-0.04010,0.03284,1.00272,0.00075,0.00001,-0.00056,-0.45150,-0.28962,-1.14530,981.90000,27.09000,294.47000
-0.03907,0.03376,1.00073,-0.00025,0.00001,-0.00056,-0.43818,-0.29748,-1.16022,982.03000,27.09000,293.29000
-0.04003,0.03271,0.99871,-0.00025,0.00001,-0.00056,-0.44325,-0.28416,-1.15711,981.92000,27.09000,294.28000
-0.04106,0.03178,1.00070,0.00075,0.00001,-0.00056,-0.43542,-0.29215,-1.16913,981.85000,27.10000,294.87000
-0.04011,0.03089,1.00466,0.00075,0.00001,-0.00056,-0.43542,-0.29215,-1.16913,981.97000,27.09000,293.84000
-0.04097,0.03162,0.99570,0.00075,0.00001,-0.00056,-0.45206,-0.29000,-1.17248,981.91000,27.09000,294.36000
-0.03904,0.03172,0.99967,-0.00025,0.00001,-0.00056,-0.44607,-0.28165,-1.16317,981.95000,27.09000,294.04000
-0.04002,0.03170,0.99868,-0.00025,0.00001,-0.00056,-0.44379,-0.29769,-1.16336,981.95000,27.09000,294.01000
-0.04008,0.03280,1.00172,-0.00025,0.00001,-0.00056,-0.44953,-0.29798,-1.17254,981.85000,27.10000,294.83000
-0.04002,0.03267,0.99771,0.00075,0.00001,-0.00056,-0.44924,-0.29252,-1.16642,982.05000,27.09000,293.18000
-0.04011,0.03187,1.00369,0.00075,0.00001,-0.00056,-0.44677,-0.30054,-1.16950,982.02000,27.09000,293.41000
-0.03902,0.03169,0.99867,0.00075,0.00001,-0.00056,-0.44677,-0.30054,-1.16950,981.91000,27.10000,294.36000
-0.04000,0.03167,0.99768,0.00075,0.00001,-0.00056,-0.45778,-0.29554,-1.17269,981.87000,27.10000,294.70000
-0.03904,0.03172,0.99967,0.00075,0.00001,-0.00056,-0.45759,-0.29541,-1.16363,981.90000,27.10000,294.39000
-0.04109,0.03282,1.00174,0.00075,0.00001,0.00044,-0.45728,-0.29520,-1.14853,981.93000,27.09000,294.17000
-0.03907,0.03179,1.00167,0.00075,0.00001,0.00044,-0.44630,-0.29495,-1.15432,981.98000,27.09000,293.78000
-0.04009,0.03183,1.00269,-0.00025,0.00001,0.00044,-0.43757,-0.29181,-1.13899,982.00000,27.09000,293.55000
-0.04004,0.03076,1.00065,0.00075,0.00001,-0.00056,-0.44630,-0.29495,-1.15432,981.99000,27.09000,293.63000
-0.04004,0.03173,0.99968,0.00075,0.00001,-0.00056,-0.44630,-0.29495,-1.15432,981.91000,27.09000,294.33000
-0.03907,0.03179,1.00167,0.00075,0.00001,0.00044,-0.44124,-0.30302,-1.16640,981.99000,27.10000,293.71000
-0.04005,0.03177,1.00068,0.00075,0.00001,-0.00056,-0.43816,-0.29483,-1.16319,982.01000,27.09000,293.50000
-0.03912,0.03189,1.00467,0.00075,0.00001,-0.00056,-0.44335,-0.28950,-1.15417,981.91000,27.10000,294.31000
-0.04008,0.03280,1.00172,-0.00025,0.00001,0.00044,-0.43816,-0.29483,-1.16319,982.00000,27.10000,293.58000
-0.04007,0.03180,1.00169,0.00075,0.00001,-0.00056,-0.45475,-0.29529,-1.16055,981.98000,27.09000,293.71000
-0.04000,0.03264,0.99671,-0.00025,0.00001,-0.00056,-0.44133,-0.30571,-1.16644,981.95000,27.09000,294.01000
-0.04010,0.03284,1.00272,-0.00025,0.00001,0.00044,-0.44033,-0.28135,-1.15398,981.94000,27.09000,294.10000
-0.04004,0.03173,0.99968,-0.00025,0.00001,0.00044,-0.45699,-0.28185,-1.15436,981.92000,27.09000,294.24000
-0.04007,0.03180,1.00169,-0.00025,0.00001,0.00044,-0.45742,-0.29793,-1.15159,981.96000,27.09000,293.93000
-0.04104,0.03175,0.99970,0.00075,0.00001,-0.00056,-0.44870,-0.28689,-1.14822,981.95000,27.09000,294.04000
-0.04008,0.03280,1.00172,0.00075,0.00001,-0.00056,-0.44346,-0.28694,-1.16319,981.95000,27.09000,294.02000
-0.04001,0.03070,0.99865,0.00075,0.00001,-0.00056,-0.44077,-0.28165,-1.17512,981.96000,27.09000,293.96000
-0.04206,0.03179,1.00072,0.00075,0.00001,-0.00056,-0.44895,-0.28706,-1.16030,981.94000,27.09000,294.08000
-0.03907,0.03179,1.00167,-0.00025,0.00001,-0.00056,-0.45156,-0.28966,-1.14832,981.99000,27.09000,293.64000
-0.03905,0.03176,1.00067,-0.00025,0.00001,-0.00056,-0.45156,-0.28966,-1.14832,981.96000,27.09000,293.88000
-0.04004,0.03173,0.99968,0.00075,0.00001,0.00044,-0.44601,-0.28950,-1.14820,981.88000,27.09000,294.61000
-0.03908,0.03279,1.00170,0.00075,0.00001,-0.00056,-0.46281,-0.29272,-1.15163,981.89000,27.09000,294.48000
-0.04005,0.03177,1.00068,-0.00025,0.00001,-0.00056,-0.44410,-0.29000,-1.19041,981.93000,27.09000,294.22000
-0.04107,0.03278,1.00073,-0.00025,0.00001,-0.00056,-0.44644,-0.28979,-1.16933,981.85000,27.09000,294.88000
-0.03905,0.03273,0.99970,0.00075,0.00001,-0.00056,-0.44901,-0.28710,-1.16332,981.91000,27.09000,294.38000
-0.04105,0.03077,1.00067,0.00075,0.00001,-0.00056,-0.44667,-0.30310,-1.16049,981.94000,27.09000,294.09000
-0.03907,0.03082,1.00264,0.00075,0.00001,-0.00056,-0.44667,-0.30310,-1.16049,981.92000,27.09000,294.26000
-0.03909,0.03182,1.00267,0.00075,0.00001,0.00044,-0.44615,-0.29222,-1.15126,981.85000,27.09000,294.84000
-0.03906,0.03078,1.00164,-0.00025,0.00001,-0.00056,-0.45185,-0.28723,-1.16640,981.97000,27.09000,293.80000
-0.04104,0.03272,0.99873,-0.00025,0.00001,-0.00056,-0.44680,-0.29529,-1.17848,981.99000,27.09000,293.69000
-0.04003,0.03271,0.99871,0.00075,0.00001,-0.00056,-0.44352,-0.28698,-1.16621,981.94000,27.10000,294.09000
-0.03905,0.03273,0.99970,0.00075,0.00001,0.00044,-0.43521,-0.28937,-1.16305,981.91000,27.10000,294.37000
-0.04008,0.03280,1.00172,0.00075,0.00001,-0.00056,-0.44636,-0.29500,-1.15734,981.90000,27.09000,294.41000
-0.04009,0.03381,1.00175,0.00075,0.00001,-0.00056,-0.44636,-0.29500,-1.15734,981.86000,27.09000,294.75000
-0.04104,0.03272,0.99873,-0.00025,0.00001,0.00044,-0.43832,-0.29231,-1.17523,981.93000,27.09000,294.17000
-0.03904,0.03172,0.99967,-0.00025,0.00001,-0.00056,-0.43807,-0.29215,-1.16315,982.00000,27.09000,293.62000
-0.04008,0.03280,1.00172,0.00075,0.00001,-0.00056,-0.44640,-0.28450,-1.17529,981.95000,27.09000,294.02000
-0.04005,0.03177,1.00068,0.00075,0.00001,0.00044,-0.44624,-0.28702,-1.16325,981.95000,27.09000,294.02000
-0.04104,0.03175,0.99970,0.00075,0.00001,0.00044,-0.44924,-0.28463,-1.17837,981.94000,27.09000,294.10000
-0.03908,0.03279,1.00170,0.00075,0.00001,-0.00056,-0.44624,-0.28702,-1.16325,981.95000,27.09000,294.04000
-0.03905,0.03176,1.00067,-0.00025,0.00001,-0.00056,-0.44624,-0.28702,-1.16325,981.94000,27.09000,294.13000
-0.04008,0.03280,1.00172,-0.00025,0.00001,-0.00056,-0.45438,-0.28714,-1.15438,981.89000,27.09000,294.51000
-0.04004,0.03173,0.99968,-0.00025,0.00001,0.00044,-0.45208,-0.30054,-1.15755,981.93000,27.09000,294.15000
-0.04006,0.03080,1.00165,-0.00025,0.00001,-0.00056,-0.44087,-0.29487,-1.16024,981.89000,27.09000,294.54000
-0.04004,0.03173,0.99968,0.00075,0.00001,-0.00056,-0.43538,-0.29475,-1.16313,981.92000,27.09000,294.24000
-0.04008,0.03378,1.00075,0.00075,0.00001,-0.00056,-0.44114,-0.29769,-1.16934,981.90000,27.09000,294.43000
-0.04007,0.03277,1.00072,0.00075,0.00001,0.00044,-0.44688,-0.29798,-1.17852,981.93000,27.09000,294.17000
-0.04005,0.03177,1.00068,0.00075,0.00001,-0.00056,-0.44688,-0.29798,-1.17852,982.00000,27.09000,293.57000
-0.03906,0.03078,1.00164,0.00075,0.00001,-0.00056,-0.45500,-0.29546,-1.17263,981.89000,27.09000,294.52000
-0.04007,0.03277,1.00072,-0.00025,-0.00099,0.00044,-0.44920,-0.30301,-1.14847,981.90000,27.09000,294.39000
-0.04004,0.03173,0.99968,-0.00025,0.00001,0.00044,-0.44310,-0.29722,-1.13014,981.98000,27.09000,293.73000
-0.04106,0.03375,0.99977,-0.00025,0.00001,-0.00056,-0.44592,-0.28681,-1.14815,981.97000,27.09000,293.86000
-0.04008,0.03280,1.00172,-0.00025,0.00001,-0.00056,-0.44626,-0.28966,-1.16028,981.92000,27.09000,294.25000
-0.04007,0.03180,1.00169,0.00075,0.00001,-0.00056,-0.42680,-0.28644,-1.16282,981.92000,27.09000,294.23000
-0.04106,0.03178,1.00070,-0.00025,0.00001,-0.00056,-0.42680,-0.28644,-1.16282,982.00000,27.09000,293.62000
-0.04005,0.03177,1.00068,0.00075,0.00001,0.00044,-0.44325,-0.28416,-1.15711,981.92000,27.09000,294.24000
-0.04007,0.03277,1.00072,0.00075,0.00001,-0.00056,-0.44315,-0.28673,-1.14809,981.95000,27.09000,294.02000
-0.04103,0.03074,0.99967,0.00075,0.00001,-0.00056,-0.44642,-0.28715,-1.17231,981.91000,27.09000,294.37000
-0.04109,0.03282,1.00174,0.00075,0.00001,0.00044,-0.44325,-0.28416,-1.15711,981.92000,27.09000,294.22000
-0.03905,0.03176,1.00067,0.00075,0.00001,0.00044,-0.44048,-0.28408,-1.15705,981.95000,27.09000,294.04000
-0.03907,0.03179,1.00167,0.00075,0.00001,-0.00056,-0.43793,-0.28942,-1.16009,981.90000,27.09000,294.40000
-0.03905,0.03273,0.99970,-0.00025,0.00001,-0.00056,-0.43793,-0.28942,-1.16009,981.93000,27.09000,294.21000
-0.04008,0.03280,1.00172,-0.00025,0.00001,0.00044,-0.44064,-0.28946,-1.15713,981.97000,27.09000,293.80000
-0.04009,0.03183,1.00269,-0.00025,0.00001,0.00044,-0.43503,-0.28925,-1.15399,981.90000,27.09000,294.44000
-0.04105,0.03077,1.00067,-0.00025,0.00001,0.00044,-0.43298,-0.30281,-1.16923,981.93000,27.09000,294.20000
-0.04004,0.03173,0.99968,0.00075,0.00001,-0.00056,-0.43563,-0.30281,-1.16326,981.99000,27.08000,293.67000
-0.03906,0.03276,1.00070,0.00075,0.00001,-0.00056,-0.43204,-0.28639,-1.14784,981.93000,27.09000,294.18000
-0.03908,0.03279,1.00170,-0.00025,0.00001,-0.00056,-0.43482,-0.28648,-1.14791,981.96000,27.09000,293.95000
-0.04105,0.03077,1.00067,-0.00025,0.00001,-0.00056,-0.43463,-0.28635,-1.13885,981.92000,27.09000,294.25000
-0.04107,0.03278,1.00073,-0.00025,0.00001,-0.00056,-0.43186,-0.28627,-1.13878,981.96000,27.09000,293.92000
-0.03904,0.03172,0.99967,-0.00025,0.00001,0.00044,-0.42353,-0.28602,-1.13860,982.00000,27.09000,293.54000
-0.04109,0.03282,1.00174,-0.00025,0.00001,-0.00056,-0.42401,-0.29160,-1.15378,981.97000,27.09000,293.81000
-0.03907,0.03179,1.00167,0.00075,0.00001,-0.00056,-0.42916,-0.28098,-1.15072,981.91000,27.09000,294.33000
-0.03906,0.03276,1.00070,-0.00025,0.00001,-0.00056,-0.42966,-0.29710,-1.15097,981.95000,27.09000,294.05000
-0.04005,0.03177,1.00068,0.00075,0.00001,-0.00056,-0.43480,-0.28383,-1.15088,981.95000,27.09000,294.03000
-0.04008,0.03280,1.00172,0.00075,0.00001,-0.00056,-0.43444,-0.28622,-1.12979,981.93000,27.09000,294.20000
-0.04005,0.03274,0.99972,-0.00025,0.00001,-0.00056,-0.43722,-0.28631,-1.12985,981.91000,27.09000,294.36000
-0.03906,0.03276,1.00070,0.00075,0.00001,0.00044,-0.43213,-0.28908,-1.14788,981.98000,27.09000,293.73000
-0.03905,0.03176,1.00067,-0.00025,0.00001,-0.00056,-0.43484,-0.28912,-1.14493,981.98000,27.09000,293.79000
-0.04206,0.03179,1.00072,-0.00025,0.00001,-0.00056,-0.44081,-0.29483,-1.15722,981.96000,27.09000,293.88000
-0.03908,0.03279,1.00170,-0.00025,0.00001,-0.00056,-0.44104,-0.30025,-1.16032,981.99000,27.09000,293.70000
-0.04104,0.03175,0.99970,-0.00025,0.00001,-0.00056,-0.44352,-0.29487,-1.15426,981.92000,27.09000,294.27000
-0.03902,0.03072,0.99963,-0.00025,0.00001,-0.00056,-0.43782,-0.28408,-1.16302,981.88000,27.09000,294.59000
-0.04107,0.03278,1.00073,-0.00025,0.00001,0.00044,-0.43782,-0.28408,-1.16302,981.95000,27.08000,294.01000
-0.04005,0.03274,0.99972,0.00075,0.00001,0.00044,-0.44607,-0.28954,-1.15122,981.97000,27.09000,293.85000
-0.04107,0.03181,1.00170,-0.00025,0.00001,-0.00056,-0.43718,-0.28102,-1.13580,981.98000,27.09000,293.75000
-0.04109,0.03282,1.00174,0.00075,0.00001,-0.00056,-0.43764,-0.28396,-1.15396,981.90000,27.09000,294.47000
-0.03905,0.03176,1.00067,0.00075,0.00001,-0.00056,-0.43778,-0.28669,-1.15703,981.98000,27.09000,293.75000
-0.03906,0.03276,1.00070,-0.00025,0.00001,-0.00056,-0.43503,-0.28925,-1.15399,981.99000,27.09000,293.66000
-0.04105,0.03275,0.99973,-0.00025,0.00001,-0.00056,-0.43482,-0.28648,-1.14791,981.90000,27.09000,294.46000
-0.04003,0.03073,0.99965,0.00075,0.00001,-0.00056,-0.43482,-0.28648,-1.14791,982.00000,27.09000,293.61000
-0.04005,0.03274,0.99972,-0.00025,0.00001,0.00044,-0.45158,-0.28441,-1.15730,981.89000,27.09000,294.52000
-0.04105,0.03275,0.99973,0.00075,0.00001,-0.00056,-0.44924,-0.29252,-1.16642,981.96000,27.09000,293.92000
-0.03908,0.03279,1.00170,-0.00025,0.00001,-0.00056,-0.44064,-0.28946,-1.15713,981.93000,27.09000,294.20000
-0.04007,0.03277,1.00072,0.00075,0.00001,-0.00056,-0.43780,-0.28933,-1.15405,981.91000,27.09000,294.34000
-0.04107,0.03181,1.00170,0.00075,0.00001,0.00044,-0.44613,-0.28169,-1.16619,981.86000,27.08000,294.78000
-0.04005,0.03177,1.00068,0.00075,0.00001,0.00044,-0.44068,-0.27896,-1.17508,981.88000,27.09000,294.64000
-0.04005,0.03177,1.00068,-0.00025,0.00001,-0.00056,-0.44068,-0.27896,-1.17508,981.94000,27.09000,294.07000
-0.04104,0.03175,0.99970,0.00075,0.00001,-0.00056,-0.45162,-0.28970,-1.15134,981.93000,27.09000,294.21000
-0.03905,0.03273,0.99970,-0.00025,0.00001,0.00044,-0.43818,-0.28958,-1.17217,981.84000,27.09000,294.93000
-0.04107,0.03181,1.00170,0.00075,0.00001,0.00044,-0.44095,-0.29756,-1.16028,981.93000,27.09000,294.15000
-0.04008,0.03280,1.00172,-0.00025,0.00001,0.00044,-0.43530,-0.29206,-1.16309,981.94000,27.09000,294.09000
-0.04006,0.03374,0.99975,-0.00025,0.00001,0.00044,-0.44937,-0.28471,-1.18441,981.88000,27.09000,294.63000
-0.04005,0.03177,1.00068,-0.00025,0.00001,0.00044,-0.44603,-0.28425,-1.15717,981.99000,27.09000,293.69000
-0.04107,0.03181,1.00170,-0.00025,0.00001,0.00044,-0.44603,-0.28425,-1.15717,981.94000,27.09000,294.13000
-0.04107,0.03181,1.00170,-0.00025,0.00001,-0.00056,-0.44922,-0.28987,-1.16940,981.95000,27.09000,294.00000
-0.04005,0.03177,1.00068,-0.00025,0.00001,-0.00056,-0.44939,-0.28736,-1.18143,981.93000,27.09000,294.14000
-0.03905,0.03176,1.00067,-0.00025,0.00001,0.00044,-0.44398,-0.29781,-1.17242,981.90000,27.09000,294.46000
-0.04005,0.03177,1.00068,-0.00025,0.00001,0.00044,-0.44628,-0.28442,-1.16925,982.00000,27.08000,293.57000
-0.03904,0.03075,1.00064,0.00075,0.00001,0.00044,-0.43505,-0.28400,-1.16296,982.00000,27.09000,293.61000
-0.04002,0.03170,0.99868,-0.00025,0.00001,0.00044,-0.44106,-0.29500,-1.16929,981.96000,27.08000,293.88000
-0.04004,0.03076,1.00065,-0.00025,0.00001,-0.00056,-0.44106,-0.29500,-1.16929,981.92000,27.09000,294.22000
-0.04007,0.03180,1.00169,-0.00025,0.00001,0.00044,-0.44920,-0.28723,-1.17237,981.90000,27.09000,294.46000
-0.04107,0.03278,1.00073,-0.00025,0.00001,0.00044,-0.45778,-0.28765,-1.18464,981.81000,27.09000,295.17000
-0.04010,0.03284,1.00272,-0.00025,0.00001,-0.00056,-0.44914,-0.27929,-1.18131,982.00000,27.09000,293.56000
-0.03908,0.03279,1.00170,-0.00025,0.00001,-0.00056,-0.44590,-0.27627,-1.16308,981.90000,27.09000,294.46000
-0.04107,0.03278,1.00073,-0.00025,0.00001,-0.00056,-0.44056,-0.28677,-1.15709,981.91000,27.09000,294.38000
-0.03904,0.03172,0.99967,-0.00025,0.00001,-0.00056,-0.44031,-0.28660,-1.14501,981.94000,27.09000,294.08000
-0.04005,0.03177,1.00068,0.00075,0.00001,-0.00056,-0.44031,-0.28660,-1.14501,981.94000,27.09000,294.09000
-0.04105,0.03077,1.00067,0.00075,0.00001,-0.00056,-0.45732,-0.30049,-1.14258,981.89000,27.09000,294.54000
-0.03908,0.03279,1.00170,-0.00025,0.00001,0.00044,-0.45170,-0.30028,-1.13943,981.92000,27.09000,294.27000
-0.04010,0.03284,1.00272,-0.00025,0.00001,0.00044,-0.44002,-0.28903,-1.12693,981.95000,27.09000,294.02000
-0.04005,0.03177,1.00068,-0.00025,0.00001,-0.00056,-0.43503,-0.29714,-1.14203,981.93000,27.09000,294.14000
-0.04105,0.03077,1.00067,0.00075,0.00001,-0.00056,-0.43766,-0.28660,-1.15099,981.88000,27.08000,294.58000
-0.04106,0.03178,1.00070,-0.00025,0.00001,-0.00056,-0.44313,-0.28408,-1.15107,981.91000,27.09000,294.31000
-0.03905,0.03176,1.00067,-0.00025,0.00001,-0.00056,-0.44300,-0.28400,-1.14503,981.87000,27.09000,294.65000
-0.03907,0.03179,1.00167,-0.00025,0.00001,-0.00056,-0.44325,-0.29206,-1.14516,981.92000,27.09000,294.23000
-0.04007,0.03277,1.00072,-0.00025,0.00001,0.00044,-0.45137,-0.28164,-1.15121,981.91000,27.09000,294.36000
-0.04005,0.03177,1.00068,-0.00025,0.00001,0.00044,-0.44603,-0.28425,-1.15717,982.02000,27.09000,293.38000
-0.03905,0.03176,1.00067,0.00075,0.00001,-0.00056,-0.45143,-0.28958,-1.14228,981.93000,27.09000,294.22000
-0.03903,0.03269,0.99870,0.00075,0.00001,0.00044,-0.43987,-0.27841,-1.13582,981.91000,27.09000,294.35000
-0.03904,0.03075,1.00064,0.00075,0.00001,0.00044,-0.45690,-0.27916,-1.15432,981.84000,27.09000,294.93000
-0.04007,0.03180,1.00169,0.00075,0.00001,0.00044,-0.45651,-0.26837,-1.15113,981.94000,27.09000,294.08000
-0.04007,0.03277,1.00072,-0.00025,0.00001,-0.00056,-0.45096,-0.26821,-1.15100,981.92000,27.09000,294.25000
-0.04106,0.03178,1.00070,0.00075,0.00001,-0.00056,-0.44553,-0.27602,-1.14497,981.95000,27.09000,294.01000
-0.04005,0.03177,1.00068,0.00075,0.00001,-0.00056,-0.45429,-0.27656,-1.16629,981.91000,27.09000,294.33000
-0.04104,0.03175,0.99970,-0.00025,0.00001,-0.00056,-0.44041,-0.28404,-1.15403,981.97000,27.09000,293.80000
-0.04002,0.03267,0.99771,-0.00025,0.00001,0.00044,-0.44580,-0.27883,-1.15407,981.96000,27.09000,293.92000
-0.04005,0.03274,0.99972,-0.00025,0.00001,-0.00056,-0.44018,-0.28652,-1.13897,981.91000,27.09000,294.36000
-0.04007,0.03180,1.00169,-0.00025,0.00001,0.00044,-0.45158,-0.28441,-1.15730,981.90000,27.09000,294.42000
-0.03905,0.03176,1.00067,-0.00025,0.00001,-0.00056,-0.45158,-0.28441,-1.15730,981.98000,27.09000,293.71000
-0.03906,0.03276,1.00070,0.00075,0.00001,0.00044,-0.44872,-0.28164,-1.15719,981.96000,27.09000,293.92000
-0.04004,0.03076,1.00065,0.00075,0.00001,-0.00056,-0.44344,-0.28429,-1.16617,981.94000,27.09000,294.06000
-0.03905,0.03273,0.99970,0.00075,0.00001,0.00044,-0.44315,-0.28673,-1.14809,981.89000,27.08000,294.48000
-0.04109,0.03282,1.00174,0.00075,0.00001,0.00044,-0.44313,-0.28408,-1.15107,981.94000,27.09000,294.08000
-0.04107,0.03278,1.00073,0.00075,0.00001,-0.00056,-0.44611,-0.28693,-1.15721,981.89000,27.09000,294.52000
-0.04005,0.03177,1.00068,0.00075,0.00001,-0.00056,-0.44342,-0.28954,-1.15719,981.99000,27.08000,293.63000
-0.04105,0.03275,0.99973,-0.00025,0.00001,0.00044,-0.44342,-0.28954,-1.15719,981.82000,27.09000,295.13000
-0.04107,0.03278,1.00073,0.00075,0.00001,0.00044,-0.44021,-0.28127,-1.14795,981.94000,27.08000,294.11000
-0.04003,0.03073,0.99965,0.00075,0.00001,0.00044,-0.43797,-0.27892,-1.17804,981.93000,27.08000,294.19000
-0.04107,0.03181,1.00170,0.00075,0.00001,-0.00056,-0.44588,-0.28152,-1.15411,981.91000,27.08000,294.39000
-0.04003,0.03073,0.99965,-0.00025,0.00001,-0.00056,-0.44035,-0.28400,-1.15101,981.94000,27.09000,294.07000
-0.04004,0.03173,0.99968,-0.00025,0.00001,-0.00056,-0.43994,-0.27845,-1.13884,981.92000,27.08000,294.29000
-0.04104,0.03175,0.99970,0.00075,0.00001,0.00044,-0.42896,-0.27821,-1.14463,982.04000,27.08000,293.27000
-0.03802,0.03168,0.99865,0.00075,0.00001,0.00044,-0.42896,-0.27821,-1.14463,982.00000,27.08000,293.62000
-0.04008,0.03280,1.00172,-0.00025,0.00001,0.00044,-0.44561,-0.27870,-1.14501,981.90000,27.08000,294.42000
-0.03905,0.03176,1.00067,-0.00025,0.00001,0.00044,-0.44555,-0.27866,-1.14199,982.00000,27.08000,293.58000
-0.04008,0.03280,1.00172,-0.00025,0.00001,0.00044,-0.45145,-0.28433,-1.15126,981.93000,27.08000,294.18000
-0.04003,0.03073,0.99965,0.00075,0.00001,0.00044,-0.45440,-0.28189,-1.16336,981.93000,27.09000,294.20000
-0.03906,0.03276,1.00070,-0.00025,0.00001,-0.00056,-0.44079,-0.29219,-1.16019,981.88000,27.08000,294.60000
-0.04007,0.03277,1.00072,-0.00025,0.00001,-0.00056,-0.43780,-0.28933,-1.15405,981.92000,27.08000,294.24000
-0.03907,0.03179,1.00167,-0.00025,0.00001,-0.00056,-0.43780,-0.28933,-1.15405,981.95000,27.09000,293.98000
-0.04005,0.03177,1.00068,-0.00025,0.00001,-0.00056,-0.44619,-0.28962,-1.15726,981.98000,27.08000,293.71000
-0.04005,0.03177,1.00068,0.00075,0.00001,0.00044,-0.44292,-0.28131,-1.14499,981.90000,27.08000,294.45000
-0.04004,0.03173,0.99968,0.00075,0.00001,0.00044,-0.45152,-0.29226,-1.14233,981.91000,27.08000,294.35000
-0.04005,0.03177,1.00068,-0.00025,0.00001,-0.00056,-0.44632,-0.28971,-1.16330,981.97000,27.08000,293.86000
-0.04007,0.03180,1.00169,-0.00025,0.00001,0.00044,-0.44880,-0.28433,-1.15723,981.95000,27.08000,293.97000
-0.03901,0.03266,0.99770,-0.00025,0.00001,0.00044,-0.45156,-0.28177,-1.16027,981.94000,27.08000,294.11000
-0.04116,0.03197,1.00671,0.00075,0.00001,0.00044,-0.45156,-0.28177,-1.16027,981.98000,27.09000,293.73000
-0.03907,0.03179,1.00167,-0.00025,0.00001,-0.00056,-0.44056,-0.28677,-1.15709,981.99000,27.08000,293.63000
-0.03903,0.03269,0.99870,-0.00025,0.00001,-0.00056,-0.45145,-0.28433,-1.15126,981.99000,27.08000,293.70000
-0.03905,0.03176,1.00067,-0.00025,0.00001,-0.00056,-0.44870,-0.27111,-1.17212,982.00000,27.08000,293.56000
-0.04008,0.03280,1.00172,-0.00025,0.00001,-0.00056,-0.44634,-0.28446,-1.17227,981.92000,27.08000,294.28000
-0.04007,0.03277,1.00072,-0.00025,0.00001,0.00044,-0.44936,-0.29260,-1.17246,981.94000,27.09000,294.11000
-0.03905,0.03273,0.99970,-0.00025,0.00001,0.00044,-0.44325,-0.28416,-1.15711,981.91000,27.08000,294.36000
-0.04106,0.03178,1.00070,0.00075,0.00001,-0.00056,-0.44325,-0.28416,-1.15711,981.92000,27.08000,294.27000
-0.04005,0.03177,1.00068,-0.00025,0.00001,0.00044,-0.44369,-0.29235,-1.16629,981.92000,27.08000,294.27000
-0.04007,0.03277,1.00072,-0.00025,0.00001,0.00044,-0.45450,-0.28723,-1.16042,981.92000,27.08000,294.29000
-0.04004,0.03173,0.99968,-0.00025,0.00001,-0.00056,-0.44605,-0.27900,-1.16615,982.00000,27.08000,293.57000
-0.04003,0.03073,0.99965,0.00075,0.00001,-0.00056,-0.46577,-0.29293,-1.16076,981.92000,27.09000,294.27000
-0.03906,0.03373,0.99973,0.00075,0.00001,-0.00056,-0.46022,-0.28487,-1.17258,981.96000,27.08000,293.88000
-0.03907,0.03179,1.00167,0.00075,0.00001,-0.00056,-0.46041,-0.29289,-1.16969,981.93000,27.08000,294.21000
-0.04107,0.03181,1.00170,0.00075,0.00001,-0.00056,-0.46041,-0.29289,-1.16969,982.01000,27.09000,293.54000
-0.04004,0.03173,0.99968,0.00075,0.00001,0.00044,-0.45431,-0.28710,-1.15136,981.96000,27.08000,293.93000
-0.04107,0.03278,1.00073,0.00075,0.00001,0.00044,-0.44926,-0.29516,-1.16344,981.96000,27.08000,293.89000
-0.04007,0.03180,1.00169,0.00075,0.00001,0.00044,-0.45152,-0.28437,-1.15428,981.93000,27.09000,294.20000
-0.04110,0.03285,1.00274,0.00075,0.00001,-0.00056,-0.44895,-0.29495,-1.14834,981.92000,27.09000,294.28000
-0.04007,0.03180,1.00169,-0.00025,0.00001,0.00044,-0.44350,-0.30012,-1.14528,981.96000,27.08000,293.93000
-0.04009,0.03183,1.00269,-0.00025,0.00001,-0.00056,-0.44586,-0.28677,-1.14514,981.94000,27.08000,294.12000
-0.03897,0.03159,0.99566,-0.00025,0.00001,-0.00056,-0.44611,-0.28693,-1.15721,981.96000,27.08000,293.90000
-0.04010,0.03284,1.00272,0.00075,0.00001,-0.00056,-0.44081,-0.29483,-1.15722,981.90000,27.08000,294.46000
-0.04002,0.03267,0.99771,0.00075,0.00001,-0.00056,-0.44110,-0.30818,-1.15139,981.96000,27.09000,293.94000
-0.04004,0.03173,0.99968,0.00075,0.00001,0.00044,-0.43557,-0.30277,-1.16024,981.95000,27.08000,293.97000
-0.03905,0.03176,1.00067,0.00075,0.00001,0.00044,-0.44688,-0.30587,-1.16657,981.95000,27.08000,293.99000
-0.04017,0.03297,1.00672,0.00075,0.00001,0.00044,-0.42703,-0.29975,-1.15397,981.97000,27.09000,293.79000
-0.03907,0.03179,1.00167,-0.00025,0.00001,0.00044,-0.44074,-0.29479,-1.15420,981.92000,27.08000,294.22000
-0.03904,0.03172,0.99967,-0.00025,0.00001,-0.00056,-0.44077,-0.29743,-1.15122,981.89000,27.08000,294.50000
-0.03999,0.03164,0.99668,-0.00025,0.00001,-0.00056,-0.44354,-0.29752,-1.15128,981.92000,27.09000,294.28000
-0.04008,0.02986,1.00362,-0.00025,0.00001,-0.00056,-0.44110,-0.30818,-1.15139,981.93000,27.08000,294.19000
-0.03902,0.03169,0.99867,-0.00025,0.00001,0.00044,-0.44095,-0.29756,-1.16028,981.89000,27.09000,294.49000
-0.03906,0.03276,1.00070,0.00075,0.00001,-0.00056,-0.45183,-0.29248,-1.15742,981.91000,27.08000,294.31000
-0.04007,0.03277,1.00072,-0.00025,0.00001,-0.00056,-0.42999,-0.30785,-1.15114,981.92000,27.09000,294.30000
-0.03909,0.03380,1.00173,-0.00025,0.00001,0.00044,-0.44335,-0.28950,-1.15417,981.95000,27.09000,294.00000
-0.04002,0.03170,0.99868,-0.00025,0.00001,-0.00056,-0.44338,-0.28425,-1.16315,981.91000,27.09000,294.39000
-0.04107,0.03181,1.00170,0.00075,0.00001,-0.00056,-0.44338,-0.28425,-1.16315,981.98000,27.08000,293.78000
-0.04003,0.03073,0.99965,-0.00025,0.00001,-0.00056,-0.44398,-0.29781,-1.17242,981.94000,27.08000,294.13000
-0.04004,0.03173,0.99968,0.00075,0.00001,-0.00056,-0.44321,-0.28677,-1.15111,981.97000,27.09000,293.80000
-0.04003,0.03073,0.99965,0.00075,0.00001,-0.00056,-0.45154,-0.28702,-1.15130,981.91000,27.08000,294.39000
-0.03906,0.03078,1.00164,0.00075,0.00001,-0.00056,-0.45200,-0.28996,-1.16946,981.94000,27.09000,294.10000
-0.04004,0.03076,1.00065,0.00075,0.00001,-0.00056,-0.43780,-0.28933,-1.15405,981.89000,27.09000,294.53000
-0.04005,0.03274,0.99972,0.00075,0.00001,-0.00056,-0.44360,-0.29756,-1.15430,981.91000,27.08000,294.32000
-0.03909,0.03380,1.00173,0.00075,0.00001,-0.00056,-0.44360,-0.29756,-1.15430,981.92000,27.08000,294.25000
-0.04011,0.03187,1.00369,0.00075,0.00001,-0.00056,-0.44342,-0.28954,-1.15719,981.93000,27.08000,294.20000
-0.04011,0.03187,1.00369,0.00075,0.00001,-0.00056,-0.44634,-0.28446,-1.17227,981.88000,27.08000,294.59000
-0.04109,0.03184,1.00270,0.00075,0.00001,0.00044,-0.44133,-0.29781,-1.17840,981.96000,27.08000,293.92000
-0.04004,0.03173,0.99968,-0.00025,0.00001,-0.00056,-0.44102,-0.28182,-1.18720,981.89000,27.08000,294.48000
-0.04007,0.03277,1.00072,-0.00025,0.00001,-0.00056,-0.44398,-0.29781,-1.17242,981.94000,27.08000,294.09000
-0.04004,0.03173,0.99968,0.00075,0.00001,-0.00056,-0.44406,-0.29261,-1.18441,981.96000,27.08000,293.95000
-0.04104,0.03175,0.99970,0.00075,0.00001,0.00044,-0.44406,-0.29261,-1.18441,981.85000,27.09000,294.83000
-0.04006,0.03080,1.00165,-0.00025,0.00001,-0.00056,-0.44930,-0.28467,-1.18139,981.97000,27.08000,293.82000
-0.03904,0.03172,0.99967,-0.00025,0.00001,0.00044,-0.44093,-0.28702,-1.17521,981.98000,27.08000,293.75000
-0.04004,0.03173,0.99968,0.00075,0.00001,0.00044,-0.45214,-0.29269,-1.17252,981.94000,27.08000,294.13000
-0.04007,0.03180,1.00169,-0.00025,0.00001,0.00044,-0.43822,-0.30277,-1.15426,981.91000,27.08000,294.34000
-0.04007,0.03277,1.00072,0.00075,-0.00099,0.00044,-0.44609,-0.28429,-1.16019,981.91000,27.08000,294.37000
-0.03905,0.03176,1.00067,-0.00025,0.00001,-0.00056,-0.45179,-0.28719,-1.16338,981.95000,27.09000,294.04000
-0.03906,0.03078,1.00164,-0.00025,0.00001,-0.00056,-0.45179,-0.28719,-1.16338,981.98000,27.08000,293.79000
-0.04004,0.03371,0.99875,-0.00025,0.00001,-0.00056,-0.44905,-0.29239,-1.15736,981.96000,27.08000,293.88000
-0.04100,0.03265,0.99673,-0.00025,0.00001,0.00044,-0.44363,-0.29231,-1.16328,981.91000,27.08000,294.39000
-0.04007,0.03277,1.00072,0.00075,0.00001,0.00044,-0.45709,-0.28718,-1.15142,981.98000,27.08000,293.74000
-0.04007,0.03180,1.00169,0.00075,0.00001,-0.00056,-0.44883,-0.27119,-1.17816,981.92000,27.09000,294.27000
-0.04110,0.03087,1.00367,0.00075,0.00001,-0.00056,-0.44924,-0.29252,-1.16642,981.89000,27.09000,294.55000
-0.04009,0.03183,1.00269,0.00075,0.00001,-0.00056,-0.44590,-0.28416,-1.15113,981.95000,27.08000,293.98000
-0.04013,0.03290,1.00472,0.00075,0.00001,-0.00056,-0.44590,-0.28416,-1.15113,981.98000,27.08000,293.77000
-0.04110,0.03087,1.00367,0.00075,0.00001,-0.00056,-0.44311,-0.28144,-1.15405,981.90000,27.08000,294.45000
