timestamp,ax,ay,az,gx,gy,gz,mx,my,mz,altitude,relative_altitude
041225_03.58.17.762,-0.92900,0.76000,0.63500,-75.74000,-4.72500,-90.98200,0.13600,0.24600,-0.33800,82.84000,0.00000
041225_03.58.17.774,-0.90300,0.73600,0.62700,-85.52200,17.74500,-99.80200,0.14500,0.25900,-0.33200,82.42000,-0.42000
041225_03.58.17.785,-0.80400,0.79100,0.67600,-88.60300,33.65300,-107.67700,0.14500,0.25900,-0.33200,83.42000,1.00000
041225_03.58.17.797,-0.87700,0.69400,0.71400,-87.92000,44.41500,-112.14000,0.15400,0.28300,-0.32400,82.98000,-0.44000
041225_03.58.17.808,-0.90700,0.54700,0.77600,-85.64500,54.68800,-133.24500,0.15700,0.30500,-0.31900,83.20000,0.22000
041225_03.58.17.820,-1.20500,0.49200,0.81200,-81.83000,42.08800,-145.61800,0.16600,0.33000,-0.31100,83.22000,0.02000
041225_03.58.17.832,-1.32600,-0.03600,1.04400,-78.50500,18.23500,-155.92500,0.17200,0.36200,-0.30400,82.87000,-0.35000
041225_03.58.17.843,-1.65700,-0.28000,1.17700,-84.96300,-11.81300,-184.53800,0.17200,0.36200,-0.30400,83.55000,0.68000
041225_03.58.17.855,-1.89700,-0.21200,1.37800,-92.80200,-34.91200,-217.24500,0.18000,0.40100,-0.30800,82.49000,-1.06000
041225_03.58.17.867,-1.98400,-0.14200,1.41300,-88.20000,-50.29500,-250.77500,0.18500,0.45500,-0.31300,82.56000,0.07000
041225_03.58.17.879,-1.82800,0.17100,1.46300,-93.60700,-55.45800,-289.97500,0.18500,0.52600,-0.31900,82.40000,-0.16000
041225_03.58.17.891,-1.46800,0.48700,1.38300,-114.27500,-66.62200,-323.34800,0.16900,0.60300,-0.31900,83.09000,0.69000
041225_03.58.17.902,-1.29600,0.57700,1.28500,-129.37800,-83.03700,-332.55200,0.16900,0.60300,-0.31900,82.74000,-0.35000
041225_03.58.17.914,-1.08200,0.63900,1.09300,-140.99700,-96.14500,-322.17500,0.13300,0.67800,-0.30700,82.46000,-0.28000
041225_03.58.17.926,-0.88500,0.64800,0.92800,-146.24700,-105.71700,-297.88500,0.09200,0.73100,-0.29100,82.87000,0.41000
041225_03.58.17.937,-0.85100,0.44000,0.81200,-143.37800,-113.41800,-218.87200,0.04500,0.75500,-0.27800,82.58000,-0.29000
041225_03.58.17.949,-1.01900,-0.04200,0.67000,-143.44700,-102.21700,-188.14300,0.01400,0.76400,-0.25800,82.47000,-0.11000
041225_03.58.17.961,-1.00500,-0.06100,0.55300,-144.46200,-84.07000,-173.49500,0.01400,0.76400,-0.25800,82.68000,0.21000
041225_03.58.17.974,-0.88700,-0.18200,0.47800,-144.07700,-62.77200,-163.76500,-0.02300,0.77100,-0.24100,82.21000,-0.47000
041225_03.58.17.985,-0.82900,-0.26300,0.45600,-140.98000,-47.79200,-153.00300,-0.05200,0.76900,-0.23000,82.82000,0.61000
041225_03.58.17.997,-0.83200,-0.44200,0.49000,-130.25300,-34.54500,-146.40500,-0.07900,0.77100,-0.22000,82.78000,-0.04000
041225_03.58.18.009,-0.76500,-0.48200,0.48800,-128.48500,-22.96000,-147.82200,-0.10400,0.76400,-0.20600,83.15000,0.37000
041225_03.58.18.021,-0.67500,-0.53500,0.46600,-123.86500,-14.82300,-151.97000,-0.10400,0.76400,-0.20600,82.54000,-0.61000
041225_03.58.18.033,-0.53900,-0.51800,0.44700,-118.75500,-8.26000,-155.48800,-0.12200,0.76000,-0.18900,82.29000,-0.25000
041225_03.58.18.044,-0.41300,-0.50700,0.43600,-116.83000,-3.15000,-157.39500,-0.15000,0.74800,-0.18300,82.87000,0.58000
041225_03.58.18.056,-0.38900,-0.50100,0.39600,-116.67300,2.66000,-156.20500,-0.17400,0.73900,-0.16400,83.03000,0.16000
041225_03.58.18.068,-0.23800,-0.51100,0.31500,-113.71500,32.53300,-157.53500,-0.19900,0.72500,-0.15600,82.08000,-0.95000
041225_03.58.18.080,0.00300,-0.26500,0.38500,-107.31000,42.91000,-148.59200,-0.19900,0.72500,-0.15600,82.90000,0.82000
041225_03.58.18.091,0.07500,-0.47000,0.29000,-94.44800,26.54800,-137.91700,-0.23400,0.72200,-0.13200,83.12000,0.22000
041225_03.58.18.103,0.05900,-0.56800,0.10900,-79.99300,18.25300,-139.33500,-0.26000,0.71200,-0.12100,82.87000,-0.25000
041225_03.58.18.115,0.08900,-0.53300,0.13600,-69.47500,25.51500,-143.51800,-0.28500,0.70300,-0.11300,82.48000,-0.39000
041225_03.58.18.126,0.04900,-0.55500,0.23500,-57.82000,27.63200,-142.64300,-0.31200,0.70200,-0.11100,82.55000,0.07000
041225_03.58.18.138,0.01200,-0.60100,0.18500,-48.59700,19.67000,-148.55700,-0.31200,0.70200,-0.11100,83.37000,0.82000
041225_03.58.18.150,0.10000,-0.59100,0.11900,-40.58300,12.26700,-157.74500,-0.34100,0.69200,-0.09100,83.10000,-0.27000
041225_03.58.18.161,0.12100,-0.57100,0.06900,-34.59700,9.46700,-161.07000,-0.36500,0.68500,-0.08600,83.01000,-0.09000
041225_03.58.18.173,0.16800,-0.41600,0.06400,-37.94000,16.01300,-162.19000,-0.39400,0.67300,-0.07800,83.06000,0.05000
041225_03.58.18.185,0.30200,-0.42600,-0.06300,-41.73700,37.20500,-151.04200,-0.42300,0.65900,-0.07900,83.61000,0.55000
041225_03.58.18.196,0.36000,-0.36700,0.06300,-45.50000,51.45000,-144.74300,-0.42300,0.65900,-0.07900,83.08000,-0.53000
041225_03.58.18.208,0.34900,-0.35400,0.07100,-46.16500,62.37000,-143.92000,-0.45500,0.64400,-0.07300,83.26000,0.18000
041225_03.58.18.220,0.34000,-0.43400,0.06000,-40.63500,63.12300,-146.68500,-0.48200,0.62100,-0.06900,83.57000,0.31000
041225_03.58.18.231,0.38300,-0.51100,0.02600,-34.68500,56.19300,-149.41500,-0.51600,0.60200,-0.07500,83.89000,0.32000
041225_03.58.18.243,0.47300,-0.53300,-0.03300,-28.08700,48.61500,-147.99700,-0.54100,0.58100,-0.07400,83.71000,-0.18000
041225_03.58.18.255,0.49400,-0.46200,-0.07200,-18.07700,46.27000,-140.54200,-0.54100,0.58100,-0.07400,83.21000,-0.50000
041225_03.58.18.267,0.36800,-0.46200,0.07300,-4.81200,39.63800,-131.37200,-0.56100,0.56300,-0.07100,83.25000,0.04000
041225_03.58.18.278,0.20400,-0.42600,0.06300,2.80000,27.30000,-130.18200,-0.57600,0.54500,-0.07400,82.68000,-0.57000
041225_03.58.18.290,0.18800,-0.22100,-0.05500,9.62500,27.35300,-141.85500,-0.59400,0.52700,-0.07200,83.20000,0.52000
041225_03.58.18.302,0.42200,-0.06100,-0.08800,16.48500,37.88800,-145.18000,-0.61500,0.50300,-0.08100,83.16000,-0.04000
041225_03.58.18.313,0.57500,-0.03400,0.11400,-19.12800,88.09500,-107.48500,-0.61500,0.50300,-0.08100,82.95000,-0.21000
041225_03.58.18.325,0.77900,0.10100,0.18400,-52.08000,106.13700,-86.34500,-0.63700,0.47200,-0.09300,83.07000,0.12000
041225_03.58.18.336,0.49300,0.04900,0.40800,-55.37000,105.92700,-80.23800,-0.65600,0.44600,-0.10700,83.59000,0.52000
041225_03.58.18.348,0.65600,0.07500,0.34800,-50.10300,119.75300,-94.11500,-0.67700,0.41000,-0.13400,82.85000,-0.74000
041225_03.58.18.360,0.67200,0.14400,0.36800,-44.81800,128.31000,-109.83000,-0.69100,0.37500,-0.15200,82.64000,-0.21000
041225_03.58.18.371,0.57400,0.05900,0.48100,-34.87700,123.41000,-119.24500,-0.69100,0.37500,-0.15200,83.22000,0.58000
041225_03.58.18.383,0.40700,-0.15400,0.55400,-22.59300,107.69500,-127.40000,-0.69900,0.34100,-0.16500,83.53000,0.31000
041225_03.58.18.395,0.59500,-0.57100,0.51100,-12.84500,82.60000,-134.85500,-0.69600,0.30600,-0.17000,83.24000,-0.29000
041225_03.58.18.406,0.59900,-0.75400,0.40700,1.12000,51.43200,-137.62000,-0.68400,0.27600,-0.18100,83.00000,-0.24000
041225_03.58.18.418,0.71000,-0.37000,0.50000,9.17000,40.02200,-132.87800,-0.65900,0.25700,-0.19000,83.23000,0.23000
041225_03.58.18.430,0.84900,0.14600,0.50200,3.81500,50.82000,-130.49700,-0.65900,0.25700,-0.19000,82.86000,-0.37000
041225_03.58.18.441,0.95800,0.29600,0.51500,5.98500,70.98000,-104.52800,-0.64100,0.24100,-0.20100,83.05000,0.19000
041225_03.58.18.453,1.13700,0.38600,0.74700,6.19500,71.69800,-89.30200,-0.62300,0.24000,-0.21000,83.41000,0.36000
041225_03.58.18.464,1.17000,0.45500,0.77300,4.11300,73.97300,-75.33800,-0.61200,0.24200,-0.23100,83.43000,0.02000
041225_03.58.18.476,1.12200,0.48700,0.68700,10.30700,79.81700,-59.99000,-0.60800,0.25000,-0.24000,82.97000,-0.46000
041225_03.58.18.488,1.01100,0.41900,0.70000,30.71200,90.12500,-47.05700,-0.60800,0.25000,-0.24000,83.52000,0.55000
041225_03.58.18.500,0.91100,0.28800,0.76400,50.68000,91.68300,-45.71000,-0.61300,0.26800,-0.25900,83.61000,0.09000
041225_03.58.18.511,0.91400,0.22000,0.71000,62.77200,80.79800,-51.95800,-0.61500,0.28100,-0.27400,82.86000,-0.75000
041225_03.58.18.523,0.85000,0.22200,0.67100,81.14700,60.72500,-55.31800,-0.60900,0.29200,-0.28900,83.32000,0.46000
041225_03.58.18.535,0.71500,0.27900,0.75200,100.94000,44.97500,-54.56500,-0.59700,0.30300,-0.29800,83.13000,-0.19000
041225_03.58.18.547,0.57200,0.27800,0.80800,111.87800,36.71500,-52.65800,-0.59700,0.30300,-0.29800,82.95000,-0.18000
041225_03.58.18.558,0.56700,0.13900,0.73600,108.83300,30.67700,-54.07500,-0.58900,0.31000,-0.30700,83.37000,0.42000
041225_03.58.18.570,0.91400,0.35800,0.67800,74.21700,3.92000,-58.95800,-0.57800,0.31600,-0.31700,83.12000,-0.25000
041225_03.58.18.582,0.77900,0.28400,0.44100,41.00200,12.40800,-59.41200,-0.56400,0.31700,-0.33200,82.88000,-0.24000
041225_03.58.18.593,0.72000,0.24000,0.55500,2.20500,30.62500,-62.26500,-0.55700,0.31500,-0.35200,84.11000,1.23000
041225_03.58.18.605,0.54200,0.23600,0.67000,-33.09200,49.87500,-64.90800,-0.55700,0.31500,-0.35200,83.33000,-0.78000
041225_03.58.18.617,0.41700,0.24200,0.79700,-56.00000,69.98200,-66.39500,-0.53800,0.31300,-0.37000,83.31000,-0.02000
041225_03.58.18.629,0.37500,0.14800,0.90000,-60.46300,81.39300,-66.41200,-0.52700,0.30500,-0.39600,82.80000,-0.51000
041225_03.58.18.641,0.37100,0.10200,0.94300,-55.87700,85.66200,-67.39300,-0.50800,0.30700,-0.42000,83.22000,0.42000
041225_03.58.18.652,0.34100,0.16900,0.96900,-47.05700,85.85500,-70.22800,-0.48200,0.31600,-0.44500,83.66000,0.44000
041225_03.58.18.664,0.32300,0.31500,0.94800,-35.10500,89.84500,-72.50300,-0.48200,0.31600,-0.44500,83.20000,-0.46000
041225_03.58.18.676,0.29800,0.45900,0.93300,-20.23000,97.51000,-71.96000,-0.45200,0.33100,-0.46400,83.17000,-0.03000
041225_03.58.18.687,0.04000,0.42600,0.79700,-7.10500,108.51800,-64.19000,-0.42300,0.34600,-0.47300,83.22000,0.05000
041225_03.58.18.699,-0.06800,0.33100,1.03800,-19.65300,141.27700,-63.80500,-0.38500,0.37400,-0.48100,83.16000,-0.06000
041225_03.58.18.710,0.38000,0.67400,1.01700,-11.79500,112.43800,-76.00300,-0.34200,0.40300,-0.48300,82.82000,-0.34000
041225_03.58.18.722,0.38500,0.62900,0.91900,-11.60200,95.06000,-78.17300,-0.34200,0.40300,-0.48300,82.95000,0.13000
041225_03.58.18.734,0.35300,0.53200,0.99200,-25.07700,82.70500,-70.31500,-0.30500,0.44100,-0.47300,82.85000,-0.10000
041225_03.58.18.745,0.32000,0.33700,1.12900,-48.75500,75.81000,-62.70200,-0.27500,0.48800,-0.44900,83.20000,0.35000
041225_03.58.18.757,0.33400,0.25700,1.30400,-80.01000,73.41200,-59.99000,-0.24700,0.53500,-0.41400,83.27000,0.07000
041225_03.58.18.769,0.41600,0.30300,1.40100,-111.05500,68.63500,-59.04500,-0.22600,0.58300,-0.36800,83.43000,0.16000
041225_03.58.18.780,0.37600,0.24000,1.49700,-137.83000,62.16000,-54.07500,-0.22600,0.58300,-0.36800,83.00000,-0.43000
041225_03.58.18.792,0.54500,0.21200,1.53900,-163.27500,51.46700,-47.74000,-0.21000,0.62100,-0.31400,83.36000,0.36000
041225_03.58.18.804,0.50400,0.24700,1.52100,-182.68200,36.38200,-39.49800,-0.20700,0.63900,-0.23400,83.37000,0.01000
041225_03.58.18.815,0.36800,0.27200,1.43700,-195.33500,14.89200,-26.05800,-0.20500,0.63400,-0.16000,82.88000,-0.49000
041225_03.58.18.827,0.26100,0.20800,1.29800,-209.44000,8.94300,-22.08500,-0.20300,0.60500,-0.08700,83.43000,0.55000
041225_03.58.18.838,0.11600,0.15600,1.32600,-216.35300,12.89800,-14.70000,-0.20300,0.60500,-0.08700,83.09000,-0.34000
041225_03.58.18.850,0.10000,0.04000,1.37900,-230.19500,22.59300,-4.28700,-0.21200,0.54900,-0.01500,83.22000,0.13000
041225_03.58.18.862,0.12400,-0.04800,1.42500,-248.34200,34.49300,9.43200,-0.23100,0.47000,0.03700,83.07000,-0.15000
041225_03.58.18.874,0.18100,-0.09800,1.40600,-259.26300,44.76500,26.72200,-0.25200,0.36400,0.06500,83.09000,0.02000
041225_03.58.18.886,0.25300,-0.14400,1.43800,-256.48000,55.00200,42.03500,-0.28700,0.26200,0.06100,83.04000,-0.05000
041225_03.58.18.897,0.38800,-0.23400,1.34400,-258.05500,60.41000,52.99000,-0.28700,0.26200,0.06100,82.58000,-0.46000
041225_03.58.18.909,0.42000,-0.21300,1.26800,-266.07000,64.54000,58.11800,-0.32900,0.15900,0.02700,83.19000,0.61000
041225_03.58.18.921,0.37400,-0.25700,1.22300,-275.18700,68.35500,65.69500,-0.37100,0.07500,-0.03400,83.39000,0.20000
041225_03.58.18.932,0.27800,-0.32300,1.13400,-283.74500,69.28300,74.55000,-0.41200,0.01200,-0.10800,82.78000,-0.61000
041225_03.58.18.944,0.19600,-0.43900,1.00200,-285.25000,67.28700,83.03700,-0.44600,-0.02600,-0.18600,83.43000,0.65000
041225_03.58.18.956,0.04700,-0.51100,0.73800,-263.37500,68.37200,74.90000,-0.44600,-0.02600,-0.18600,82.94000,-0.49000
041225_03.58.18.967,-0.15000,-0.46000,0.65400,-246.29500,68.79300,67.86500,-0.47100,-0.03700,-0.26300,82.91000,-0.03000
041225_03.58.18.979,-0.15600,-0.44800,0.61300,-230.61500,69.59800,66.58800,-0.48900,-0.03100,-0.32500,83.48000,0.57000
041225_03.58.18.991,-0.13200,-0.53900,0.60700,-220.67500,71.24300,68.47800,-0.50500,-0.01200,-0.38900,83.80000,0.32000
041225_03.58.19.003,-0.16100,-0.65700,0.61100,-219.36300,73.04500,69.51000,-0.52000,0.01600,-0.43800,83.03000,-0.77000
041225_03.58.19.014,-0.20100,-0.73100,0.58400,-224.99700,75.65300,67.16500,-0.52000,0.01600,-0.43800,83.18000,0.15000
041225_03.58.19.026,-0.17100,-0.72300,0.52500,-230.28300,74.49700,61.79200,-0.52900,0.04000,-0.48200,83.33000,0.15000
041225_03.58.19.038,-0.20400,-0.78100,0.40700,-232.55700,64.85500,56.12300,-0.53300,0.07800,-0.52100,82.90000,-0.43000
041225_03.58.19.049,-0.30200,-0.74400,0.35800,-229.32000,58.43200,42.36800,-0.53100,0.11300,-0.54100,83.39000,0.49000
041225_03.58.19.061,-0.24400,-0.70900,0.34100,-222.72300,56.31500,29.41700,-0.52100,0.14200,-0.56700,82.81000,-0.58000
041225_03.58.19.073,-0.12300,-0.59300,0.33000,-211.90800,39.02500,28.73500,-0.52100,0.14200,-0.56700,82.98000,0.17000
041225_03.58.19.085,-0.09300,-0.91000,0.29500,-221.34000,23.80000,35.45500,-0.51400,0.17700,-0.57200,82.51000,-0.47000
041225_03.58.19.097,-0.15100,-1.04900,0.19600,-242.37500,7.89200,39.84700,-0.50400,0.21300,-0.57700,82.71000,0.20000
041225_03.58.19.108,-0.25100,-1.16300,0.06500,-264.33700,-9.57300,37.64300,-0.49100,0.24800,-0.56100,82.52000,-0.19000
041225_03.58.19.120,-0.39800,-1.14700,-0.12900,-280.77000,-26.82700,31.15000,-0.47500,0.28100,-0.54600,82.68000,0.16000
041225_03.58.19.132,-0.67800,-1.42700,-0.38600,-285.63500,-33.89700,26.74000,-0.47500,0.28100,-0.54600,82.80000,0.12000
041225_03.58.19.143,-0.62300,-1.12600,-0.43600,-276.02700,-17.79800,20.84300,-0.46000,0.31700,-0.52900,82.71000,-0.09000
041225_03.58.19.155,-0.57600,-0.97900,-0.35200,-253.85500,-6.33500,5.46000,-0.43500,0.35400,-0.50600,82.42000,-0.29000
041225_03.58.19.167,-0.50700,-0.85100,-0.28500,-252.89300,-0.59500,-7.38500,-0.41900,0.38000,-0.49100,82.92000,0.50000
041225_03.58.19.179,-0.41600,-0.78300,-0.17000,-261.69500,10.93800,-16.50300,-0.39800,0.40900,-0.45600,83.16000,0.24000
041225_03.58.19.190,-0.25200,-0.63700,-0.10900,-273.96200,16.83500,-20.75500,-0.39800,0.40900,-0.45600,83.10000,-0.06000
041225_03.58.19.202,-0.22000,-0.29100,-0.21200,-286.02000,1.90800,-5.00500,-0.38000,0.43100,-0.42100,83.42000,0.32000
041225_03.58.19.214,-0.42400,0.07600,-0.51700,-298.60300,-3.69300,-1.50500,-0.35900,0.43600,-0.38700,83.31000,-0.11000
041225_03.58.19.225,-0.46200,0.18200,-0.68600,-305.27000,0.03500,4.72500,-0.33100,0.43900,-0.34400,83.64000,0.33000
041225_03.58.19.237,-0.53300,0.31900,-0.84700,-300.10800,5.65300,12.74000,-0.31600,0.43100,-0.31100,83.48000,-0.16000
041225_03.58.19.249,-0.55000,0.57800,-0.98800,-276.65800,16.99300,24.62200,-0.31600,0.43100,-0.31100,83.37000,-0.11000
041225_03.58.19.261,-0.45300,0.51200,-1.06500,-236.28500,22.89000,27.38800,-0.30100,0.42500,-0.27800,83.52000,0.15000
041225_03.58.19.272,-0.51400,0.47600,-1.18700,-200.37500,13.56300,18.49700,-0.28700,0.41900,-0.24900,83.75000,0.23000
041225_03.58.19.284,-0.63400,0.41100,-1.22900,-167.61500,11.81300,7.10500,-0.28200,0.41400,-0.22600,83.28000,-0.47000
041225_03.58.19.296,-0.66800,0.29200,-1.16200,-140.89300,21.01700,-6.63300,-0.28400,0.41000,-0.19900,83.19000,-0.09000
041225_03.58.19.307,-0.50100,0.20800,-0.90400,-129.39500,29.57500,-20.35300,-0.28400,0.41000,-0.19900,84.03000,0.84000
041225_03.58.19.319,-0.46400,0.21300,-0.84800,-126.03500,30.74700,-27.94800,-0.29500,0.40800,-0.18500,83.43000,-0.60000
041225_03.58.19.331,-0.44200,0.22100,-0.80300,-115.20200,33.49500,-34.38800,-0.30000,0.40600,-0.15800,83.98000,0.55000
041225_03.58.19.342,-0.41000,0.21100,-0.67200,-115.86800,29.24300,-46.37500,-0.31100,0.40000,-0.13800,83.50000,-0.48000
041225_03.58.19.354,-0.33400,0.21000,-0.71100,-121.88700,28.98000,-52.43000,-0.32600,0.38800,-0.11700,84.10000,0.60000
041225_03.58.19.366,-0.33400,0.30000,-0.64100,-116.07700,26.81000,-48.14300,-0.32600,0.38800,-0.11700,83.41000,-0.69000
041225_03.58.19.378,-0.38600,0.42200,-0.58300,-109.63700,19.65300,-45.58800,-0.34100,0.37500,-0.10100,83.15000,-0.26000
041225_03.58.19.390,-0.45600,0.53600,-0.46000,-107.57300,14.45500,-51.36200,-0.35500,0.35700,-0.09000,83.61000,0.46000
041225_03.58.19.402,-0.42600,0.66600,-0.39400,-105.03500,8.90800,-61.47800,-0.36100,0.34200,-0.09000,83.55000,-0.06000
041225_03.58.19.413,-0.41100,0.71800,-0.44700,-95.84800,1.31200,-69.47500,-0.36900,0.32600,-0.08000,83.42000,-0.13000
041225_03.58.19.425,-0.46600,0.72700,-0.53300,-77.82300,-7.57700,-75.58200,-0.36900,0.32600,-0.08000,84.55000,1.13000
041225_03.58.19.437,-0.50900,0.69000,-0.59300,-55.30000,-12.86300,-78.85500,-0.37900,0.31200,-0.07400,83.48000,-1.07000
041225_03.58.19.449,-0.53500,0.57200,-0.60900,-32.86500,-13.28300,-81.46300,-0.38500,0.30600,-0.06600,83.56000,0.08000
041225_03.58.19.461,-0.57200,0.46500,-0.53000,-4.11300,-7.91000,-85.19000,-0.38900,0.29800,-0.06900,84.03000,0.47000
041225_03.58.19.472,-0.60100,0.51000,-0.44800,1.94200,-7.85800,-91.64700,-0.39100,0.29200,-0.06500,83.97000,-0.06000
041225_03.58.19.484,-0.62000,0.44000,-0.45200,8.69800,-11.02500,-98.63000,-0.39100,0.29200,-0.06500,83.86000,-0.11000
041225_03.58.19.495,-0.70000,0.30200,-0.44200,13.91300,-16.03000,-107.32700,-0.39700,0.28700,-0.05900,83.52000,-0.34000
041225_03.58.19.507,-0.73900,0.27600,-0.39500,14.26200,-21.43700,-121.08300,-0.39700,0.27900,-0.05400,83.77000,0.25000
041225_03.58.19.519,-0.77000,0.35800,-0.27000,7.42000,-26.60000,-141.24300,-0.39200,0.27000,-0.05300,83.79000,0.02000
041225_03.58.19.531,-0.82900,0.51200,-0.18200,-3.44700,-36.22500,-164.23800,-0.38300,0.25400,-0.05100,83.02000,-0.77000
041225_03.58.19.543,-0.89800,0.72500,-0.20800,-14.84000,-47.68800,-185.41300,-0.38300,0.25400,-0.05100,83.23000,0.21000
041225_03.58.19.555,-0.93300,0.86600,-0.27600,-21.08700,-52.79800,-199.95500,-0.37000,0.24600,-0.05200,83.16000,-0.07000
041225_03.58.19.566,-0.95300,0.81400,-0.41100,-16.22200,-50.33000,-207.41000,-0.34800,0.23100,-0.05100,83.18000,0.02000
041225_03.58.19.578,-1.04400,0.60400,-0.46800,1.26000,-38.02800,-218.89000,-0.32700,0.22300,-0.04400,82.69000,-0.49000
041225_03.58.19.590,-1.14900,0.25300,-0.59500,45.23700,-28.70000,-226.64300,-0.30700,0.22800,-0.04200,83.57000,0.88000
041225_03.58.19.601,-1.20200,0.23200,-0.57200,63.01800,-19.74000,-232.87200,-0.30700,0.22800,-0.04200,84.10000,0.53000
041225_03.58.19.613,-1.10100,0.15900,-0.61000,76.89500,-14.80500,-234.85000,-0.30000,0.23900,-0.03900,83.47000,-0.63000
041225_03.58.19.625,-1.02900,-0.01600,-0.62300,88.39300,-4.58500,-229.44300,-0.28200,0.25600,-0.03600,83.08000,-0.39000
041225_03.58.19.637,-0.93400,-0.20600,-0.54900,103.60000,12.21500,-219.15200,-0.27700,0.27700,-0.02800,83.15000,0.07000
041225_03.58.19.648,-0.86500,-0.21100,-0.47500,125.21300,19.89800,-202.44000,-0.27500,0.30800,-0.02100,83.87000,0.72000
041225_03.58.19.660,-0.83500,-0.16500,-0.31700,145.16300,16.81700,-183.12000,-0.27500,0.30800,-0.02100,83.09000,-0.78000
041225_03.58.19.672,-0.89900,-0.31000,-0.10800,157.71000,9.50200,-168.07000,-0.27100,0.34000,-0.01200,83.88000,0.79000
041225_03.58.19.684,-0.96600,-0.46200,-0.06000,168.84000,-0.59500,-161.59500,-0.27400,0.38500,-0.01400,83.87000,-0.01000
041225_03.58.19.695,-0.90700,-0.50300,-0.13900,177.53800,-10.99000,-162.83700,-0.27300,0.42500,-0.01600,83.25000,-0.62000
041225_03.58.19.707,-0.78900,-0.52600,-0.10700,179.32200,-27.63200,-156.24000,-0.26900,0.45900,-0.02300,84.21000,0.96000
041225_03.58.19.719,-0.23800,-0.67300,0.28900,174.73800,-57.20800,-154.05300,-0.26900,0.45900,-0.02300,83.27000,-0.94000
041225_03.58.19.730,-0.65000,-0.60900,0.07600,144.42800,-78.78500,-133.75300,-0.26100,0.49400,-0.02600,83.48000,0.21000
041225_03.58.19.742,-0.85100,-0.51500,-0.27100,125.58000,-80.32500,-106.69800,-0.24800,0.52700,-0.03500,83.35000,-0.13000
041225_03.58.19.754,-0.83400,-0.61600,-0.16100,123.06000,-74.34000,-83.09000,-0.23800,0.54800,-0.04600,82.71000,-0.64000
041225_03.58.19.766,-0.69800,-0.60000,-0.16400,127.52200,-58.99300,-74.93500,-0.22800,0.57200,-0.06000,83.51000,0.80000
041225_03.58.19.777,-0.59700,-0.53100,-0.15000,131.63500,-40.89700,-58.39700,-0.22800,0.57200,-0.06000,82.86000,-0.65000
041225_03.58.19.789,-0.54600,-0.61600,-0.10300,149.29200,-26.32000,-40.88000,-0.22400,0.60400,-0.06800,83.37000,0.51000
041225_03.58.19.801,-0.50200,-0.75300,0.02300,172.48000,-14.19300,-31.20200,-0.22700,0.64000,-0.07700,84.07000,0.70000
041225_03.58.19.812,-0.49000,-0.86700,0.19300,194.30300,-4.91800,-30.22200,-0.22900,0.68100,-0.10400,83.12000,-0.95000
041225_03.58.19.824,-0.46000,-0.89600,0.28800,209.59800,1.33000,-34.77200,-0.22400,0.71800,-0.13500,83.31000,0.19000
041225_03.58.19.836,-0.47800,-0.95700,0.33400,211.33000,5.49500,-40.79200,-0.22400,0.71800,-0.13500,82.73000,-0.58000
041225_03.58.19.848,-0.61200,-1.14400,0.49900,183.90800,8.61000,-49.43800,-0.22400,0.74700,-0.16100,82.74000,0.01000
041225_03.58.19.859,-0.63600,-1.36200,0.59000,133.64800,-6.82500,-79.67700,-0.22800,0.77500,-0.18100,82.98000,0.24000
041225_03.58.19.871,-0.53700,-1.20700,0.41900,73.01000,-19.21500,-91.24500,-0.23400,0.78800,-0.18600,82.38000,-0.60000
041225_03.58.19.883,-0.54700,-1.09500,0.28300,40.72200,-13.66800,-87.86800,-0.24400,0.79300,-0.19200,82.49000,0.11000
041225_03.58.19.894,-0.49700,-1.05200,0.25600,34.75500,3.50000,-85.20700,-0.24400,0.79300,-0.19200,82.44000,-0.05000
041225_03.58.19.906,-0.45000,-1.06400,0.31600,43.36500,20.19500,-85.71500,-0.25700,0.79600,-0.19900,82.39000,-0.05000
041225_03.58.19.918,-0.44800,-1.07000,0.39500,56.07000,31.78000,-90.37000,-0.26800,0.80700,-0.21300,82.52000,0.13000
041225_03.58.19.929,-0.48200,-1.04400,0.44200,66.48200,39.25200,-97.44000,-0.28500,0.81400,-0.22300,83.00000,0.48000
041225_03.58.19.941,-0.50200,-0.93700,0.44800,75.00500,46.70800,-103.86300,-0.30700,0.82400,-0.23200,82.81000,-0.19000
041225_03.58.19.953,-0.47600,-0.93100,0.47700,83.14300,57.62700,-106.68000,-0.30700,0.82400,-0.23200,82.15000,-0.66000
041225_03.58.19.965,-0.38100,-0.97800,0.47300,97.73800,76.86000,-92.26000,-0.32300,0.83000,-0.25400,82.95000,0.80000
041225_03.58.19.976,-0.21000,-1.11000,0.37900,99.99500,78.10300,-71.19000,-0.34600,0.84100,-0.26700,82.46000,-0.49000
041225_03.58.19.988,-0.19800,-1.13200,0.32600,100.95700,76.16000,-44.59000,-0.36000,0.85300,-0.29000,82.42000,-0.04000
041225_03.58.20.000,-0.23400,-1.23000,0.40100,104.51000,73.93800,-25.58500,-0.36500,0.86000,-0.31100,83.05000,0.63000
041225_03.58.20.012,-0.28000,-1.28100,0.48000,104.91200,75.91500,-22.99500,-0.36500,0.86000,-0.31100,82.82000,-0.23000
041225_03.58.20.023,-0.34100,-1.25300,0.54400,100.57300,85.03300,-25.28800,-0.37900,0.86600,-0.33300,82.04000,-0.78000
041225_03.58.20.035,-0.31800,-1.18400,0.62300,94.29000,95.49700,-30.31000,-0.38500,0.87300,-0.35200,82.92000,0.88000
041225_03.58.20.047,-0.27500,-1.15000,0.69800,92.40000,97.54500,-36.82000,-0.39300,0.87500,-0.37800,83.12000,0.20000
041225_03.58.20.059,-0.20300,-1.14500,0.79000,94.64000,92.40000,-39.21700,-0.40500,0.87600,-0.39400,82.70000,-0.42000
041225_03.58.20.070,-0.47500,-1.05600,0.67000,95.95200,83.49300,-39.91700,-0.40500,0.87600,-0.39400,82.94000,0.24000
041225_03.58.20.082,-0.64000,-0.92000,0.50400,106.89000,87.32500,-78.03300,-0.41300,0.88100,-0.42500,82.98000,0.04000
041225_03.58.20.094,-0.52200,-0.80000,0.74200,147.78800,94.81500,-94.29000,-0.43600,0.88000,-0.45300,83.03000,0.05000
041225_03.58.20.105,-0.21200,-0.70400,0.87700,159.72300,83.73800,-99.83800,-0.44400,0.87300,-0.49000,82.94000,-0.09000
041225_03.58.20.117,-0.17900,-0.61800,0.95000,165.00800,62.28300,-96.77500,-0.46400,0.86000,-0.52400,83.15000,0.21000
041225_03.58.20.129,-0.21400,-0.55300,0.91400,166.28500,31.92000,-87.86800,-0.46400,0.86000,-0.52400,83.59000,0.44000
041225_03.58.20.141,-0.25400,-0.53200,0.74900,161.82200,3.79800,-75.04000,-0.47900,0.84700,-0.55200,83.41000,-0.18000
041225_03.58.20.152,-0.23700,-0.48100,0.67500,155.80300,-13.68500,-61.98500,-0.49700,0.83400,-0.57400,82.79000,-0.62000
041225_03.58.20.164,-0.23400,-0.47100,0.72100,155.19000,-29.24300,-53.14700,-0.50400,0.82100,-0.59600,83.33000,0.54000
041225_03.58.20.176,-0.21200,-0.50700,0.80800,156.27500,-44.90500,-47.88000,-0.51000,0.80200,-0.61700,83.59000,0.26000
041225_03.58.20.187,-0.25500,-0.50700,0.88900,154.98000,-53.18200,-43.78500,-0.51000,0.80200,-0.61700,82.86000,-0.73000
041225_03.58.20.199,-0.34200,-0.44700,1.00600,148.96000,-49.61200,-40.33800,-0.52300,0.78700,-0.63500,83.57000,0.71000
041225_03.58.20.211,-0.43400,-0.40300,1.01200,141.03300,-19.23300,-38.46500,-0.52600,0.77100,-0.65200,82.71000,-0.86000
041225_03.58.20.222,-0.47900,-0.41800,1.03600,130.16500,-1.08500,-40.86200,-0.53500,0.74900,-0.67000,83.21000,0.50000
041225_03.58.20.234,-0.30300,-0.34500,0.95000,130.39300,10.02800,-39.00700,-0.53700,0.73000,-0.69000,82.79000,-0.42000
041225_03.58.20.246,-0.24800,-0.34500,1.03200,137.95200,18.83000,-34.56300,-0.53700,0.73000,-0.69000,83.07000,0.28000
041225_03.58.20.258,-0.20800,-0.30300,1.14500,141.61000,23.66000,-28.21000,-0.54200,0.70800,-0.70300,83.18000,0.11000
041225_03.58.20.270,-0.11000,-0.29600,1.26200,136.20200,26.33700,-15.92500,-0.54600,0.68800,-0.72500,82.06000,-1.12000
041225_03.58.20.281,-0.04100,-0.28000,1.33300,119.33300,28.29800,3.78000,-0.53500,0.67400,-0.73600,83.10000,1.04000
041225_03.58.20.293,-0.08600,-0.30000,1.31900,94.22000,27.80800,29.17300,-0.53100,0.66300,-0.73800,83.55000,0.45000
041225_03.58.20.304,-0.42300,-0.04600,1.29500,71.29500,20.91300,50.34700,-0.53100,0.66300,-0.73800,81.89000,-1.66000
041225_03.58.20.316,-0.58700,-0.48700,1.02600,52.09700,6.96500,57.54000,-0.52700,0.65900,-0.74500,82.83000,0.94000
041225_03.58.20.328,-0.36000,-0.50600,0.96700,45.32500,1.69700,29.36500,-0.52200,0.65400,-0.74200,83.39000,0.56000
041225_03.58.20.340,-0.08300,-0.43200,1.00900,74.84800,-33.63500,-26.37200,-0.52900,0.64400,-0.74000,82.95000,-0.44000
041225_03.58.20.351,-0.27700,-0.26600,1.05200,85.34800,-62.49300,-46.95200,-0.54000,0.62700,-0.73800,83.77000,0.82000
041225_03.58.20.363,-0.35200,-0.25600,0.95400,92.87200,-84.64700,-69.10700,-0.54000,0.62700,-0.73800,83.59000,-0.18000
041225_03.58.20.374,-0.37100,-0.16800,1.00200,95.16500,-90.03700,-99.06700,-0.56400,0.60300,-0.72400,82.74000,-0.85000
041225_03.58.20.386,-0.30000,-0.09500,1.03800,99.82000,-93.53700,-131.63500,-0.58100,0.57400,-0.71700,82.88000,0.14000
041225_03.58.20.398,-0.16500,-0.05500,1.04800,107.69500,-99.26000,-159.82700,-0.60600,0.54100,-0.70500,83.16000,0.28000
041225_03.58.20.410,-0.13400,0.01500,1.04500,116.18300,-103.53000,-182.12200,-0.63000,0.49900,-0.68000,83.01000,-0.15000
041225_03.58.20.421,-0.16100,0.09200,0.98500,129.53500,-108.65800,-195.37000,-0.63000,0.49900,-0.68000,83.38000,0.37000
041225_03.58.20.433,-0.16700,0.14400,0.93900,143.53500,-112.80500,-196.17500,-0.65400,0.45400,-0.66700,83.35000,-0.03000
041225_03.58.20.445,-0.10400,0.23400,0.94000,150.02700,-110.68800,-184.76500,-0.66800,0.41200,-0.64900,83.22000,-0.13000
041225_03.58.20.457,-0.03200,0.25600,0.91400,150.37800,-105.40300,-160.91300,-0.67400,0.37800,-0.61800,83.14000,-0.08000
041225_03.58.20.469,0.01500,0.28800,0.85800,152.86300,-96.72300,-112.43800,-0.68700,0.35000,-0.59500,83.47000,0.33000
041225_03.58.20.481,-0.05700,0.17100,0.60500,157.25500,-92.85500,-108.46500,-0.68700,0.35000,-0.59500,82.76000,-0.71000
041225_03.58.20.492,-0.02200,0.18200,0.52700,164.46500,-86.87000,-112.19200,-0.69000,0.32300,-0.56800,83.86000,1.10000
041225_03.58.20.504,-0.05800,0.18300,0.51900,168.15800,-85.57500,-115.58800,-0.69200,0.30200,-0.54700,82.89000,-0.97000
041225_03.58.20.516,-0.15700,0.22200,0.51300,164.02700,-91.40300,-116.09500,-0.69100,0.28300,-0.52300,83.28000,0.39000
041225_03.58.20.527,-0.29100,0.20000,0.56200,152.54800,-92.41800,-119.50700,-0.69000,0.26800,-0.49200,83.41000,0.13000
041225_03.58.20.539,-0.34300,0.32000,0.56200,140.54200,-89.82700,-130.39300,-0.69000,0.26800,-0.49200,83.93000,0.52000
041225_03.58.20.551,-0.25000,0.44100,0.53000,137.81200,-86.48500,-141.62800,-0.68300,0.25600,-0.47100,82.58000,-1.35000
041225_03.58.20.563,-0.04100,0.58400,0.45700,142.59000,-82.32000,-146.24700,-0.67600,0.24400,-0.43700,83.20000,0.62000
041225_03.58.20.574,-0.01100,0.54300,0.41800,151.18200,-80.48200,-140.40200,-0.67200,0.23500,-0.41300,83.11000,-0.09000
041225_03.58.20.586,-0.08100,0.58600,0.29700,161.10500,-85.94200,-142.90500,-0.66900,0.23100,-0.38900,83.59000,0.48000
041225_03.58.20.598,-0.09200,0.51800,0.27800,181.73800,-102.98800,-182.01800,-0.66900,0.23100,-0.38900,83.84000,0.25000
041225_03.58.20.609,-0.50100,0.31900,0.28300,186.62000,-119.66500,-216.37000,-0.65800,0.22800,-0.35500,83.41000,-0.43000
041225_03.58.20.622,-0.93200,0.14300,0.11700,183.90800,-137.60200,-270.14700,-0.65000,0.22100,-0.33000,83.48000,0.07000
041225_03.58.20.634,-0.97200,0.11600,-0.19300,173.61800,-151.16500,-349.21200,-0.63100,0.19800,-0.29100,82.78000,-0.70000
041225_03.58.20.646,-0.73500,0.37000,-0.41700,168.07000,-149.20500,-418.18000,-0.60300,0.16200,-0.25700,83.38000,0.60000
041225_03.58.20.657,-0.40900,0.85400,-0.43000,181.58000,-151.20000,-448.36700,-0.60300,0.16200,-0.25700,82.67000,-0.71000
041225_03.58.20.669,-0.51300,0.57100,-0.24900,199.55300,-168.03500,-438.18200,-0.56600,0.13000,-0.22300,83.12000,0.45000
041225_03.58.20.681,-0.78300,0.37100,-0.68800,194.25000,-173.68700,-420.08700,-0.52100,0.11600,-0.19100,83.61000,0.49000
041225_03.58.20.693,-0.99600,0.16000,-0.45100,185.09800,-134.90800,-393.64500,-0.47900,0.10100,-0.15900,83.05000,-0.56000
041225_03.58.20.705,-1.08500,0.01000,-0.26800,176.62800,-105.24500,-371.50800,-0.43500,0.09500,-0.13800,83.25000,0.20000
041225_03.58.20.717,-1.21800,-0.10800,-0.12400,161.29800,-88.88200,-328.45700,-0.43500,0.09500,-0.13800,83.02000,-0.23000
041225_03.58.20.728,-1.33400,-0.22300,-0.27000,118.86000,-82.05800,-307.79000,-0.39100,0.08800,-0.12500,83.41000,0.39000
041225_03.58.20.740,-1.19200,-0.30900,-0.29900,104.79000,-64.36500,-281.38300,-0.34400,0.08200,-0.10600,83.82000,0.41000
041225_03.58.20.752,-1.09700,-0.36100,-0.01600,91.61300,-48.07200,-254.13500,-0.30400,0.09000,-0.09300,83.21000,-0.61000
041225_03.58.20.764,-0.94600,-0.28700,0.33800,75.81000,-47.14500,-225.69700,-0.26300,0.09600,-0.09100,82.24000,-0.97000
041225_03.58.20.775,-0.95100,-0.31800,0.39400,58.18800,-58.83500,-197.62800,-0.26300,0.09600,-0.09100,83.68000,1.44000
041225_03.58.20.787,-1.04800,-0.24400,0.30400,41.82500,-60.30500,-171.76200,-0.22100,0.09400,-0.08400,83.35000,-0.33000
041225_03.58.20.799,-1.01900,-0.11900,0.25500,27.02000,-56.00000,-147.75300,-0.18500,0.10200,-0.08400,83.04000,-0.31000
041225_03.58.20.810,-0.86500,-0.10100,0.24900,39.53300,-40.54800,-125.35300,-0.14900,0.10200,-0.08900,83.68000,0.64000
041225_03.58.20.822,-0.78800,-0.25500,0.20000,64.83800,-38.60500,-118.82500,-0.11600,0.11200,-0.09200,83.37000,-0.31000
041225_03.58.20.834,-0.62400,-0.36000,0.23000,64.64500,-50.90800,-111.14300,-0.11600,0.11200,-0.09200,83.97000,0.60000
041225_03.58.20.846,-0.61600,-0.49700,0.25400,53.28700,-53.79500,-93.39700,-0.08900,0.12500,-0.09000,83.05000,-0.92000
041225_03.58.20.858,-0.78900,-0.54500,0.40500,25.28800,-53.55000,-83.47500,-0.06000,0.14500,-0.09400,83.69000,0.64000
041225_03.58.20.869,-0.82800,-0.56300,0.38000,0.77000,-42.68200,-70.45500,-0.03600,0.15500,-0.10300,83.06000,-0.63000
041225_03.58.20.881,-0.80800,-0.65300,0.41100,-14.87500,-34.75500,-62.33500,-0.00900,0.16000,-0.11800,82.37000,-0.69000
041225_03.58.20.893,-0.77700,-0.70700,0.35800,-24.11500,-35.21000,-60.90000,-0.00900,0.16000,-0.11800,82.85000,0.48000
041225_03.58.20.904,-0.72800,-0.71600,0.22800,-31.44800,-40.77500,-54.53000,0.01800,0.16600,-0.12400,82.86000,0.01000
041225_03.58.20.916,-0.81600,-0.72500,0.30600,-37.18800,-41.24800,-46.41000,0.04200,0.17000,-0.14700,82.62000,-0.24000
041225_03.58.20.928,-0.86600,-0.74000,0.44200,-38.22000,-42.49000,-43.40000,0.06900,0.18000,-0.16300,82.28000,-0.34000
041225_03.58.20.940,-0.87300,-0.99800,0.74500,-44.59000,-45.74500,-41.54500,0.09800,0.19100,-0.18500,83.00000,0.72000
041225_03.58.20.952,-0.92000,-0.94300,0.58800,-72.57300,-50.71500,-43.57500,0.09800,0.19100,-0.18500,82.99000,-0.01000
041225_03.58.20.963,-0.86700,-0.66400,0.48700,-89.23200,-43.52200,-41.70200,0.11600,0.20000,-0.20400,83.04000,0.05000
041225_03.58.20.975,-0.83200,-0.48900,0.42300,-81.90000,-30.76500,-25.37500,0.12600,0.21000,-0.22400,82.97000,-0.07000
041225_03.58.20.986,-0.84900,-0.64700,0.49000,-69.56300,-27.51000,-25.20000,0.14300,0.22300,-0.24100,82.58000,-0.39000
041225_03.58.20.998,-0.72400,-0.81600,0.68800,-64.43500,-29.05000,-26.19800,0.15500,0.23700,-0.25400,82.90000,0.32000
041225_03.58.21.010,-0.92600,-0.96200,0.65100,-78.06700,-34.75500,-24.32500,0.15500,0.23700,-0.25400,83.33000,0.43000
041225_03.58.21.022,-0.91800,-0.87600,0.44600,-100.59000,-29.64500,-31.18500,0.16600,0.23900,-0.26300,82.71000,-0.62000
041225_03.58.21.034,-1.02800,-0.77900,0.29800,-116.28700,-17.23700,-41.59700,0.17200,0.25400,-0.28000,83.31000,0.60000
041225_03.58.21.046,-1.06300,-0.69100,0.35200,-123.74300,3.44700,-50.78500,0.17400,0.27000,-0.28200,82.98000,-0.33000
041225_03.58.21.057,-0.86000,-0.63400,0.44800,-122.55200,14.80500,-48.23000,0.17200,0.28100,-0.28500,82.78000,-0.20000
041225_03.58.21.069,-0.82900,-0.57700,0.44200,-114.36300,12.53000,-34.82500,0.17200,0.28100,-0.28500,82.91000,0.13000
041225_03.58.21.080,-0.82300,-0.39100,0.46200,-108.72800,14.78800,-22.24300,0.17100,0.29000,-0.28100,83.62000,0.71000
041225_03.58.21.092,-0.58300,-0.21700,0.62500,-103.65300,20.35300,-10.99000,0.17000,0.29100,-0.28500,82.56000,-1.06000
041225_03.58.21.104,-0.76500,-0.05100,0.85400,-45.01000,20.54500,-14.29700,0.17400,0.29400,-0.27400,82.98000,0.42000
041225_03.58.21.116,-0.71100,-1.06500,0.69300,-45.36000,20.02000,-26.54800,0.17300,0.30200,-0.27700,82.24000,-0.74000
041225_03.58.21.127,-0.61700,-0.86800,0.32900,-53.88200,18.37500,-35.75200,0.17300,0.30200,-0.27700,83.19000,0.95000
041225_03.58.21.139,-0.99200,-0.16900,0.64700,-46.65500,26.67000,-31.13200,0.17300,0.30800,-0.27300,83.46000,0.27000
041225_03.58.21.151,-0.36700,-0.65600,0.62100,-23.34500,55.79000,-32.25200,0.16400,0.31600,-0.26000,83.19000,-0.27000
041225_03.58.21.162,-0.38400,-1.26100,0.39000,-27.49300,40.86200,-42.59500,0.16600,0.32500,-0.25400,82.67000,-0.52000
041225_03.58.21.174,-0.49400,-0.70600,0.19500,-50.47000,38.43000,-54.91500,0.16000,0.33000,-0.24500,83.35000,0.68000
041225_03.58.21.186,-0.63400,-0.32700,0.05000,-55.19500,52.79800,-58.95800,0.16000,0.33000,-0.24500,83.65000,0.30000
041225_03.58.21.197,-0.46000,-0.55500,-0.06300,-49.71700,84.42000,-65.46700,0.15800,0.34300,-0.22800,82.61000,-1.04000
041225_03.58.21.209,-0.37500,-0.89900,-0.11800,-39.67300,92.08500,-81.02500,0.14600,0.36000,-0.20600,83.46000,0.85000
041225_03.58.21.221,-0.51200,-0.76600,-0.14200,-20.56200,87.09800,-95.55000,0.13200,0.37800,-0.19300,83.27000,-0.19000
041225_03.58.21.233,-0.41700,-0.84100,-0.10400,24.01000,66.23800,-101.43000,0.12600,0.40700,-0.19100,82.90000,-0.37000
041225_03.58.21.244,-0.36700,-1.03800,-0.05800,29.13800,59.29000,-95.48000,0.12600,0.40700,-0.19100,82.76000,-0.14000
041225_03.58.21.256,-0.39200,-1.10000,-0.01400,26.00500,51.74800,-84.59500,0.12000,0.43600,-0.17800,83.37000,0.61000
041225_03.58.21.268,-0.40900,-1.06100,-0.03500,19.19800,47.75700,-74.83000,0.11100,0.45700,-0.17100,82.58000,-0.79000
041225_03.58.21.279,-0.40300,-1.12000,-0.09700,15.52300,45.60500,-60.67300,0.10000,0.47700,-0.16600,83.54000,0.96000
041225_03.58.21.291,-0.37100,-1.15100,-0.09200,15.69800,44.04800,-46.34000,0.09500,0.48800,-0.15500,83.05000,-0.49000
041225_03.58.21.303,-0.50400,-1.99200,-0.17800,9.80000,34.87700,-30.32700,0.09500,0.48800,-0.15500,83.10000,0.05000
041225_03.58.21.314,-0.41600,-1.20900,-0.01400,-3.34200,3.30800,2.17000,0.08600,0.49200,-0.15900,82.86000,-0.24000
041225_03.58.21.326,-0.17100,-1.11500,0.22300,7.66500,-22.01500,9.22200,0.08900,0.49900,-0.15700,83.26000,0.40000
041225_03.58.21.338,-0.15300,-1.17800,-0.04000,-8.71500,-35.94500,19.63500,0.09900,0.48900,-0.15800,82.91000,-0.35000
041225_03.58.21.349,-0.37000,-1.14100,-0.06900,-2.08200,-51.57200,32.25200,0.10200,0.49100,-0.17300,82.16000,-0.75000
041225_03.58.21.361,-0.38900,-1.28500,0.10300,8.64500,-61.19800,29.85500,0.10200,0.49100,-0.17300,82.88000,0.72000
041225_03.58.21.373,-1.57100,-0.80500,0.69900,-21.15700,-67.67300,-16.97500,0.10900,0.48700,-0.17800,82.83000,-0.05000
041225_03.58.21.384,-0.89600,-0.46800,-0.37300,-35.43800,-70.61300,-102.95200,0.11300,0.49200,-0.18500,82.59000,-0.24000
041225_03.58.21.396,-0.52900,-0.74800,-0.07300,12.98500,-44.52000,-110.14500,0.10800,0.51200,-0.19400,83.28000,0.69000
041225_03.58.21.408,-0.29600,-1.15300,-0.03100,40.67000,-25.00700,-125.65000,0.10400,0.54200,-0.19600,83.37000,0.09000
041225_03.58.21.420,-0.53400,-1.31500,0.11600,59.34200,-1.59200,-148.31200,0.10400,0.54200,-0.19600,83.30000,-0.07000
041225_03.58.21.431,-0.29500,-1.53300,0.24200,70.10500,19.14500,-168.01800,0.09000,0.57300,-0.20200,82.64000,-0.66000
041225_03.58.21.443,-0.10000,-1.44800,0.25700,63.52500,22.97800,-172.93500,0.06300,0.60900,-0.19500,83.05000,0.41000
041225_03.58.21.454,-0.27100,-0.74200,0.13400,44.94000,16.83500,-157.02700,0.04100,0.62900,-0.19000,83.09000,0.04000
041225_03.58.21.466,-0.21100,-0.73400,0.02700,40.40800,18.63800,-108.81500,0.02700,0.64100,-0.19200,82.90000,-0.19000
041225_03.58.21.478,0.05100,-1.05300,0.04700,36.01500,31.20200,-62.37000,0.02700,0.64100,-0.19200,83.12000,0.22000
041225_03.58.21.489,0.27100,-1.16500,0.19800,-10.48300,36.13800,-62.21300,0.01300,0.65100,-0.18600,82.60000,-0.52000
041225_03.58.21.501,0.12200,-1.13800,0.15700,-30.59000,62.10800,-69.40500,-0.00500,0.65500,-0.18300,83.28000,0.68000
041225_03.58.21.512,0.40600,-1.23100,-0.02000,-69.65000,64.90800,-77.98000,-0.03100,0.64700,-0.16200,82.81000,-0.47000
041225_03.58.21.524,0.33600,-1.16200,0.04000,-105.68300,47.46000,-79.55500,-0.05100,0.64100,-0.14000,82.79000,-0.02000
041225_03.58.21.536,0.15000,-1.24900,-0.05100,-118.80800,34.40500,-77.54300,-0.05100,0.64100,-0.14000,83.39000,0.60000
041225_03.58.21.547,0.10200,-1.16300,0.01200,-120.27800,28.99700,-76.10700,-0.07500,0.62300,-0.12900,83.28000,-0.11000
041225_03.58.21.559,-0.05100,-1.01000,0.10400,-95.25300,18.93500,-61.54800,-0.09200,0.60800,-0.11500,82.36000,-0.92000
041225_03.58.21.570,-0.01400,-0.91900,-0.00500,-58.08300,16.38000,-37.45000,-0.10500,0.59600,-0.10900,83.31000,0.95000
041225_03.58.21.582,0.21700,-0.81600,-0.06100,-31.71000,29.40000,-21.70000,-0.11300,0.58700,-0.10800,83.63000,0.32000
041225_03.58.21.593,0.27800,-0.72000,-0.22200,-14.98000,36.50500,-21.31500,-0.11300,0.58700,-0.10800,82.44000,-1.19000
041225_03.58.21.605,0.17700,-0.77700,-0.18200,2.57200,19.56500,-21.84000,-0.13100,0.59200,-0.10100,83.36000,0.92000
041225_03.58.21.617,0.22500,-0.90100,-0.22500,47.09200,12.82800,-16.53800,-0.14900,0.60000,-0.10200,83.09000,-0.27000
041225_03.58.21.628,0.24900,-0.91900,-0.17000,61.70500,12.79300,-17.43000,-0.15300,0.60700,-0.10200,82.92000,-0.17000
041225_03.58.21.640,0.33100,-0.91100,-0.12800,70.26200,12.25000,-22.50500,-0.16600,0.61400,-0.10900,82.69000,-0.23000
041225_03.58.21.651,0.39700,-0.96100,-0.13700,75.21500,10.25500,-27.73700,-0.16600,0.61400,-0.10900,83.15000,0.46000
041225_03.58.21.663,0.47900,-1.00700,-0.19900,78.05000,0.14000,-32.13000,-0.17600,0.62800,-0.11000,82.96000,-0.19000
041225_03.58.21.674,0.46100,-0.94700,-0.19800,86.88700,-15.80200,-36.83800,-0.18500,0.64900,-0.12500,83.04000,0.08000
041225_03.58.21.686,0.26800,-0.88700,-0.23800,94.44800,-21.64800,-44.55500,-0.18800,0.66700,-0.13000,83.52000,0.48000
041225_03.58.21.698,0.31500,-0.82100,-0.13500,97.84200,-20.14200,-51.88800,-0.20300,0.68300,-0.14300,83.15000,-0.37000
041225_03.58.21.709,0.41900,-0.72800,-0.02100,101.20200,-21.21000,-53.72500,-0.20300,0.68300,-0.14300,82.94000,-0.21000
041225_03.58.21.721,0.27000,-0.75500,0.03400,108.74500,-33.91500,-52.60500,-0.20100,0.70300,-0.15600,83.03000,0.09000
041225_03.58.21.732,0.06700,-0.76700,0.19400,104.94800,-21.43700,-57.61000,-0.21300,0.72000,-0.17200,82.82000,-0.21000
041225_03.58.21.744,-0.18100,-0.62200,0.20300,89.49500,-3.36000,-54.98500,-0.22500,0.73900,-0.18300,82.95000,0.13000
041225_03.58.21.755,-0.08300,-0.65800,0.35600,71.12000,25.30500,-51.03000,-0.23700,0.74900,-0.18700,83.05000,0.10000
041225_03.58.21.767,0.06000,-0.65200,0.41700,59.25500,52.64000,-49.75200,-0.23700,0.74900,-0.18700,82.58000,-0.47000
041225_03.58.21.778,0.04100,-0.54600,0.44200,57.45200,63.56000,-44.67800,-0.25800,0.75700,-0.19800,82.39000,-0.19000
041225_03.58.21.790,-0.00700,-0.51500,0.41200,66.86800,58.76500,-33.63500,-0.27000,0.76800,-0.20300,83.06000,0.67000
041225_03.58.21.801,-0.04100,-0.48500,0.35300,82.93300,38.69300,-22.33000,-0.27900,0.78100,-0.22200,83.25000,0.19000
041225_03.58.21.813,-0.09400,-0.39400,0.32100,102.67300,11.81300,-13.40500,-0.28200,0.80000,-0.24400,82.80000,-0.45000
041225_03.58.21.824,-0.04900,-0.31000,0.31100,130.28800,-19.47800,-7.99700,-0.28200,0.80000,-0.24400,83.37000,0.57000
041225_03.58.21.836,0.16900,-0.26300,0.37900,149.50300,-38.15000,-6.94800,-0.27500,0.81000,-0.26900,83.06000,-0.31000
041225_03.58.21.847,0.42200,-0.30300,0.59200,151.25300,-36.89000,-18.32300,-0.26900,0.82500,-0.30100,83.39000,0.33000
041225_03.58.21.859,0.51200,-0.43500,0.74100,144.32200,9.13500,-60.41000,-0.27800,0.84600,-0.32800,82.96000,-0.43000
041225_03.58.21.870,0.57100,-0.49900,0.49000,134.54000,33.30300,-77.94500,-0.28700,0.85400,-0.35900,82.46000,-0.50000
041225_03.58.21.882,0.47600,-0.28700,0.68600,129.78000,53.14700,-92.27800,-0.28700,0.85400,-0.35900,82.67000,0.21000
041225_03.58.21.894,0.42200,-0.34000,0.83200,132.59800,57.50500,-98.49000,-0.30800,0.86600,-0.39100,82.87000,0.20000
041225_03.58.21.905,0.36100,-0.34100,1.03300,142.99300,55.56300,-97.40500,-0.32000,0.86900,-0.42000,82.84000,-0.03000
041225_03.58.21.917,0.41000,-0.28400,1.15500,142.43200,57.36500,-87.92000,-0.33100,0.86700,-0.45200,83.02000,0.18000
041225_03.58.21.928,0.48200,-0.32900,1.22300,139.93000,50.38200,-72.18800,-0.34400,0.87300,-0.48300,83.46000,0.44000
041225_03.58.21.940,0.53500,-0.37700,1.30200,131.33700,38.06300,-54.40800,-0.34400,0.87300,-0.51100,82.97000,-0.49000
041225_03.58.21.952,0.60800,-0.38300,1.23600,113.08500,28.21000,-36.82000,-0.34800,0.86900,-0.51100,83.60000,0.63000
041225_03.58.21.963,0.68100,-0.34000,1.14500,99.69800,17.41300,-20.45800,-0.35100,0.86600,-0.53500,83.06000,-0.54000
041225_03.58.21.975,0.74700,-0.25800,1.08100,95.07700,0.40300,-4.58500,-0.35100,0.85800,-0.55000,81.90000,-1.16000
041225_03.58.21.986,0.68900,-0.19400,1.10300,85.24300,-45.46500,15.10200,-0.34700,0.85900,-0.56200,82.53000,0.63000
041225_03.58.21.998,0.60900,-0.17000,1.20300,69.14300,-60.07700,19.95000,-0.34700,0.85900,-0.57400,83.24000,0.71000
041225_03.58.22.009,0.54600,-0.21100,1.18900,43.71500,-65.11800,28.89200,-0.33800,0.85000,-0.57400,83.92000,0.68000
041225_03.58.22.021,0.47300,-0.26600,1.01700,22.43500,-66.64000,34.03700,-0.33100,0.84500,-0.57800,82.53000,-1.39000
041225_03.58.22.032,0.48000,-0.21000,0.82300,24.64000,-68.23200,30.46800,-0.33000,0.84600,-0.58300,82.91000,0.38000
041225_03.58.22.044,0.48900,-0.12900,0.76000,39.62000,-63.92800,25.09500,-0.32500,0.84500,-0.58900,83.37000,0.46000
041225_03.58.22.055,0.44900,-0.13100,0.87700,53.60300,-56.64700,18.55000,-0.32500,0.84500,-0.60200,83.26000,-0.11000
041225_03.58.22.067,0.38800,-0.07400,0.92000,56.28000,-51.17000,9.06500,-0.32700,0.84200,-0.60200,82.78000,-0.48000
041225_03.58.22.078,0.36300,-0.03500,0.95100,54.49500,-53.76000,0.24500,-0.32600,0.83300,-0.61000,82.98000,0.20000
041225_03.58.22.090,0.40900,0.02900,0.91600,54.40800,-67.39300,-3.72700,-0.32900,0.82900,-0.61500,83.52000,0.54000
041225_03.58.22.101,0.47900,0.05500,0.95500,54.37300,-84.85700,-1.76800,-0.33800,0.83000,-0.62200,82.90000,-0.62000
041225_03.58.22.113,0.58800,0.05000,0.81300,32.74300,-113.78500,1.03300,-0.33800,0.83000,-0.63000,82.99000,0.09000
041225_03.58.22.124,0.27800,-0.40500,0.63500,25.37500,-126.47300,0.07000,-0.34200,0.82200,-0.63000,83.23000,0.24000
041225_03.58.22.136,0.23300,-0.70200,0.64200,27.49300,-141.92500,-21.66500,-0.34300,0.82000,-0.62400,83.25000,0.02000
041225_03.58.22.147,0.38100,-0.64500,0.45700,48.21300,-169.68000,-57.43500,-0.36300,0.81200,-0.63600,82.92000,-0.33000
041225_03.58.22.159,0.71200,-0.49300,0.35500,66.36000,-185.11500,-84.28000,-0.38700,0.80000,-0.63900,83.32000,0.40000
041225_03.58.22.170,0.95100,-0.23600,0.23100,79.55500,-186.16500,-97.82500,-0.38700,0.80000,-0.64800,82.76000,-0.56000
041225_03.58.22.182,1.26600,0.11600,0.31900,93.53700,-176.38300,-102.65500,-0.42000,0.78500,-0.64800,83.10000,0.34000
041225_03.58.22.194,1.60200,0.33300,0.63300,85.96000,-156.59000,-86.48500,-0.44800,0.77200,-0.66000,83.87000,0.77000
041225_03.58.22.205,1.67000,0.76400,0.50600,46.58500,-124.63500,-54.89700,-0.46300,0.76300,-0.64900,83.16000,-0.71000
041225_03.58.22.217,1.35300,0.45400,0.32100,27.26500,-95.56700,-29.66300,-0.47300,0.76300,-0.64600,83.43000,0.27000
041225_03.58.22.228,1.05000,0.27800,0.41700,13.44000,-56.61200,-23.10000,-0.47300,0.76300,-0.64500,83.39000,-0.04000
041225_03.58.22.240,1.01800,0.20800,0.26500,30.73000,-58.83500,-19.63500,-0.48100,0.75800,-0.64500,83.43000,0.04000
041225_03.58.22.251,1.20300,0.33900,0.26300,30.74700,-55.73700,0.99800,-0.48700,0.75500,-0.63800,82.94000,-0.49000
041225_03.58.22.263,1.19800,0.24400,0.26400,34.77200,-50.71500,15.45300,-0.49100,0.75200,-0.64600,83.01000,0.07000
041225_03.58.22.274,1.06400,0.03200,0.24600,26.79200,-42.54200,25.48000,-0.48600,0.75500,-0.63700,82.95000,-0.06000
041225_03.58.22.286,1.10700,0.16200,0.20400,20.40500,-35.68200,36.31300,-0.48600,0.75500,-0.63700,82.68000,-0.27000
041225_03.58.22.298,1.04900,0.21000,0.01100,22.90700,-30.18700,52.34200,-0.48100,0.76200,-0.63700,83.24000,0.56000
041225_03.58.22.309,0.54100,0.06900,0.00600,25.79500,-14.40300,62.09000,-0.47400,0.75800,-0.64100,83.39000,0.15000
041225_03.58.22.321,1.08900,0.36400,0.29800,26.12800,-9.55500,61.51300,-0.46500,0.76800,-0.64100,82.93000,-0.46000
041225_03.58.22.332,1.15000,0.36200,0.43800,22.43500,-16.64200,73.55200,-0.44600,0.76700,-0.63800,82.52000,-0.41000
041225_03.58.22.344,1.22000,0.31700,0.33300,15.52300,-21.33300,85.48800,-0.44600,0.76700,-0.64300,82.88000,0.36000
041225_03.58.22.355,1.31600,0.25400,0.27700,6.44000,-10.81500,87.97300,-0.43400,0.77900,-0.64300,83.34000,0.46000
041225_03.58.22.366,1.30000,0.08300,0.28700,6.59700,-1.40000,74.16500,-0.41400,0.78300,-0.62800,82.87000,-0.47000
041225_03.58.22.378,1.27600,0.24700,0.34100,2.45000,8.76700,64.87200,-0.40600,0.78800,-0.63400,82.79000,-0.08000
041225_03.58.22.389,1.37700,0.39900,0.47000,-2.85200,10.85000,69.94800,-0.38900,0.79000,-0.63200,83.23000,0.44000
041225_03.58.22.401,1.37400,0.43600,0.42700,-4.09500,-0.98000,80.18500,-0.38900,0.79000,-0.62600,83.64000,0.41000
041225_03.58.22.412,1.34000,0.33800,0.25400,-2.57200,-13.02000,97.65000,-0.36700,0.79700,-0.62600,84.13000,0.49000
041225_03.58.22.424,1.25800,0.32100,-0.03000,-1.10200,-21.96200,120.19000,-0.34800,0.80400,-0.61900,83.44000,-0.69000
041225_03.58.22.435,1.16000,0.25800,0.00700,6.94800,-28.85800,151.06000,-0.31600,0.81300,-0.61200,83.07000,-0.37000
041225_03.58.22.447,1.03900,0.21300,0.03900,18.69000,-37.39700,185.25500,-0.28000,0.81200,-0.60200,83.28000,0.21000
041225_03.58.22.458,0.93800,0.21100,-0.11000,27.19500,-42.54200,216.93000,-0.28000,0.81200,-0.60000,83.60000,0.32000
041225_03.58.22.470,0.80300,0.14800,-0.08300,28.92700,-42.94500,243.93200,-0.23800,0.80800,-0.60000,83.16000,-0.44000
041225_03.58.22.481,0.65600,0.04700,0.07100,22.13800,-26.56500,285.65200,-0.18600,0.79800,-0.60000,83.42000,0.26000
041225_03.58.22.493,0.40600,-0.14700,0.25200,26.07500,-7.36700,300.19500,-0.12900,0.78200,-0.59400,83.19000,-0.23000
041225_03.58.22.504,0.13300,-0.56200,0.47600,24.30800,0.98000,304.22000,-0.07900,0.75100,-0.60000,83.18000,-0.01000
041225_03.58.22.516,-0.12100,-0.66000,0.48800,12.51200,1.55800,289.10000,-0.07900,0.75100,-0.59200,82.80000,-0.38000
041225_03.58.22.527,-0.35700,-0.78900,0.31700,1.71500,-3.51700,261.60800,-0.03000,0.71900,-0.59200,82.85000,0.05000
041225_03.58.22.539,-0.76200,-0.93400,0.15000,-1.75000,-6.77300,221.35700,0.01000,0.68800,-0.59700,83.73000,0.88000
041225_03.58.22.550,-0.62900,-1.10300,-0.12600,-4.93500,0.17500,172.83000,0.03500,0.66600,-0.58800,83.32000,-0.41000
041225_03.58.22.562,-0.37800,-1.31000,-0.01600,-3.78000,8.62700,128.94000,0.05100,0.65000,-0.57800,83.78000,0.46000
041225_03.58.22.573,0.06100,-1.12800,0.05500,-3.44700,9.36300,89.95000,0.05100,0.64100,-0.59100,83.22000,-0.56000
041225_03.58.22.585,0.57700,-0.82700,0.05100,11.00700,-12.98500,63.12300,0.05800,0.64100,-0.59100,82.73000,-0.49000
041225_03.58.22.596,1.02800,-0.52300,0.26400,26.68700,-42.24500,56.61200,0.06000,0.62900,-0.60400,83.34000,0.61000
041225_03.58.22.608,1.09900,-0.44200,-0.15600,80.67500,-106.24300,77.21000,0.06700,0.61100,-0.61900,83.28000,-0.06000
041225_03.58.22.619,0.73300,-0.36100,0.51600,104.54500,-134.03300,77.47300,0.06500,0.59500,-0.65100,83.24000,-0.04000
041225_03.58.22.631,0.23700,-0.54300,0.13000,128.08300,-175.08700,59.41200,0.06500,0.57600,-0.68500,83.07000,-0.17000
041225_03.58.22.643,-0.09100,-1.22600,0.40100,147.77000,-180.67000,28.00000,0.05800,0.57600,-0.68500,83.19000,0.12000
041225_03.58.22.654,0.29600,-3.02100,1.16400,84.50700,-118.09000,17.48300,0.03800,0.55900,-0.70900,83.47000,0.28000
041225_03.58.22.666,0.49500,-1.45300,0.12200,-25.77800,7.96300,44.27500,0.04200,0.55900,-0.69800,83.56000,0.09000
041225_03.58.22.677,0.65400,-1.08200,-0.05300,-38.15000,13.05500,44.71300,0.05200,0.55300,-0.69800,83.52000,-0.04000
041225_03.58.22.689,0.92000,-0.58300,-0.08200,-28.77000,-23.13500,50.22500,0.05200,0.55000,-0.69400,82.97000,-0.55000
041225_03.58.22.701,0.61200,-0.81000,0.07200,-45.65800,-26.07500,64.78500,0.05300,0.55000,-0.69400,83.81000,0.84000
041225_03.58.22.712,0.13300,-1.19900,-0.01900,-52.36000,-68.56500,41.68500,0.04600,0.55700,-0.69900,83.03000,-0.78000
041225_03.58.22.724,0.22100,-1.04700,0.14400,13.09000,-73.58800,-13.89500,0.04200,0.55100,-0.71100,83.19000,0.16000
041225_03.58.22.735,0.01400,-0.96500,0.16700,32.55000,-56.66500,-17.09700,0.03800,0.55100,-0.71100,83.52000,0.33000
041225_03.58.22.747,-0.11800,0.24600,0.87000,57.15500,-67.28700,-20.80800,0.03800,0.54600,-0.72600,83.08000,-0.44000
041225_03.58.22.759,-0.54200,-0.39900,0.52900,112.71700,-107.41500,-14.05200,0.02900,0.54600,-0.72600,82.81000,-0.27000
041225_03.58.22.770,-0.46100,-1.46200,0.50700,135.64300,-115.74500,-31.50000,0.01300,0.53300,-0.75200,83.06000,0.25000
041225_03.58.22.782,0.06300,-1.89400,0.59200,152.75800,-111.73800,-56.54200,-0.00800,0.52200,-0.76100,83.89000,0.83000
041225_03.58.22.793,0.80900,-0.43900,0.48300,131.05700,-74.48000,-35.91000,-0.02100,0.50500,-0.77200,83.02000,-0.87000
041225_03.58.22.805,0.58300,-0.45300,0.63300,85.73200,-16.32700,-10.76200,-0.02100,0.49400,-0.77500,83.06000,0.04000
041225_03.58.22.816,0.55600,-0.82900,0.17800,73.51800,-12.47700,6.42300,-0.01900,0.49400,-0.77500,83.54000,0.48000
041225_03.58.22.828,0.40500,-0.71500,0.30100,73.44800,-25.13000,18.34000,-0.02100,0.48300,-0.78300,84.03000,0.49000
041225_03.58.22.839,0.39900,-0.73900,0.40000,71.76800,-28.68300,22.64500,-0.01900,0.46200,-0.79000,83.38000,-0.65000
041225_03.58.22.851,0.38100,-0.80400,0.37400,65.41500,-34.05500,21.68300,-0.02500,0.45000,-0.79400,83.93000,0.55000
041225_03.58.22.862,0.40200,-0.80600,0.27500,70.75300,-43.41700,16.08300,-0.02500,0.44000,-0.79800,82.83000,-1.10000
041225_03.58.22.874,0.45400,-0.85100,0.30500,78.31300,-52.01000,8.99500,-0.03100,0.44000,-0.79800,83.66000,0.83000
041225_03.58.22.885,0.56700,-0.86800,0.39600,86.13500,-56.77000,3.43000,-0.03900,0.42300,-0.80400,83.07000,-0.59000
041225_03.58.22.897,0.55900,-0.86500,0.41700,93.25700,-60.91700,0.08700,-0.04400,0.40800,-0.80800,83.38000,0.31000
041225_03.58.22.909,0.50100,-0.89200,0.46500,97.56300,-66.62200,-6.10800,-0.05800,0.38800,-0.81000,83.50000,0.12000
041225_03.58.22.920,0.47700,-0.86900,0.51800,95.18300,-74.07700,-17.43000,-0.05800,0.37000,-0.81600,83.47000,-0.03000
041225_03.58.22.932,0.47500,-0.81600,0.50600,87.25500,-80.86800,-30.62500,-0.06700,0.37000,-0.81600,83.71000,0.24000
041225_03.58.22.944,0.46500,-0.76800,0.40400,81.91800,-85.38200,-45.58800,-0.08400,0.36400,-0.81900,83.58000,-0.13000
041225_03.58.22.955,0.52100,-0.54900,0.09500,87.58800,-89.16200,-59.99000,-0.09800,0.35300,-0.82500,82.76000,-0.82000
041225_03.58.22.967,0.52000,-0.50700,-0.61200,135.20500,-98.26200,-73.01000,-0.12300,0.33200,-0.82200,83.15000,0.39000
041225_03.58.22.979,0.62000,-0.47800,0.01200,265.40500,-171.39500,-105.52500,-0.12300,0.29200,-0.81700,83.33000,0.18000
041225_03.58.22.991,0.66600,-0.44400,0.58300,298.46200,-237.84200,-121.41500,-0.15300,0.29200,-0.81700,82.90000,-0.43000
041225_03.58.23.003,0.78100,-0.60800,1.37400,323.80200,-300.80700,-133.03500,-0.18800,0.23700,-0.81400,82.88000,-0.02000
041225_03.58.23.014,1.08900,0.20400,2.13200,259.15800,-219.11800,-102.49700,-0.20400,0.17000,-0.80000,82.61000,-0.27000
041225_03.58.23.026,1.18800,0.51200,1.30400,104.56300,-90.40500,-23.59000,-0.23000,0.15800,-0.80000,83.50000,0.89000
041225_03.58.23.037,0.93300,-0.19400,0.60600,25.83000,-98.57700,-21.50700,-0.23000,0.15700,-0.79900,83.40000,-0.10000
041225_03.58.23.049,1.05100,-0.21200,0.44500,25.14800,-105.43800,-46.30500,-0.23900,0.15700,-0.79900,83.45000,0.05000
041225_03.58.23.061,1.01600,-0.18000,0.65300,39.32200,-94.86800,-33.88000,-0.24500,0.15400,-0.79400,83.27000,-0.18000
041225_03.58.23.073,0.87600,-0.22900,0.67000,28.10500,-106.52200,-32.97000,-0.25300,0.15300,-0.79500,83.33000,0.06000
041225_03.58.23.084,0.74100,-0.15300,0.58700,13.63200,-121.83500,-41.14300,-0.26700,0.15900,-0.79600,83.30000,-0.03000
041225_03.58.23.096,0.75500,-0.13900,0.63500,8.33000,-144.06000,-42.87500,-0.28600,0.15600,-0.80100,83.64000,0.34000
041225_03.58.23.108,0.70700,-0.21100,0.66800,2.97500,-205.27500,-36.10300,-0.28600,0.15600,-0.80100,83.54000,-0.10000
041225_03.58.23.119,0.76500,-0.26400,0.48300,-0.17500,-228.56800,-32.14700,-0.31300,0.15900,-0.79000,83.53000,-0.01000
041225_03.58.23.131,0.79000,-0.13800,0.25300,2.31000,-249.48000,-37.80000,-0.35200,0.16000,-0.78000,83.70000,0.17000
041225_03.58.23.142,1.81000,0.15800,-0.64200,9.03000,-239.52300,-38.83300,-0.39000,0.16400,-0.78200,83.16000,-0.54000
041225_03.58.23.154,0.72900,-0.36100,0.08100,7.12200,-193.93500,-30.20500,-0.41600,0.17100,-0.77400,83.11000,-0.05000
041225_03.58.23.165,0.76700,-0.21500,0.19800,9.06500,-173.74000,-48.17800,-0.41600,0.17100,-0.77400,82.46000,-0.65000
041225_03.58.23.177,1.27100,-0.01000,0.15100,17.71000,-159.74000,-50.01500,-0.44200,0.16400,-0.75700,82.79000,0.33000
041225_03.58.23.188,0.81100,-0.18800,0.18100,22.61000,-162.24300,-47.07500,-0.46300,0.15800,-0.74900,84.26000,1.47000
041225_03.58.23.200,0.96300,-0.15600,0.12200,32.90000,-167.87800,-52.34200,-0.48500,0.15400,-0.73000,83.72000,-0.54000
041225_03.58.23.212,0.97300,-0.02800,0.16200,44.87000,-183.73200,-48.72000,-0.50900,0.14200,-0.70400,83.58000,-0.14000
041225_03.58.23.223,0.63200,-0.12500,0.00900,53.37500,-209.42300,-46.20000,-0.50900,0.14200,-0.70400,83.66000,0.08000
041225_03.58.23.235,0.43500,-0.01500,-0.42900,80.62200,-221.21700,-45.20200,-0.53300,0.12700,-0.67500,83.54000,-0.12000
041225_03.58.23.246,0.52400,-0.14000,-0.78300,90.16000,-216.80700,-42.15800,-0.55200,0.11200,-0.63900,83.21000,-0.33000
041225_03.58.23.258,0.53200,-0.04100,-0.85100,97.47500,-205.85200,-45.72800,-0.56700,0.10100,-0.60800,83.36000,0.15000
041225_03.58.23.269,0.51900,0.09500,-0.38900,94.16800,-186.65500,-41.54500,-0.57500,0.08600,-0.58100,83.41000,0.05000
041225_03.58.23.281,0.57700,0.02500,-0.56700,71.06700,-170.32700,-25.39200,-0.57500,0.08600,-0.58100,83.25000,-0.16000
041225_03.58.23.293,0.54300,-0.03100,-0.57100,56.15800,-169.36500,-11.28800,-0.58300,0.07500,-0.55000,83.64000,0.39000
041225_03.58.23.304,0.50300,-0.11100,-0.76400,48.66700,-169.75000,-7.89200,-0.58900,0.07400,-0.52800,83.35000,-0.29000
041225_03.58.23.316,0.43200,-0.15900,-0.93800,44.88800,-165.62000,-9.67700,-0.59300,0.07000,-0.50400,83.93000,0.58000
041225_03.58.23.327,0.52400,-0.19900,-0.92900,42.38500,-155.05000,-12.60000,-0.59200,0.06500,-0.47800,83.56000,-0.37000
041225_03.58.23.339,0.56700,-0.21800,-0.88800,37.41500,-146.70200,-15.73300,-0.59200,0.06500,-0.47800,84.09000,0.53000
041225_03.58.23.350,0.60700,-0.20200,-0.84800,29.68000,-141.10200,-22.33000,-0.59200,0.05900,-0.46300,84.19000,0.10000
041225_03.58.23.362,0.57900,-0.24000,-0.77100,15.90800,-140.40200,-27.59700,-0.59000,0.05600,-0.43800,83.47000,-0.72000
041225_03.58.23.373,0.50500,-0.32300,-0.88100,15.73300,-148.26000,-33.53000,-0.58500,0.05200,-0.41800,83.19000,-0.28000
041225_03.58.23.385,0.44300,-0.38600,-0.88500,26.09300,-154.99700,-44.18800,-0.57300,0.04600,-0.39000,83.57000,0.38000
041225_03.58.23.397,0.30500,-0.27600,-0.75300,30.50300,-157.09800,-56.07000,-0.57300,0.04600,-0.39000,82.96000,-0.61000
041225_03.58.23.408,0.27200,-0.22100,-0.88800,25.00700,-152.11000,-66.23800,-0.56100,0.03800,-0.37200,82.80000,-0.16000
041225_03.58.23.420,0.20700,-0.21500,-0.99900,24.58700,-141.73200,-66.51800,-0.54800,0.02900,-0.36000,83.74000,0.94000
041225_03.58.23.431,0.08100,-0.13500,-1.04400,22.89000,-122.41200,-58.92300,-0.53500,0.02100,-0.33800,83.44000,-0.30000
041225_03.58.23.443,0.02500,-0.16200,-1.06700,24.30800,-100.15300,-48.10800,-0.52200,0.02000,-0.32500,83.62000,0.18000
041225_03.58.23.454,-0.01500,-0.21800,-0.93400,32.37500,-83.07300,-42.61200,-0.52200,0.02000,-0.32500,83.44000,-0.18000
041225_03.58.23.466,-0.03100,-0.27400,-0.78600,39.79500,-79.06500,-43.83800,-0.50700,0.01600,-0.31300,82.76000,-0.68000
041225_03.58.23.477,-0.05600,-0.26100,-0.66700,43.20800,-100.59000,-60.37500,-0.48900,0.01300,-0.29500,83.41000,0.65000
041225_03.58.23.489,-0.07200,-0.24900,-0.63200,26.67000,-119.10500,-68.63500,-0.47200,0.01000,-0.28100,83.74000,0.33000
041225_03.58.23.501,-0.11500,-0.25500,-0.55900,12.25000,-132.33500,-80.01000,-0.44800,0.00400,-0.27100,83.45000,-0.29000
041225_03.58.23.512,-0.08000,-0.31600,-0.49100,0.52500,-145.04000,-95.04300,-0.44800,0.00400,-0.27100,83.60000,0.15000
041225_03.58.23.524,-0.14800,-0.37500,-0.42700,-9.24000,-163.67800,-112.42000,-0.41000,-0.00400,-0.26200,83.05000,-0.55000
041225_03.58.23.535,0.53500,0.37100,-0.05100,-3.16800,-201.49500,-130.37500,-0.36800,-0.01400,-0.25800,83.58000,0.53000
041225_03.58.23.547,0.14500,0.39300,-0.56100,39.41000,-290.85000,-119.61300,-0.31200,-0.01300,-0.24900,83.26000,-0.32000
041225_03.58.23.558,-1.24800,-0.80000,-1.64900,42.96300,-306.89700,-103.65300,-0.26700,-0.00600,-0.25000,83.63000,0.37000
041225_03.58.23.570,-0.95200,-0.71300,-1.05000,-3.93800,-203.17500,-86.57300,-0.26700,-0.00600,-0.25000,83.53000,-0.10000
041225_03.58.23.582,-0.58500,-0.56300,-1.02100,6.56200,-171.92000,-62.66700,-0.23700,-0.01200,-0.24800,83.45000,-0.08000
041225_03.58.23.593,-0.74900,-0.70700,-1.02200,20.40500,-168.05300,-60.81300,-0.20900,-0.01100,-0.24800,83.59000,0.14000
041225_03.58.23.605,-1.26900,-0.54200,-1.01500,9.24000,-64.26000,-77.31500,-0.18400,0.00400,-0.25900,83.79000,0.20000
041225_03.58.23.616,-0.68500,-0.48500,-0.77400,-1.48700,-49.36800,-61.82700,-0.16600,0.00500,-0.26200,82.99000,-0.80000
041225_03.58.23.628,-0.62300,-0.46600,-0.75400,-3.88500,-65.83500,-64.47000,-0.16600,0.00500,-0.26200,83.67000,0.68000
041225_03.58.23.640,-0.96700,-0.80800,-0.26600,-10.16800,-94.67500,-78.10300,-0.14500,0.01000,-0.26400,83.35000,-0.32000
041225_03.58.23.651,-0.85100,-0.82400,-0.45500,-20.16000,-130.83000,-105.59500,-0.12000,0.01600,-0.28000,83.09000,-0.26000
041225_03.58.23.663,-0.72200,-0.87800,-0.57700,-19.32000,-160.82500,-135.24000,-0.08100,0.02300,-0.30100,84.31000,1.22000
041225_03.58.23.674,-0.23300,-0.93300,-0.70400,-6.12500,-178.85000,-164.74500,-0.04400,0.04400,-0.31600,83.41000,-0.90000
041225_03.58.23.686,-0.43500,-0.74700,-0.56900,8.45300,-196.21000,-196.05300,-0.04400,0.04400,-0.31600,83.68000,0.27000
041225_03.58.23.697,-0.31500,-0.41400,-0.59100,20.98300,-208.16300,-210.77000,-0.00300,0.06900,-0.33900,83.11000,-0.57000
041225_03.58.23.709,-0.82000,-0.63200,-0.97700,19.63500,-191.11800,-189.45500,0.03400,0.09900,-0.36800,83.32000,0.21000
041225_03.58.23.721,-1.20100,-0.45000,-1.29800,12.75700,-106.78500,-133.75300,0.04300,0.12000,-0.37500,83.57000,0.25000
041225_03.58.23.732,-0.97500,-0.48700,-0.45500,48.66700,-37.13500,-70.52500,0.05300,0.13000,-0.36800,83.18000,-0.39000
041225_03.58.23.744,-0.95000,-0.99300,0.00900,53.02500,-66.85000,-76.05500,0.05300,0.13000,-0.36800,83.66000,0.48000
041225_03.58.23.756,-0.92100,-0.88400,-0.01500,37.74800,-77.45500,-87.99000,0.06600,0.14200,-0.37400,83.71000,0.05000
041225_03.58.23.767,-0.80400,-0.72200,-0.19100,27.66700,-88.93500,-93.52000,0.07900,0.15500,-0.38700,83.39000,-0.32000
041225_03.58.23.779,-0.83900,-0.80800,-0.09300,20.77300,-94.15000,-97.05500,0.09000,0.16500,-0.40200,83.21000,-0.18000
041225_03.58.23.790,-0.68400,-0.76800,-0.09400,8.20800,-108.20200,-104.30000,0.09700,0.18100,-0.42300,83.75000,0.54000
041225_03.58.23.802,-0.69500,-0.66800,-0.22100,2.55500,-132.05500,-98.87500,0.09700,0.18100,-0.42300,83.59000,-0.16000
041225_03.58.23.813,-0.75300,-0.65800,-0.25900,-3.78000,-141.54000,-79.92300,0.10500,0.18700,-0.44900,83.21000,-0.38000
041225_03.58.23.825,-0.80000,-0.70900,-0.17800,-7.19300,-130.58500,-66.67500,0.11100,0.19900,-0.46700,82.98000,-0.23000
041225_03.58.23.837,-0.64700,-0.76600,-0.20000,-6.38700,-116.91800,-61.70500,0.11100,0.20200,-0.49400,83.57000,0.59000
041225_03.58.23.848,-0.55900,-0.86300,-0.18300,6.94800,-106.62800,-52.09700,0.11400,0.20500,-0.50800,83.70000,0.13000
041225_03.58.23.860,-0.44800,-0.91400,-0.13100,22.26000,-108.78000,-41.91200,0.11400,0.20500,-0.50800,83.36000,-0.34000
041225_03.58.23.871,-0.33400,-1.03100,0.09300,15.64500,-118.63200,-43.15500,0.10800,0.20300,-0.52600,83.43000,0.07000
041225_03.58.23.883,-0.25600,-1.07800,0.08700,6.93000,-131.77500,-47.86200,0.10400,0.19800,-0.54600,83.40000,-0.03000
041225_03.58.23.894,-0.36900,-1.04400,0.12900,-1.99500,-150.65800,-50.47000,0.09800,0.19800,-0.57600,83.20000,-0.20000
041225_03.58.23.906,-0.47900,-0.96200,0.10900,-18.70800,-169.41700,-57.75000,0.08600,0.19700,-0.60200,83.41000,0.21000
041225_03.58.23.917,-0.62200,-0.84400,0.03800,-35.77000,-182.57700,-63.54200,0.08600,0.19700,-0.60200,83.26000,-0.15000
041225_03.58.23.929,-0.77800,-0.71000,-0.02800,-48.44000,-184.27500,-65.18800,0.07300,0.19600,-0.63100,83.06000,-0.20000
041225_03.58.23.940,-0.93500,-0.56800,-0.14500,-50.54000,-166.82700,-59.51800,0.06200,0.20200,-0.66500,83.29000,0.23000
041225_03.58.23.952,-1.11000,-0.49100,-0.13800,-35.64700,-136.74500,-48.82500,0.04700,0.19700,-0.67800,83.41000,0.12000
041225_03.58.23.964,-1.19100,-0.49100,0.03500,-21.31500,-115.83300,-46.14700,0.04000,0.19900,-0.70100,83.55000,0.14000
041225_03.58.23.975,-0.97300,-0.68300,0.07500,-9.92200,-115.67500,-54.07500,0.04000,0.19900,-0.70100,83.97000,0.42000
041225_03.58.23.987,-0.75000,-0.99900,0.03300,42.26300,-112.63000,-67.72500,0.02900,0.19500,-0.71600,82.94000,-1.03000
041225_03.58.23.998,-0.49800,-1.21600,0.04400,67.30500,-106.08500,-67.20000,0.02000,0.19100,-0.71600,83.23000,0.29000
041225_03.58.24.010,-0.34400,-1.23500,0.21400,77.52500,-107.66000,-61.30300,0.01600,0.17700,-0.72900,83.17000,-0.06000
041225_03.58.24.021,-0.32100,-1.23600,0.33500,72.85300,-116.39300,-51.41500,0.00500,0.16500,-0.73600,82.91000,-0.26000
041225_03.58.24.033,-0.41000,-1.20300,0.37300,58.66000,-125.44000,-41.49300,0.00500,0.16500,-0.73600,82.94000,0.03000
041225_03.58.24.044,-0.52900,-1.10000,0.31000,45.29000,-127.13700,-35.10500,-0.00400,0.15100,-0.73800,83.25000,0.31000
041225_03.58.24.056,-0.56700,-0.95300,0.22700,38.43000,-124.82700,-30.57300,-0.01500,0.14100,-0.74600,83.15000,-0.10000
041225_03.58.24.068,-0.54100,-0.82800,0.13800,39.48000,-128.17000,-25.42700,-0.02500,0.12400,-0.75200,83.16000,0.01000
041225_03.58.24.079,-0.51100,-0.75700,0.05000,43.83800,-136.60500,-19.18000,-0.03800,0.11100,-0.75700,83.09000,-0.07000
041225_03.58.24.091,-0.48000,-0.74500,-0.05700,46.07700,-145.12800,-12.98500,-0.03800,0.11100,-0.75700,82.63000,-0.46000
041225_03.58.24.102,-0.39300,-0.72700,-0.16300,43.69700,-147.05300,-5.16200,-0.05400,0.10000,-0.76500,82.72000,0.09000
041225_03.58.24.114,-0.34400,-0.68600,-0.18900,30.24000,-127.24300,1.36500,-0.07600,0.08300,-0.77000,83.41000,0.69000
041225_03.58.24.125,-0.30700,-0.66900,-0.09200,28.96200,-97.07300,15.68000,-0.08900,0.07500,-0.76900,83.24000,-0.17000
041225_03.58.24.137,-0.41000,-0.79300,0.18300,31.86800,-63.77000,22.01500,-0.10200,0.06400,-0.76800,83.01000,-0.23000
041225_03.58.24.149,-0.47400,-0.85300,0.47300,32.74300,-38.46500,19.32000,-0.10200,0.06400,-0.76800,83.70000,0.69000
041225_03.58.24.160,-0.51000,-0.97400,0.68700,31.01000,-26.26700,17.18500,-0.10800,0.05100,-0.75800,83.30000,-0.40000
041225_03.58.24.172,-0.31700,-1.12600,0.86300,23.29200,-37.18800,17.51700,-0.11700,0.04800,-0.76600,83.11000,-0.19000
041225_03.58.24.183,-0.32000,-1.36000,0.69700,1.24200,-98.05200,18.48000,-0.13200,0.04600,-0.77500,82.98000,-0.13000
041225_03.58.24.195,-0.61800,-1.14200,0.51900,-6.75500,-120.17300,10.09700,-0.14800,0.04800,-0.77300,83.09000,0.11000
041225_03.58.24.206,-0.48000,-0.93800,0.50600,9.50200,-100.24000,7.68200,-0.14800,0.04800,-0.77300,83.67000,0.58000
041225_03.58.24.218,-0.35000,-1.02700,0.34900,24.22000,-103.81000,6.77300,-0.16000,0.04400,-0.77100,83.44000,-0.23000
041225_03.58.24.229,-0.33300,-1.06400,0.33000,35.36800,-134.13700,-6.00300,-0.17300,0.04000,-0.77700,83.33000,-0.11000
041225_03.58.24.241,-0.32300,-1.13800,0.46800,48.73700,-138.91500,-13.73800,-0.18900,0.04500,-0.77400,83.49000,0.16000
041225_03.58.24.252,-0.21100,-1.21300,0.53300,49.82200,-144.04200,-22.27800,-0.19700,0.04000,-0.76500,83.32000,-0.17000
041225_03.58.24.264,-0.26000,-1.19500,0.55400,47.49500,-136.76200,-32.20000,-0.19700,0.04000,-0.76500,83.26000,-0.06000
041225_03.58.24.275,-0.18800,-1.09700,0.56200,50.45200,-117.86300,-37.29200,-0.20100,0.03600,-0.76900,83.85000,0.59000
041225_03.58.24.287,-0.17100,-1.08100,0.58400,55.05500,-107.92300,-35.01800,-0.20300,0.03900,-0.77300,83.01000,-0.84000
041225_03.58.24.299,-0.14500,-1.09400,0.53700,61.09200,-107.50300,-30.90500,-0.20600,0.03800,-0.77600,82.85000,-0.16000
041225_03.58.24.310,-0.11600,-1.10600,0.47300,68.16200,-108.04500,-27.91300,-0.20500,0.04100,-0.76900,83.08000,0.23000
041225_03.58.24.322,0.00900,-1.07700,0.37400,73.34200,-102.39300,-30.01300,-0.20500,0.04100,-0.76900,83.37000,0.29000
041225_03.58.24.333,0.16200,-1.04800,0.40400,76.49300,-95.07700,-34.66700,-0.20400,0.04400,-0.77000,83.70000,0.33000
041225_03.58.24.345,0.20100,-1.06300,0.54400,79.27500,-93.36300,-37.92300,-0.20200,0.04400,-0.77100,83.74000,0.04000
041225_03.58.24.356,0.21000,-1.08600,0.63300,86.29300,-100.90500,-32.67300,-0.19600,0.04100,-0.77600,83.03000,-0.71000
041225_03.58.24.368,0.29200,-0.86300,0.53000,87.46500,-104.31700,-17.16700,-0.20600,0.03900,-0.78000,83.53000,0.50000
041225_03.58.24.379,0.33500,-0.83900,0.46700,85.43500,-106.29500,6.24700,-0.20600,0.03900,-0.78000,83.55000,0.02000
041225_03.58.24.391,0.39600,-0.90100,0.48300,77.75300,-110.09200,26.42500,-0.21500,0.04100,-0.78400,83.60000,0.05000
041225_03.58.24.402,0.46100,-0.95000,0.51000,63.33300,-116.18300,36.68000,-0.24200,0.04100,-0.79500,83.99000,0.39000
041225_03.58.24.414,0.44200,-0.94100,0.51300,43.19000,-119.07000,41.21300,-0.26200,0.04600,-0.81000,83.30000,-0.69000
041225_03.58.24.425,0.29500,-0.79500,0.46700,21.73500,-113.27800,46.21700,-0.28500,0.05700,-0.82300,82.78000,-0.52000
041225_03.58.24.437,0.14400,-0.75800,0.42600,6.58000,-98.57700,52.71000,-0.28500,0.05700,-0.82300,84.16000,1.38000
041225_03.58.24.448,0.00400,-0.69400,0.34800,5.21500,-79.90500,54.93200,-0.31100,0.06700,-0.83900,83.60000,-0.56000
041225_03.58.24.460,0.08800,-0.62500,0.46000,9.60800,-57.08500,55.12500,-0.33500,0.07600,-0.84200,83.95000,0.35000
041225_03.58.24.471,0.05400,-0.57400,0.37400,22.92500,-44.24000,48.26500,-0.35000,0.08000,-0.84700,83.58000,-0.37000
041225_03.58.24.483,0.16600,-0.53700,0.38700,77.15800,-37.11800,23.10000,-0.36800,0.07100,-0.84000,83.95000,0.37000
041225_03.58.24.494,0.23800,-0.31000,0.20400,114.04800,-29.97800,15.64500,-0.36800,0.07100,-0.84000,83.19000,-0.76000
041225_03.58.24.506,0.35800,-0.36900,0.26000,151.62000,-18.98700,15.06800,-0.38000,0.05700,-0.83500,83.79000,0.60000
041225_03.58.24.517,0.48300,-0.39100,0.38300,176.87200,-13.16000,21.70000,-0.38400,0.02900,-0.81200,83.32000,-0.47000
041225_03.58.24.529,0.54900,-0.34300,0.47900,187.09200,-17.02800,33.56500,-0.39200,-0.00200,-0.78400,84.23000,0.91000
041225_03.58.24.541,0.51800,-0.28700,0.50600,190.34800,-31.60500,44.18800,-0.40900,-0.03400,-0.74000,82.94000,-1.29000
041225_03.58.24.552,0.45700,-0.23600,0.49600,192.41300,-47.89700,50.03300,-0.40900,-0.03400,-0.74000,83.85000,0.91000
041225_03.58.24.564,0.37800,-0.21600,0.55100,193.06000,-58.25700,53.00700,-0.42700,-0.05900,-0.71100,84.32000,0.47000
041225_03.58.24.575,0.34500,-0.19700,0.70000,191.73000,-63.43800,54.49500,-0.44000,-0.07700,-0.67000,83.65000,-0.67000
041225_03.58.24.587,0.25600,-0.24100,0.84900,189.70000,-67.09500,56.10500,-0.46400,-0.09400,-0.63200,83.33000,-0.32000
041225_03.58.24.598,0.24200,-0.25100,0.86600,182.33300,-66.23800,58.22200,-0.48700,-0.09800,-0.59200,83.60000,0.27000
041225_03.58.24.610,0.24200,-0.20700,0.92500,164.11500,-61.89700,57.06800,-0.48700,-0.09800,-0.59200,83.18000,-0.42000
041225_03.58.24.621,0.24600,-0.22400,0.87100,155.45200,-61.32000,49.98000,-0.50400,-0.10100,-0.55600,83.83000,0.65000
041225_03.58.24.633,0.28100,-0.13600,0.83500,143.78000,-56.07000,41.16000,-0.51800,-0.10400,-0.52600,83.65000,-0.18000
041225_03.58.24.644,0.27100,-0.06100,0.87700,132.09000,-48.33500,32.90000,-0.52900,-0.10500,-0.49000,83.42000,-0.23000
041225_03.58.24.656,0.24000,-0.08200,0.87000,120.13700,-40.98500,24.44800,-0.53600,-0.10800,-0.46600,83.23000,-0.19000
041225_03.58.24.667,0.23300,-0.07100,0.83200,109.44500,-35.29800,13.58000,-0.53600,-0.10800,-0.46600,84.28000,1.05000
041225_03.58.24.679,0.27800,-0.03000,0.85600,103.00500,-34.14300,0.33300,-0.53400,-0.10500,-0.44300,83.66000,-0.62000
041225_03.58.24.690,0.33300,0.00200,0.84400,98.29800,-37.43200,-12.72200,-0.52900,-0.10600,-0.41900,83.40000,-0.26000
041225_03.58.24.702,0.37200,0.04100,0.76600,97.49300,-37.83500,-22.97800,-0.52500,-0.10200,-0.38600,82.96000,-0.44000
041225_03.58.24.714,0.75200,0.39800,0.17700,103.54800,-33.28500,-28.59500,-0.52300,-0.09700,-0.35100,83.20000,0.24000
041225_03.58.24.725,0.84200,0.58500,0.32300,154.33300,-38.53500,15.01500,-0.52300,-0.09700,-0.35100,83.64000,0.44000
041225_03.58.24.737,0.43900,0.35700,0.60500,205.41500,-36.36500,8.82000,-0.52900,-0.08500,-0.30600,83.70000,0.06000
041225_03.58.24.748,0.54200,0.48100,0.69100,229.46000,-33.63500,7.19300,-0.52900,-0.05700,-0.25600,83.82000,0.12000
041225_03.58.24.760,0.60600,0.53100,0.74300,240.87000,-28.73500,13.37000,-0.53500,-0.02400,-0.21200,83.67000,-0.15000
041225_03.58.24.771,0.61300,0.47400,0.86400,242.00800,-26.63500,19.47800,-0.54000,0.02500,-0.17500,83.17000,-0.50000
041225_03.58.24.783,0.61400,0.38200,1.06000,226.04800,-16.38000,22.57500,-0.54000,0.02500,-0.17500,83.13000,-0.04000
041225_03.58.24.794,0.53000,0.29500,0.99600,199.22000,-9.97500,22.08500,-0.54100,0.05800,-0.14100,82.99000,-0.14000
041225_03.58.24.806,0.49000,0.27800,1.04400,176.01500,-6.49200,17.50000,-0.53900,0.08600,-0.11700,83.07000,0.08000
041225_03.58.24.817,0.52000,0.35400,1.01200,153.24700,-5.70500,12.37300,-0.54100,0.11200,-0.10600,83.29000,0.22000
041225_03.58.24.829,0.52800,0.34600,0.99100,131.95000,-6.98300,4.86500,-0.54400,0.14000,-0.09500,83.93000,0.64000
041225_03.58.24.840,0.57500,0.34500,0.87600,109.91800,-5.56500,1.05000,-0.54400,0.14000,-0.09500,83.22000,-0.71000
041225_03.58.24.852,0.59400,0.44600,0.64800,91.36800,8.27800,-1.89000,-0.54100,0.16100,-0.08200,83.87000,0.65000
041225_03.58.24.863,0.56200,0.48700,0.42400,79.38000,10.86800,-3.71000,-0.54000,0.17700,-0.07200,83.28000,-0.59000
041225_03.58.24.874,0.53000,0.55700,0.38100,83.47500,8.92500,-7.85800,-0.54000,0.19300,-0.06600,83.69000,0.41000
041225_03.58.24.886,0.55700,0.59500,0.40200,92.26000,6.17800,-11.32300,-0.53800,0.21700,-0.05500,83.70000,0.01000
041225_03.58.24.897,0.53700,0.63700,0.41900,99.08500,5.72200,-12.37300,-0.53800,0.21700,-0.05500,83.79000,0.09000
041225_03.58.24.909,0.53100,0.67500,0.44000,100.59000,8.10200,-11.23500,-0.54300,0.23400,-0.05100,83.87000,0.08000
041225_03.58.24.920,0.51100,0.67200,0.44600,95.84800,8.27800,-9.57300,-0.54100,0.26200,-0.03900,83.53000,-0.34000
041225_03.58.24.932,0.48600,0.62700,0.42800,88.02500,6.23000,-9.94000,-0.54700,0.28600,-0.03600,83.46000,-0.07000
041225_03.58.24.943,0.44000,0.57500,0.39200,82.39000,3.29000,-13.17700,-0.53900,0.30300,-0.03400,83.82000,0.36000
041225_03.58.24.955,0.43800,0.55000,0.33900,82.44200,-4.11300,-18.44500,-0.53900,0.30300,-0.03400,83.22000,-0.60000
041225_03.58.24.966,0.48400,0.61400,0.24800,87.83200,-13.66800,-23.94000,-0.53200,0.32800,-0.03000,83.76000,0.54000
041225_03.58.24.978,0.53800,0.65800,0.19100,110.84500,-23.08300,-28.59500,-0.52600,0.35200,-0.02900,83.22000,-0.54000
041225_03.58.24.989,0.51800,0.67900,0.19000,120.06700,-22.76700,-28.31500,-0.52100,0.37400,-0.01900,83.05000,-0.17000
041225_03.58.25.001,0.47600,0.68700,0.19200,130.21700,-19.60000,-29.68000,-0.51300,0.41500,-0.02000,83.38000,0.33000
041225_03.58.25.012,0.45800,0.71300,0.16400,139.26500,-13.44000,-32.02500,-0.51300,0.41500,-0.02000,83.83000,0.45000
041225_03.58.25.024,0.48600,0.72700,0.14800,148.80300,-8.34700,-32.83000,-0.51000,0.45200,-0.02300,83.15000,-0.68000
041225_03.58.25.035,0.49700,0.73100,0.13300,156.48500,-9.41500,-29.47000,-0.51000,0.48300,-0.03000,82.66000,-0.49000
041225_03.58.25.047,0.47400,0.78900,0.09400,162.31200,-13.14200,-25.20000,-0.50600,0.52600,-0.04500,83.83000,1.17000
041225_03.58.25.058,0.48700,0.82200,0.09000,168.43700,-16.95800,-21.21000,-0.51100,0.56400,-0.05900,83.40000,-0.43000
041225_03.58.25.070,0.49700,0.84800,0.07200,173.21500,-20.86000,-15.19000,-0.51100,0.56400,-0.05900,82.82000,-0.58000
041225_03.58.25.081,0.49700,0.79900,0.01500,177.11800,-23.69500,-7.71800,-0.50300,0.60700,-0.07400,83.56000,0.74000
041225_03.58.25.093,0.51800,0.74300,-0.09800,180.58300,-25.11200,-0.98000,-0.49700,0.64300,-0.09900,83.28000,-0.28000
041225_03.58.25.104,0.52100,0.69800,-0.20800,190.66300,-28.66500,7.12200,-0.48600,0.68100,-0.12200,83.43000,0.15000
041225_03.58.25.116,0.46300,0.62500,-0.44200,203.89300,-28.22800,5.63500,-0.48100,0.71800,-0.16300,83.02000,-0.41000
041225_03.58.25.127,0.45600,0.63000,-0.48000,223.37000,-27.10800,1.03300,-0.48100,0.71800,-0.16300,83.49000,0.47000
041225_03.58.25.139,0.40400,0.64700,-0.51100,245.71700,-24.53500,-4.42800,-0.47600,0.75800,-0.20500,83.40000,-0.09000
041225_03.58.25.150,0.37400,0.68800,-0.53300,270.77700,-18.06000,-9.32800,-0.47600,0.78900,-0.25900,84.04000,0.64000
041225_03.58.25.162,0.65800,0.38400,-0.11800,289.04800,-16.39800,-9.36300,-0.47500,0.82200,-0.31700,83.17000,-0.87000
041225_03.58.25.173,0.26200,0.46200,-0.40400,276.20300,-18.04200,-4.07700,-0.47700,0.83800,-0.37600,82.81000,-0.36000
041225_03.58.25.185,0.60800,0.42000,-0.15000,272.61500,-2.01300,9.92200,-0.47700,0.83800,-0.37600,83.65000,0.84000
041225_03.58.25.196,0.52400,0.26500,-0.23100,268.90500,-3.16800,26.70500,-0.46700,0.85000,-0.43300,83.18000,-0.47000
041225_03.58.25.208,0.47400,0.18300,-0.33200,266.85800,-1.83700,44.66000,-0.45700,0.84500,-0.50000,83.73000,0.55000
041225_03.58.25.219,0.45800,0.11300,-0.43600,270.62000,-0.73500,60.14700,-0.45000,0.83600,-0.56500,83.21000,-0.52000
041225_03.58.25.231,0.37100,0.00600,-0.50900,294.63000,12.35500,84.42000,-0.43300,0.81900,-0.62500,83.20000,-0.01000
041225_03.58.25.242,0.44000,-0.30700,-0.60300,301.92700,19.00500,95.58500,-0.43300,0.81900,-0.62500,83.72000,0.52000
041225_03.58.25.254,0.46600,-0.46900,-0.63700,303.60800,20.40500,102.93500,-0.42100,0.78200,-0.69000,82.83000,-0.89000
041225_03.58.25.266,0.42400,-0.60700,-0.66600,305.86500,19.39000,105.19200,-0.41200,0.73500,-0.73900,82.76000,-0.07000
041225_03.58.25.277,0.40800,-0.73800,-0.65200,310.04800,21.80500,104.77200,-0.40200,0.67700,-0.77800,82.77000,0.01000
041225_03.58.25.289,0.41800,-0.91000,-0.60300,311.67500,25.25300,103.23200,-0.40600,0.61600,-0.80800,83.11000,0.34000
041225_03.58.25.300,0.54100,-1.00000,-0.41700,304.69300,23.59000,102.76000,-0.40600,0.61600,-0.80800,83.57000,0.46000
041225_03.58.25.312,0.59600,-1.48700,-0.33600,281.33000,13.61500,108.88500,-0.41600,0.55500,-0.82800,82.79000,-0.78000
041225_03.58.25.323,0.59600,-1.49400,-0.33600,243.86300,10.41300,101.27200,-0.42800,0.50700,-0.83200,82.59000,-0.20000
041225_03.58.25.335,0.53500,-1.56200,-0.33500,214.77700,4.83000,88.30500,-0.44500,0.47100,-0.83000,83.03000,0.44000
041225_03.58.25.346,0.49900,-1.61100,-0.28300,187.86300,-0.05300,52.81500,-0.46900,0.44400,-0.82700,83.15000,0.12000
041225_03.58.25.358,0.57800,-1.54700,-0.35300,163.31000,-4.28700,38.53500,-0.46900,0.44400,-0.82700,83.44000,0.29000
041225_03.58.25.369,0.49200,-1.44600,-0.32700,164.51800,-2.97500,24.81500,-0.48900,0.42100,-0.82000,83.73000,0.29000
041225_03.58.25.381,0.52900,-1.32300,-0.32800,166.05700,6.23000,16.43300,-0.51100,0.40300,-0.81800,83.25000,-0.48000
041225_03.58.25.392,0.39500,-1.36600,-0.22300,170.39800,11.44500,17.09700,-0.52300,0.38200,-0.81100,82.79000,-0.46000
041225_03.58.25.404,0.42700,-1.18700,-0.33700,178.27300,5.70500,14.61300,-0.53500,0.36100,-0.80000,83.64000,0.85000
041225_03.58.25.415,0.35200,-1.18300,-0.38600,181.10700,7.19300,18.93500,-0.53500,0.36100,-0.80000,83.97000,0.33000
041225_03.58.25.427,0.28900,-1.19700,-0.34500,188.45800,5.49500,22.43500,-0.54900,0.34100,-0.79300,83.26000,-0.71000
041225_03.58.25.438,0.36000,-1.19800,-0.26600,196.01800,-2.15200,27.37000,-0.55700,0.31600,-0.78800,83.68000,0.42000
041225_03.58.25.450,0.31200,-1.27400,-0.21000,192.39500,-12.00500,26.46000,-0.56400,0.29500,-0.77600,83.17000,-0.51000
041225_03.58.25.461,0.28400,-1.29100,-0.11900,179.86500,-19.75700,19.07500,-0.57600,0.27600,-0.77600,82.98000,-0.19000
041225_03.58.25.473,0.36400,-1.30600,-0.03700,157.65800,-28.87500,-0.28000,-0.57600,0.27600,-0.77600,83.53000,0.55000
041225_03.58.25.484,0.40600,-1.32100,0.00900,94.15000,-27.09000,-11.23500,-0.58300,0.26700,-0.76500,83.45000,-0.08000
041225_03.58.25.496,0.49300,-1.31600,0.00400,67.44500,-27.17700,-23.74700,-0.58900,0.25900,-0.76000,83.16000,-0.29000
041225_03.58.25.508,0.49100,-1.26300,0.03700,50.66200,-25.69000,-37.11800,-0.59100,0.25000,-0.75900,82.97000,-0.19000
041225_03.58.25.519,0.55500,-1.27700,0.06400,42.87500,-22.05000,-51.80000,-0.58800,0.23800,-0.75500,83.49000,0.52000
041225_03.58.25.531,0.61800,-1.28800,0.10000,45.97200,-22.96000,-64.99500,-0.58800,0.23800,-0.75500,82.89000,-0.60000
041225_03.58.25.542,0.54500,-1.33900,0.20500,59.27200,-28.33300,-77.17500,-0.58200,0.22200,-0.74800,83.22000,0.33000
041225_03.58.25.554,0.50900,-1.29300,0.23900,71.64500,-31.93700,-91.12200,-0.57300,0.20000,-0.75300,83.23000,0.01000
041225_03.58.25.566,0.59500,-1.14000,0.25600,81.48000,-27.80800,-106.90800,-0.55900,0.18000,-0.74600,83.20000,-0.03000
041225_03.58.25.577,0.73500,-0.96300,0.28800,87.51800,-25.72500,-116.07700,-0.54600,0.15500,-0.73800,83.86000,0.66000
041225_03.58.25.589,0.74300,-0.84300,0.26100,89.05800,-24.57000,-115.16800,-0.54600,0.15500,-0.73800,83.72000,-0.14000
041225_03.58.25.600,0.72600,-0.74700,0.27500,88.11300,-22.76700,-107.13500,-0.52800,0.13000,-0.72500,83.42000,-0.30000
041225_03.58.25.612,0.68200,-0.76700,0.38800,87.74500,-26.51300,-105.91000,-0.51200,0.10600,-0.71800,83.23000,-0.19000
041225_03.58.25.623,0.62500,-0.74600,0.44200,85.68000,-32.49800,-107.22300,-0.49100,0.09000,-0.70900,83.63000,0.40000
041225_03.58.25.635,0.62400,-0.69300,0.42900,82.93300,-42.14000,-108.37800,-0.48000,0.07600,-0.69100,83.73000,0.10000
041225_03.58.25.646,0.58100,-0.68400,0.37600,81.69000,-52.76300,-110.11000,-0.48000,0.07600,-0.69100,83.11000,-0.62000
041225_03.58.25.658,0.58900,-0.66300,0.32200,81.14700,-61.70500,-113.08500,-0.46000,0.06100,-0.68700,82.94000,-0.17000
041225_03.58.25.669,0.65200,-0.52500,0.15900,86.11800,-71.97800,-115.93800,-0.45200,0.05000,-0.67800,82.94000,0.00000
041225_03.58.25.681,0.56400,-0.49300,0.00000,99.43500,-76.91200,-115.55200,-0.43600,0.03600,-0.65700,83.39000,0.45000
041225_03.58.25.692,0.52000,-0.49800,-0.12800,110.16200,-62.24800,-110.86300,-0.41900,0.02500,-0.63900,83.64000,0.25000
041225_03.58.25.704,0.53500,-0.49200,0.11400,118.44000,-45.09700,-110.68800,-0.41900,0.02500,-0.63900,83.68000,0.04000
041225_03.58.25.716,0.98700,-0.18100,0.26100,119.29800,-40.98500,-108.09800,-0.40100,0.01100,-0.62300,83.42000,-0.26000
041225_03.58.25.727,0.99000,-0.31400,0.37000,128.78300,-45.92000,-79.39700,-0.38800,-0.00300,-0.59900,83.35000,-0.07000
041225_03.58.25.739,0.82400,-0.12000,0.18200,109.51500,-36.06800,-65.60700,-0.38000,-0.01500,-0.59400,83.51000,0.16000
041225_03.58.25.750,0.71500,-0.08900,0.14000,89.56500,-26.91500,-42.94500,-0.37100,-0.02200,-0.58000,84.06000,0.55000
041225_03.58.25.762,0.76600,-0.20000,0.16100,77.17500,-33.04000,-30.76500,-0.37100,-0.02200,-0.58000,83.13000,-0.93000
041225_03.58.25.774,0.88500,-0.19500,0.09300,65.48500,-40.30300,-25.48000,-0.36700,-0.02900,-0.56200,83.38000,0.25000
041225_03.58.25.786,0.89300,-0.20200,0.07800,53.51500,-40.37300,-18.41000,-0.36800,-0.03200,-0.56400,84.03000,0.65000
041225_03.58.25.798,0.97600,-0.35700,0.26600,45.58800,-39.84700,-8.75000,-0.36800,-0.03200,-0.55600,83.56000,-0.47000
041225_03.58.25.809,0.99300,-0.44800,0.48500,44.46700,-52.78000,-5.88000,-0.36400,-0.03800,-0.54800,83.41000,-0.15000
041225_03.58.25.821,0.94400,-0.19400,0.48700,38.74500,-63.21000,-12.18000,-0.36400,-0.03800,-0.54800,83.16000,-0.25000
041225_03.58.25.833,0.98400,-0.07500,0.45900,33.75700,-71.57500,-6.65000,-0.36100,-0.04200,-0.54400,83.25000,0.09000
041225_03.58.25.845,1.04900,-0.07000,0.45500,36.62700,-88.09500,5.35500,-0.36500,-0.04000,-0.54000,83.25000,0.00000
041225_03.58.25.856,0.93200,-0.12800,0.36400,19.74000,-89.30200,7.05300,-0.37200,-0.04200,-0.54100,83.56000,0.31000
041225_03.58.25.868,0.86400,-0.14000,0.10800,17.50000,-82.74000,9.67700,-0.37700,-0.03900,-0.53900,83.36000,-0.20000
041225_03.58.25.880,0.83300,-0.14800,0.05500,17.53500,-72.97500,14.80500,-0.37700,-0.03900,-0.53900,83.63000,0.27000
041225_03.58.25.891,0.84500,-0.19500,0.08300,17.78000,-62.77200,19.82700,-0.38500,-0.04000,-0.53300,83.59000,-0.04000
041225_03.58.25.903,0.87600,-0.21000,0.11100,19.91500,-57.69800,20.21200,-0.38900,-0.04000,-0.53500,83.43000,-0.16000
041225_03.58.25.915,0.88000,-0.14100,0.03800,21.17500,-55.42300,21.22800,-0.40000,-0.03400,-0.52800,83.01000,-0.42000
041225_03.58.25.927,0.93200,-0.14700,-0.02200,20.37000,-48.84200,25.58500,-0.40300,-0.03700,-0.52300,83.18000,0.17000
041225_03.58.25.938,1.01200,-0.25900,-0.00100,20.65000,-42.15800,24.23700,-0.40300,-0.03700,-0.52300,83.05000,-0.13000
041225_03.58.25.950,1.01200,-0.34800,0.00200,22.38200,-34.23000,14.64800,-0.41100,-0.03400,-0.52000,83.59000,0.54000
041225_03.58.25.962,1.02600,-0.26200,-0.01000,19.67000,-20.33500,7.03500,-0.41400,-0.03600,-0.51700,83.34000,-0.25000
041225_03.58.25.973,1.05000,-0.28900,0.06600,18.83000,-9.17000,-1.94200,-0.41700,-0.03100,-0.51400,84.22000,0.88000
041225_03.58.25.985,1.07600,-0.27000,0.11100,16.20500,-2.97500,-4.02500,-0.41500,-0.03300,-0.51500,83.36000,-0.86000
041225_03.58.25.997,0.92000,-0.18400,-0.01000,7.75300,5.44300,-9.43200,-0.41500,-0.03300,-0.51500,83.09000,-0.27000
041225_03.58.26.008,0.98400,-0.21600,0.04700,3.92000,13.63200,-12.86300,-0.41200,-0.03200,-0.51100,83.35000,0.26000
041225_03.58.26.020,0.80800,-0.16800,0.17600,2.74700,12.12700,-11.77800,-0.40700,-0.03400,-0.51300,83.52000,0.17000
041225_03.58.26.031,0.83600,-0.04900,0.26300,6.77300,8.78500,-7.94500,-0.40400,-0.03400,-0.51500,83.16000,-0.36000
041225_03.58.26.043,0.83900,-0.02700,0.32100,8.34700,1.75000,-1.45200,-0.40800,-0.03100,-0.52100,83.31000,0.15000
041225_03.58.26.054,0.84200,-0.04200,0.27500,8.96000,-12.89800,4.53200,-0.40800,-0.03100,-0.52100,83.02000,-0.29000
041225_03.58.26.066,0.87700,-0.00100,0.14100,4.55000,-24.18500,12.40800,-0.40400,-0.03300,-0.51500,83.28000,0.26000
041225_03.58.26.077,0.87000,0.01200,0.10300,-1.83700,-31.34300,23.81700,-0.41100,-0.03100,-0.51700,83.61000,0.33000
041225_03.58.26.089,0.84400,-0.08100,0.09100,-5.77500,-40.61800,34.17800,-0.42000,-0.03000,-0.52200,83.57000,-0.04000
041225_03.58.26.100,0.82000,-0.14300,0.03900,-10.64000,-50.26000,43.55700,-0.43700,-0.02700,-0.51900,83.36000,-0.21000
041225_03.58.26.112,0.81500,-0.10800,-0.01600,-26.53000,-66.85000,48.65000,-0.43700,-0.02700,-0.51900,83.33000,-0.03000
041225_03.58.26.124,0.65200,-0.03600,-0.01000,-34.93000,-73.20200,55.37000,-0.44400,-0.02200,-0.51500,83.33000,0.00000
041225_03.58.26.135,0.63000,0.02200,0.07800,-39.49800,-81.93500,65.41500,-0.46100,-0.01800,-0.51400,83.19000,-0.14000
041225_03.58.26.147,0.56700,0.05800,-0.04100,-41.12500,-97.68500,79.74700,-0.48400,-0.01000,-0.51300,82.99000,-0.20000
041225_03.58.26.159,0.48500,-0.10900,-0.05600,-45.64000,-103.53000,93.57300,-0.50400,0.00400,-0.50100,83.49000,0.50000
041225_03.58.26.171,0.48400,-0.10400,-0.29000,-54.56500,-108.32500,103.95000,-0.50400,0.00400,-0.50100,83.29000,-0.20000
041225_03.58.26.183,0.56300,-0.18400,-0.29100,-63.98000,-107.20500,114.34500,-0.53200,0.02000,-0.49800,83.99000,0.70000
041225_03.58.26.194,0.59000,-0.24400,-0.32000,-70.96300,-109.81300,122.97300,-0.55800,0.03600,-0.49100,82.99000,-1.00000
041225_03.58.26.206,0.55600,-0.34900,-0.31600,-74.98800,-113.31300,129.29000,-0.57800,0.05300,-0.48600,82.59000,-0.40000
041225_03.58.26.218,0.41800,-0.77700,0.15700,-76.89500,-127.54000,126.47300,-0.60500,0.06800,-0.47000,82.76000,0.17000
041225_03.58.26.229,0.36700,-0.66200,-0.31300,-72.83500,-165.55000,99.61000,-0.60500,0.06800,-0.47000,83.28000,0.52000
041225_03.58.26.241,0.62300,-0.18600,-0.24500,-69.49300,-184.32700,112.31500,-0.62400,0.08200,-0.43600,82.98000,-0.30000
041225_03.58.26.253,0.26400,-0.35800,-0.25200,-66.18500,-195.61500,129.46500,-0.63900,0.10000,-0.40900,81.89000,-1.09000
041225_03.58.26.264,0.15200,-0.46600,-0.43600,-62.51000,-197.19000,137.04200,-0.65300,0.10600,-0.37200,84.43000,2.54000
041225_03.58.26.276,0.29500,-0.63300,-0.45100,-48.30000,-204.05000,141.08500,-0.66400,0.12500,-0.33000,83.76000,-0.67000
041225_03.58.26.287,0.05000,-0.67000,-0.55400,-51.50200,-217.28000,139.10700,-0.66400,0.12500,-0.33000,83.77000,0.01000
041225_03.58.26.299,0.06800,-0.83600,-0.65700,-50.13800,-216.21200,136.09800,-0.67200,0.15400,-0.29100,83.18000,-0.59000
041225_03.58.26.311,0.09700,-1.06000,-0.72000,-42.78700,-217.43700,124.65300,-0.67000,0.17600,-0.25000,83.26000,0.08000
041225_03.58.26.322,0.11100,-1.26600,-0.66200,-29.62800,-222.61800,102.00700,-0.65000,0.18000,-0.20400,83.32000,0.06000
041225_03.58.26.334,0.01100,-1.35600,-0.73400,-9.94000,-230.44000,71.83800,-0.62600,0.19500,-0.15700,82.90000,-0.42000
041225_03.58.26.346,0.11600,-1.33800,-0.68400,11.28800,-230.02000,42.03500,-0.62600,0.19500,-0.15700,83.36000,0.46000
041225_03.58.26.358,0.20400,-1.36000,-0.60800,45.58800,-240.53800,-10.58700,-0.59300,0.20000,-0.10900,83.04000,-0.32000
041225_03.58.26.369,0.04700,-1.38100,-0.89500,54.25000,-236.32000,-36.24300,-0.54800,0.21500,-0.06800,83.45000,0.41000
041225_03.58.26.381,-0.00400,-1.40900,-1.00500,57.45200,-223.14300,-59.95500,-0.50200,0.23100,-0.04000,84.07000,0.62000
041225_03.58.26.393,-0.04900,-1.46700,-1.05900,57.96000,-206.46500,-81.07700,-0.45100,0.24200,-0.02100,82.61000,-1.46000
041225_03.58.26.405,-0.08700,-1.37200,-1.14100,53.65500,-189.64800,-103.40800,-0.45100,0.24200,-0.02100,83.29000,0.68000
041225_03.58.26.417,-0.12000,-1.27100,-1.17100,45.43000,-170.83500,-122.41200,-0.40300,0.26300,-0.00200,83.31000,0.02000
041225_03.58.26.428,-0.22500,-1.27100,-1.21300,33.37300,-150.09800,-136.53500,-0.36600,0.27700,0.01000,83.29000,-0.02000
041225_03.58.26.440,-0.38800,-1.38200,-1.32500,24.02800,-127.06700,-149.64300,-0.33900,0.28700,0.02000,82.53000,-0.76000
041225_03.58.26.452,-0.31200,-1.29200,-1.29900,25.69000,-97.75500,-164.90200,-0.31700,0.30300,0.02600,83.11000,0.58000
041225_03.58.26.464,-0.26700,-1.21100,-1.15200,28.54200,-67.20000,-175.14000,-0.31700,0.30300,0.02600,82.68000,-0.43000
041225_03.58.26.475,-0.22400,-1.17700,-0.98300,26.25000,-42.85800,-180.91500,-0.30700,0.31300,0.02400,83.24000,0.56000
041225_03.58.26.487,-0.36500,-1.23000,-0.91800,3.55300,-15.54000,-190.45200,-0.29900,0.32400,0.02500,82.71000,-0.53000
041225_03.58.26.499,-0.27600,-0.99300,-0.69400,-2.48500,-11.56800,-190.43500,-0.29600,0.32500,0.02200,82.45000,-0.26000
041225_03.58.26.510,-0.28200,-1.12200,-0.55500,-1.54000,-20.75500,-188.94700,-0.29100,0.32600,0.01600,82.99000,0.54000
041225_03.58.26.522,-0.30100,-1.05900,-0.55300,-7.10500,-32.90000,-189.66500,-0.29100,0.32600,0.01600,82.96000,-0.03000
041225_03.58.26.533,-0.42900,-0.96500,-0.86200,-13.47500,-40.63500,-189.15800,-0.26800,0.32600,0.01600,82.91000,-0.05000
041225_03.58.26.545,-0.51600,-0.88600,-1.08700,-14.01700,-29.55800,-184.18700,-0.25400,0.33600,-0.00100,83.27000,0.36000
041225_03.58.26.557,-0.48200,-0.82100,-1.16700,-11.93500,-5.88000,-174.12500,-0.24300,0.34000,-0.00500,82.78000,-0.49000
041225_03.58.26.568,-0.45200,-0.81700,-1.09500,-14.01700,18.02500,-163.43200,-0.24000,0.34700,-0.00700,82.92000,0.14000
041225_03.58.26.580,-0.34800,-0.75900,-0.91900,-16.99300,32.32200,-154.22700,-0.24000,0.34700,-0.00700,83.42000,0.50000
041225_03.58.26.591,-0.26200,-0.71800,-0.76500,-18.55000,33.49500,-144.93500,-0.25900,0.35200,-0.01900,84.15000,0.73000
041225_03.58.26.603,-0.21000,-0.69000,-0.68200,-22.19000,26.68700,-135.50300,-0.26300,0.34300,-0.02000,83.03000,-1.12000
041225_03.58.26.615,-0.10300,-0.70900,-0.62900,-35.47200,10.93800,-119.78700,-0.27100,0.33600,-0.02800,83.49000,0.46000
041225_03.58.26.626,0.17200,-0.64800,-0.47700,-40.86200,1.73200,-114.69500,-0.28900,0.32100,-0.03200,83.09000,-0.40000
041225_03.58.26.638,0.25700,-0.64900,-0.47400,-44.85300,-3.97300,-111.10700,-0.28900,0.32100,-0.03200,83.25000,0.16000
041225_03.58.26.650,0.33100,-0.63900,-0.48100,-48.70200,-4.28700,-111.30000,-0.28400,0.30400,-0.04200,83.58000,0.33000
041225_03.58.26.661,0.37200,-0.67800,-0.43300,-52.32500,-1.73200,-112.10500,-0.29300,0.28400,-0.04500,82.92000,-0.66000
041225_03.58.26.673,0.32900,-0.43300,-0.40800,-53.42800,0.10500,-111.21300,-0.29800,0.26500,-0.05800,83.03000,0.11000
041225_03.58.26.685,-0.04100,0.02700,-0.33700,-44.01300,6.91200,-89.32000,-0.28900,0.24400,-0.05600,83.17000,0.14000
041225_03.58.26.696,-0.17000,-0.41900,-0.25800,-27.87800,23.59000,-59.58800,-0.28900,0.24400,-0.05600,83.04000,-0.13000
041225_03.58.26.708,-0.08000,-0.18600,-0.31500,-12.56500,27.10800,-64.76800,-0.28900,0.22800,-0.07000,83.16000,0.12000
041225_03.58.26.720,0.05700,-0.16600,-0.39200,-2.57200,24.62200,-59.93800,-0.29400,0.22600,-0.06900,83.11000,-0.05000
041225_03.58.26.731,0.29900,-0.35900,-0.42000,0.03500,12.91500,-51.71300,-0.29000,0.22200,-0.07500,83.12000,0.01000
041225_03.58.26.743,0.21000,-0.29600,-1.02000,4.27000,8.34700,-43.01500,-0.29400,0.22100,-0.08800,82.74000,-0.38000
041225_03.58.26.754,0.48600,-0.39200,-0.95100,3.53500,23.69500,-34.52800,-0.29400,0.22100,-0.08800,83.84000,1.10000
041225_03.58.26.766,0.62000,-0.42900,-0.83500,8.27800,34.07200,-34.58000,-0.28900,0.21900,-0.07900,83.04000,-0.80000
041225_03.58.26.777,0.76200,-0.41400,-0.61600,10.97200,37.32700,-36.96000,-0.29200,0.21900,-0.07600,83.65000,0.61000
041225_03.58.26.789,0.84100,-0.39300,-0.49400,4.74200,30.55500,-37.29200,-0.29600,0.20800,-0.08100,83.17000,-0.48000
041225_03.58.26.801,0.99300,-0.07600,-0.67700,-6.96500,23.15300,-30.81800,-0.29400,0.20600,-0.08000,83.71000,0.54000
041225_03.58.26.813,0.71800,-0.56200,-0.33700,-17.32500,30.06500,-17.20200,-0.29400,0.20600,-0.08000,83.28000,-0.43000
041225_03.58.26.824,0.75800,-0.52800,-0.39300,-10.25500,1.33000,-28.78800,-0.29800,0.20300,-0.08300,83.68000,0.40000
041225_03.58.26.836,0.68900,-0.29600,-0.77600,-10.23800,-13.17700,-36.17300,-0.29100,0.19800,-0.09100,83.77000,0.09000
041225_03.58.26.848,0.66600,-0.31300,-0.71300,-8.19000,-1.96000,-33.49500,-0.28000,0.19600,-0.08900,83.44000,-0.33000
041225_03.58.26.859,0.61300,-0.33700,-0.68300,-1.50500,5.46000,-31.90300,-0.28100,0.19400,-0.08900,83.39000,-0.05000
041225_03.58.26.871,0.64600,-0.27600,-0.64600,1.71500,2.88800,-26.72200,-0.28100,0.19400,-0.08900,83.46000,0.07000
041225_03.58.26.882,0.66400,-0.31300,-0.76600,0.15700,-1.31200,-21.24500,-0.28400,0.19500,-0.08200,83.21000,-0.25000
041225_03.58.26.894,0.65700,-0.33300,-0.85100,-1.47000,0.14000,-16.80000,-0.27700,0.19300,-0.08400,83.60000,0.39000
041225_03.58.26.905,0.65500,-0.31700,-0.83100,-2.45000,6.42300,-14.15800,-0.27500,0.18800,-0.09100,83.58000,-0.02000
041225_03.58.26.917,0.63600,-0.30000,-0.75800,-3.39500,11.16500,-11.14800,-0.27400,0.18300,-0.08800,83.65000,0.07000
041225_03.58.26.928,0.61200,-0.29800,-0.72300,-5.25000,11.48000,-7.43700,-0.27400,0.18300,-0.08800,84.01000,0.36000
041225_03.58.26.940,0.56800,-0.30200,-0.75800,-4.60200,10.39500,-4.77800,-0.27600,0.18300,-0.09000,83.03000,-0.98000
041225_03.58.26.951,0.58400,-0.32500,-0.73800,-0.49000,13.87800,-3.72700,-0.27600,0.18000,-0.09200,83.89000,0.86000
041225_03.58.26.963,0.65700,-0.26700,-0.65100,4.37500,17.02800,-3.50000,-0.27700,0.18600,-0.08900,83.01000,-0.88000
041225_03.58.26.974,0.74200,-0.23700,-0.56200,7.35000,14.71700,-3.53500,-0.27800,0.18200,-0.09300,83.33000,0.32000
041225_03.58.26.986,0.67500,-0.18600,-0.46900,12.28500,0.42000,2.55500,-0.27800,0.18200,-0.09300,83.37000,0.04000
041225_03.58.26.997,0.63500,-0.26700,-0.55300,15.38200,-5.65300,6.96500,-0.28600,0.18100,-0.09400,83.36000,-0.01000
041225_03.58.27.009,0.69500,-0.26400,-0.52400,19.93300,-8.38200,9.13500,-0.28200,0.18300,-0.08700,83.06000,-0.30000
041225_03.58.27.020,0.70900,-0.27700,-0.57200,22.68000,-11.84700,12.56500,-0.28000,0.19000,-0.08900,83.47000,0.41000
041225_03.58.27.032,0.70700,-0.32100,-0.58200,24.83300,-16.81700,16.01300,-0.27900,0.18900,-0.08800,83.42000,-0.05000
041225_03.58.27.044,0.68200,-0.32700,-0.73000,25.09500,-22.27800,17.81500,-0.27900,0.18900,-0.08800,83.52000,0.10000
041225_03.58.27.055,0.63700,-0.36600,-0.79400,25.06000,-21.98000,19.58300,-0.27900,0.19500,-0.09200,83.99000,0.47000
041225_03.58.27.067,0.65100,-0.35800,-0.76100,23.27500,-19.72200,21.54200,-0.27300,0.19800,-0.08800,83.51000,-0.48000
041225_03.58.27.078,0.62100,-0.37400,-0.69000,21.52500,-20.73700,23.83500,-0.27600,0.19700,-0.08400,83.38000,-0.13000
041225_03.58.27.090,0.62800,-0.37200,-0.62100,21.50700,-23.62500,26.77500,-0.27200,0.20400,-0.08400,83.93000,0.55000
041225_03.58.27.102,0.63800,-0.37500,-0.56300,23.95800,-29.12000,29.62800,-0.27200,0.20400,-0.08400,83.30000,-0.63000
041225_03.58.27.114,0.61000,-0.41000,-0.60500,32.63800,-37.66000,35.68200,-0.26600,0.20600,-0.08900,83.76000,0.46000
041225_03.58.27.125,0.50000,-0.42400,-0.71100,40.37300,-38.55300,37.66000,-0.26200,0.21000,-0.08900,82.97000,-0.79000
041225_03.58.27.137,0.47300,-0.38000,-0.74300,45.69300,-34.75500,43.47000,-0.25200,0.22200,-0.08700,83.07000,0.10000
041225_03.58.27.149,0.44000,-0.34400,-0.71500,45.83300,-29.08500,51.27500,-0.25100,0.23200,-0.08400,83.53000,0.46000
041225_03.58.27.161,0.43100,-0.39800,-0.63800,47.35500,-22.99500,59.06300,-0.25100,0.23200,-0.08400,83.46000,-0.07000
041225_03.58.27.172,0.44100,-0.46800,-0.52500,49.57700,-19.39000,66.95500,-0.25400,0.23400,-0.07700,83.61000,0.15000
041225_03.58.27.184,0.47100,-0.51500,-0.48000,52.44700,-21.94500,72.31000,-0.25400,0.24900,-0.08100,83.70000,0.09000
041225_03.58.27.195,0.44700,-0.58600,-0.54200,57.69800,-26.72200,73.71000,-0.25200,0.25100,-0.07400,83.07000,-0.63000
041225_03.58.27.207,0.36600,-0.64300,-0.59900,63.66500,-28.87500,72.53700,-0.24700,0.26200,-0.07800,83.81000,0.74000
041225_03.58.27.218,0.39000,-0.61000,-0.61800,68.98500,-27.73700,70.94500,-0.24700,0.26200,-0.07800,83.48000,-0.33000
041225_03.58.27.230,0.37900,-0.65300,-0.45000,71.27800,-26.61800,72.22300,-0.23900,0.26800,-0.07400,83.24000,-0.24000
041225_03.58.27.242,0.39000,-0.59500,-0.50200,69.09000,-36.40000,78.50500,-0.23800,0.28200,-0.07200,83.15000,-0.09000
041225_03.58.27.254,0.32500,-0.62100,-0.47600,62.56300,-29.55800,91.42000,-0.22900,0.29100,-0.06800,83.08000,-0.07000
041225_03.58.27.265,0.24100,-0.79300,-0.47000,62.44000,-34.59700,94.34200,-0.22500,0.30200,-0.06500,82.88000,-0.20000
041225_03.58.27.277,0.19600,-0.82500,-0.51200,67.60300,-40.33800,92.19000,-0.22500,0.30200,-0.06500,83.26000,0.38000
041225_03.58.27.289,0.24600,-0.84300,-0.42400,68.18000,-42.17500,90.40500,-0.22000,0.31300,-0.06500,83.63000,0.37000
041225_03.58.27.301,0.31200,-0.91600,-0.34100,67.21700,-52.85000,82.47800,-0.21100,0.32500,-0.06900,82.85000,-0.78000
041225_03.58.27.312,0.22900,-0.95800,-0.35600,68.21500,-67.62000,71.54000,-0.19800,0.33100,-0.07200,83.29000,0.44000
041225_03.58.27.324,0.22800,-0.98100,-0.41400,68.56500,-79.87000,59.41200,-0.18500,0.34200,-0.07000,83.64000,0.35000
041225_03.58.27.336,0.21500,-0.97300,-0.60500,69.23000,-85.90800,43.12000,-0.18500,0.34200,-0.07000,83.70000,0.06000
041225_03.58.27.347,0.42800,-0.75800,-0.69600,62.73700,-75.74000,0.07000,-0.16800,0.35000,-0.08300,83.48000,-0.22000
041225_03.58.27.359,0.54600,-0.71500,-0.42800,50.13800,-67.98800,-92.20700,-0.14800,0.36100,-0.08600,83.21000,-0.27000
041225_03.58.27.371,0.12800,-1.07500,-0.48900,44.48500,-95.51500,-46.51500,-0.13700,0.37800,-0.09500,83.36000,0.15000
041225_03.58.27.382,-0.05600,-1.04900,-0.77600,59.86800,-90.61500,-10.88500,-0.11600,0.38500,-0.10000,82.88000,-0.48000
041225_03.58.27.394,0.06100,-0.93800,-0.88700,69.37000,-63.47200,4.07700,-0.11600,0.38500,-0.10000,83.25000,0.37000
041225_03.58.27.405,0.04200,-0.84800,-0.85000,68.04000,-27.59700,13.79000,-0.10600,0.39800,-0.10600,83.63000,0.38000
041225_03.58.27.417,-0.03600,-0.91700,-0.62900,62.19500,-1.94200,24.85000,-0.10600,0.40200,-0.11100,83.05000,-0.58000
041225_03.58.27.429,-0.00400,-0.91100,-0.35300,55.54500,6.26500,31.44800,-0.09800,0.40700,-0.11200,83.11000,0.06000
041225_03.58.27.441,0.00800,-0.88300,-0.24100,50.12000,-0.05300,37.31000,-0.09700,0.41000,-0.11600,83.33000,0.22000
041225_03.58.27.452,-0.04100,-0.90100,-0.22000,45.25500,-17.36000,40.26800,-0.09700,0.41000,-0.11600,83.50000,0.17000
041225_03.58.27.464,-0.11300,-0.95700,-0.23100,39.42800,-39.13000,39.28700,-0.08900,0.40600,-0.11400,82.98000,-0.52000
041225_03.58.27.475,-0.19800,-0.96100,-0.22000,29.71500,-58.85300,33.44300,-0.07700,0.40600,-0.12300,83.11000,0.13000
041225_03.58.27.487,-0.38600,-1.00400,-0.14300,17.16700,-117.23200,-12.44300,-0.05700,0.40500,-0.12900,83.45000,0.34000
041225_03.58.27.498,-0.45200,-1.18600,-0.11200,28.89200,-164.88500,-49.24500,-0.03000,0.40500,-0.15800,83.29000,-0.16000
041225_03.58.27.510,0.38300,-1.31900,-0.01700,48.51000,-201.28500,-71.52200,-0.03000,0.40500,-0.15800,83.07000,-0.22000
041225_03.58.27.521,-0.10800,-1.38800,0.22000,54.72200,-236.12800,-87.81500,0.00400,0.41600,-0.18000,83.49000,0.42000
041225_03.58.27.533,0.32300,-1.06900,-0.49100,59.74500,-260.19000,-132.17800,0.03800,0.43200,-0.22400,83.35000,-0.14000
041225_03.58.27.544,0.34800,-0.83500,-0.79200,63.75200,-222.49500,-151.04200,0.06400,0.45000,-0.25600,82.69000,-0.66000
041225_03.58.27.556,0.63800,-0.60100,-0.96800,39.97000,-154.21000,-146.02000,0.07600,0.47100,-0.27400,84.35000,1.66000
041225_03.58.27.568,0.60500,-0.54000,-0.96600,18.02500,-95.90000,-98.47300,0.07600,0.47100,-0.27400,83.37000,-0.98000
041225_03.58.27.579,0.25900,-0.64300,-0.86300,9.92200,-59.22000,-31.43000,0.07900,0.47900,-0.28400,83.25000,-0.12000
041225_03.58.27.591,-0.07700,-0.86600,-0.64200,5.91500,-41.44000,23.92300,0.09200,0.47300,-0.29600,83.52000,0.27000
041225_03.58.27.603,-0.18200,-1.16900,-0.39000,-0.80500,-35.94500,43.34700,0.09600,0.45900,-0.29900,82.97000,-0.55000
041225_03.58.27.614,-0.09300,-1.35000,-0.32000,10.55200,-40.68800,0.66500,0.10100,0.45500,-0.31100,83.31000,0.34000
041225_03.58.27.626,-0.07200,-0.98100,-0.36200,11.27000,5.16200,5.91500,0.10100,0.45500,-0.31100,82.72000,-0.59000
041225_03.58.27.638,0.02900,-0.94600,-0.34500,18.30500,-14.49000,-4.35800,0.10400,0.45200,-0.31200,83.49000,0.77000
041225_03.58.27.650,0.13800,-0.95400,-0.37100,40.14500,-41.02000,-22.05000,0.10600,0.45500,-0.31000,83.52000,0.03000
041225_03.58.27.661,0.19400,-0.93800,-0.16000,47.65300,-46.44500,-25.49700,0.10700,0.45500,-0.32900,83.16000,-0.36000
041225_03.58.27.673,0.06600,-1.04400,0.06400,37.87000,-55.09000,-27.66700,0.11300,0.46000,-0.33600,83.35000,0.19000
041225_03.58.27.685,-0.05500,-1.09500,-0.04400,18.09500,-66.43000,-39.07700,0.11300,0.46000,-0.33600,82.83000,-0.52000
041225_03.58.27.696,-0.01000,-1.04200,-0.28200,12.70500,-74.04300,-53.90000,0.12400,0.45900,-0.35300,83.11000,0.28000
041225_03.58.27.708,0.06900,-0.99300,-0.56900,19.04000,-77.50700,-69.54500,0.12700,0.46700,-0.36600,83.26000,0.15000
041225_03.58.27.720,0.36800,-0.94000,-0.54900,27.54500,-66.37800,-79.73000,0.13000,0.48100,-0.37200,84.02000,0.76000
041225_03.58.27.732,0.13800,-0.93600,-0.55400,28.01700,-49.26300,-76.24700,0.12800,0.49400,-0.37700,83.12000,-0.90000
041225_03.58.27.743,-0.04800,-1.10600,-0.66900,40.95000,-17.11500,-90.91200,0.12800,0.49400,-0.37700,83.19000,0.07000
041225_03.58.27.755,0.00900,-1.13500,-0.36000,44.36200,-7.92800,-106.43500,0.12700,0.51100,-0.38100,83.21000,0.02000
041225_03.58.27.767,0.06800,-1.17300,-0.31400,44.81800,-8.59200,-124.28500,0.12100,0.53300,-0.37900,82.50000,-0.71000
041225_03.58.27.778,0.09300,-1.16500,-0.38700,49.71700,-11.62000,-139.24700,0.11300,0.55500,-0.38400,83.33000,0.83000
041225_03.58.27.790,0.24000,-1.05200,-0.35100,58.76500,-12.54700,-153.65000,0.10200,0.58300,-0.38900,83.01000,-0.32000
041225_03.58.27.801,0.43900,-0.89000,-0.26900,64.48800,-12.89800,-160.86000,0.10200,0.58300,-0.38900,82.93000,-0.08000
041225_03.58.27.813,0.54600,-0.69500,-0.19600,70.56000,-15.68000,-155.27700,0.09200,0.61900,-0.38600,83.33000,0.40000
041225_03.58.27.824,0.62000,-0.66500,-0.11400,73.32500,-20.12500,-141.76800,0.07400,0.63700,-0.40500,82.39000,-0.94000
041225_03.58.27.836,0.61200,-0.61800,-0.19300,72.90500,-24.92000,-131.25000,0.06200,0.66300,-0.41000,83.46000,1.07000
041225_03.58.27.848,0.58400,-0.53100,-0.21000,70.14000,-23.04800,-123.81300,0.04600,0.68800,-0.41100,82.94000,-0.52000
041225_03.58.27.859,0.58500,-0.53900,-0.10100,65.71300,-17.78000,-118.82500,0.04600,0.68800,-0.41100,83.80000,0.86000
041225_03.58.27.871,0.45500,-0.68200,0.00700,57.69800,-23.85300,-145.12800,0.02800,0.70700,-0.42700,83.29000,-0.51000
041225_03.58.27.883,0.57000,-0.80100,0.07700,52.60500,-30.22200,-170.38000,0.00900,0.73300,-0.43900,83.17000,-0.12000
041225_03.58.27.894,0.81300,-0.50000,-0.13300,52.34200,-30.87000,-179.95200,-0.02600,0.75400,-0.45200,83.73000,0.56000
041225_03.58.27.906,1.03700,-0.22700,-0.27000,54.19800,-16.59000,-162.33000,-0.05400,0.77500,-0.45500,83.21000,-0.52000
041225_03.58.27.917,1.02400,-0.16400,-0.18300,55.31800,4.30500,-123.95200,-0.05400,0.77500,-0.45500,83.18000,-0.03000
041225_03.58.27.929,0.88400,-0.33200,0.00500,51.90500,16.39800,-87.60500,-0.07000,0.78600,-0.46600,83.52000,0.34000
041225_03.58.27.940,0.90200,-0.41800,0.08300,50.99500,13.73800,-70.91000,-0.08900,0.79400,-0.47300,83.96000,0.44000
041225_03.58.27.952,0.76300,-0.57200,0.01300,58.97500,2.20500,-66.93800,-0.10200,0.80400,-0.48800,83.27000,-0.69000
041225_03.58.27.963,0.72500,-0.62500,-0.11000,67.44500,-3.83200,-73.27200,-0.11700,0.80900,-0.49800,83.10000,-0.17000
041225_03.58.27.975,0.75300,-0.41800,-0.21900,69.72000,-1.78500,-82.33800,-0.11700,0.80900,-0.49800,83.43000,0.33000
041225_03.58.27.987,0.92000,-0.18100,-0.14200,74.58500,5.05700,-73.95500,-0.14500,0.81400,-0.51900,82.87000,-0.56000
041225_03.58.27.998,0.96500,-0.24300,0.04600,71.08500,6.10800,-53.48000,-0.16100,0.82400,-0.52600,83.73000,0.86000
041225_03.58.28.010,0.99100,-0.17300,0.02600,77.87500,2.57200,-34.68500,-0.16800,0.82000,-0.53500,83.22000,-0.51000
041225_03.58.28.021,0.84900,-0.13900,0.14400,82.42500,-0.28000,-20.91300,-0.17900,0.81600,-0.54600,83.26000,0.04000
041225_03.58.28.033,0.94900,-0.17200,0.38000,60.86500,1.75000,-23.85300,-0.17900,0.81600,-0.54600,83.11000,-0.15000
041225_03.58.28.044,0.86100,-0.25700,-0.44500,59.74500,-5.56500,-24.78000,-0.18800,0.81700,-0.55600,83.28000,0.17000
041225_03.58.28.056,0.91400,-0.19300,-0.01800,99.13700,3.01000,-16.34500,-0.19600,0.81400,-0.57700,83.32000,0.04000
041225_03.58.28.067,0.96200,-0.31600,0.42300,108.79800,-0.91000,-10.09700,-0.20500,0.80700,-0.59100,83.12000,-0.20000
041225_03.58.28.079,0.96100,-0.33300,0.36400,99.62800,-16.69500,-4.98800,-0.20400,0.80300,-0.61200,83.58000,0.46000
041225_03.58.28.090,0.95500,-0.23100,0.33100,99.92500,-29.34700,1.15500,-0.20400,0.80300,-0.61200,83.52000,-0.06000
041225_03.58.28.102,0.91500,-0.22500,0.26800,100.92300,-32.06000,2.53700,-0.20800,0.79300,-0.62200,83.41000,-0.11000
041225_03.58.28.113,0.87800,-0.23900,0.27600,100.83500,-35.31500,-5.49500,-0.21300,0.78200,-0.64100,83.49000,0.08000
041225_03.58.28.125,0.90100,-0.26600,0.09800,103.37200,-39.56800,-8.33000,-0.22000,0.77600,-0.65500,82.79000,-0.70000
041225_03.58.28.136,1.01400,-0.07700,-0.18100,121.45000,-25.98700,-1.99500,-0.22300,0.76300,-0.68100,83.52000,0.73000
041225_03.58.28.148,0.96100,-0.06000,0.18000,141.17300,-1.36500,6.59700,-0.22300,0.76300,-0.68100,83.20000,-0.32000
041225_03.58.28.159,0.99200,-0.05200,0.45400,148.92500,3.67500,4.09500,-0.22200,0.74700,-0.69800,83.38000,0.18000
041225_03.58.28.171,0.99800,-0.01200,0.36100,156.46700,-0.75200,0.49000,-0.22000,0.72600,-0.71800,83.10000,-0.28000
041225_03.58.28.182,0.92700,-0.06100,0.36800,164.85000,0.94500,-5.51200,-0.22100,0.70500,-0.74200,83.14000,0.04000
041225_03.58.28.194,0.98300,-0.14200,0.39800,168.33300,1.71500,-14.66500,-0.22500,0.68300,-0.76200,83.71000,0.57000
041225_03.58.28.205,1.00700,-0.32500,0.40800,162.47000,7.42000,-21.47200,-0.22500,0.68300,-0.76200,82.99000,-0.72000
041225_03.58.28.217,1.00800,-0.46100,0.48600,144.83000,16.87000,-30.45000,-0.22800,0.66400,-0.77700,83.38000,0.39000
041225_03.58.28.229,1.04200,-0.38900,0.50000,125.23000,19.46000,-38.53500,-0.22800,0.64500,-0.78700,83.54000,0.16000
041225_03.58.28.240,1.03500,-0.21100,0.40400,107.85300,13.05500,-36.38200,-0.23100,0.62600,-0.80000,83.52000,-0.02000
041225_03.58.28.252,0.96400,-0.05900,0.34100,111.65000,5.42500,-30.78200,-0.22600,0.60600,-0.81000,83.44000,-0.08000
041225_03.58.28.263,0.93000,-0.00200,0.23700,116.41000,-3.64000,-23.01300,-0.22600,0.60600,-0.81000,83.48000,0.04000
041225_03.58.28.275,0.98000,-0.13900,0.13400,126.45500,-7.52500,-16.74700,-0.22800,0.58600,-0.81800,82.69000,-0.79000
041225_03.58.28.286,0.06000,-0.37900,0.27100,136.85000,10.99000,-23.08300,-0.22900,0.56400,-0.82300,82.99000,0.30000
041225_03.58.28.298,0.12100,-0.09300,0.37500,134.40000,28.70000,-40.21500,-0.23100,0.54200,-0.83000,83.28000,0.29000
041225_03.58.28.309,0.62200,0.14200,0.39300,130.90000,57.73300,-36.75000,-0.22200,0.51200,-0.83700,83.46000,0.18000
041225_03.58.28.321,0.81300,0.02000,0.38400,139.72000,64.96000,-14.22700,-0.22200,0.51200,-0.83700,83.30000,-0.16000
041225_03.58.28.332,0.97000,-0.01100,0.26200,155.17300,53.93500,5.46000,-0.21100,0.47800,-0.84300,82.74000,-0.56000
041225_03.58.28.344,1.23300,-0.02600,0.32000,168.07000,36.47000,17.48300,-0.20400,0.43900,-0.84200,83.73000,0.99000
041225_03.58.28.355,1.08800,-0.23100,0.34600,173.93200,10.13200,22.13800,-0.19800,0.40400,-0.84000,83.77000,0.04000
041225_03.58.28.367,0.87700,-0.26900,0.38800,151.63700,-5.19800,8.47000,-0.19500,0.37200,-0.83900,83.17000,-0.60000
041225_03.58.28.378,0.84100,-0.18200,0.42000,137.95200,-1.29500,-0.03500,-0.19500,0.37200,-0.83600,83.22000,0.05000
041225_03.58.28.390,0.86600,-0.11700,0.39500,125.40500,3.92000,-2.03000,-0.20000,0.34200,-0.83600,83.32000,0.10000
041225_03.58.28.401,0.87300,-0.09700,0.34800,113.48800,6.79000,1.03300,-0.20100,0.31300,-0.83600,83.36000,0.04000
041225_03.58.28.413,0.91900,-0.04500,0.32100,102.25300,8.12000,4.23500,-0.20100,0.29000,-0.83200,83.68000,0.32000
041225_03.58.28.424,1.06900,0.01400,0.32000,91.61300,7.50800,7.98000,-0.20700,0.27100,-0.82200,84.06000,0.38000
041225_03.58.28.435,1.22400,0.02700,0.32900,83.23000,-0.08700,12.37300,-0.20700,0.27100,-0.81600,83.59000,-0.47000
041225_03.58.28.447,1.26000,0.04700,0.27100,75.95000,-14.24500,16.25700,-0.21200,0.25400,-0.81600,82.97000,-0.62000
041225_03.58.28.458,1.09900,0.07700,0.19200,72.41500,-27.37000,17.22000,-0.22100,0.23800,-0.81700,83.11000,0.14000
041225_03.58.28.470,0.92100,0.19600,0.18200,69.84200,-28.85800,13.26500,-0.22600,0.22700,-0.80900,83.43000,0.32000
041225_03.58.28.481,0.90000,0.21000,0.21000,65.78300,-17.69200,8.96000,-0.23300,0.21400,-0.80500,83.14000,-0.29000
041225_03.58.28.493,0.94900,0.18200,0.24100,53.02500,-3.25500,6.87800,-0.23300,0.21400,-0.80500,83.61000,0.47000
041225_03.58.28.504,1.05400,0.21400,0.32500,50.24300,-7.33200,9.45000,-0.23600,0.20700,-0.80500,83.53000,-0.08000
041225_03.58.28.516,1.05300,0.25600,0.34100,51.36200,-18.62000,15.41800,-0.24500,0.19300,-0.80200,82.77000,-0.76000
041225_03.58.28.527,1.04500,0.26200,0.26700,56.94500,-29.05000,25.86500,-0.24700,0.18500,-0.78700,82.85000,0.08000
041225_03.58.28.539,1.04600,0.23900,0.16200,65.66000,-28.08700,40.33800,-0.26300,0.17200,-0.78100,82.99000,0.14000
041225_03.58.28.550,1.09500,0.33000,0.19400,71.50500,-19.61800,54.12700,-0.26300,0.17200,-0.78700,83.09000,0.10000
041225_03.58.28.562,1.20300,0.41400,0.22100,33.37300,8.78500,52.46500,-0.26900,0.15900,-0.78700,83.58000,0.49000
041225_03.58.28.573,1.24100,0.17100,0.03300,-15.59200,37.01300,34.07200,-0.26900,0.16500,-0.77900,83.23000,-0.35000
041225_03.58.28.585,1.07200,0.13000,0.11000,-18.60300,39.81300,27.28200,-0.26500,0.16800,-0.78400,83.33000,0.10000
041225_03.58.28.596,0.95300,0.06300,0.16300,-23.83500,40.32000,17.20200,-0.26300,0.17200,-0.78500,83.44000,0.11000
041225_03.58.28.608,0.87400,-0.02100,0.16800,-30.81800,43.69700,0.38500,-0.26300,0.17200,-0.79500,83.46000,0.02000
041225_03.58.28.619,1.17300,0.16300,0.39200,-28.22800,27.66700,-17.53500,-0.25400,0.18400,-0.79500,83.09000,-0.37000
041225_03.58.28.631,0.84800,0.09200,0.18300,-16.81700,25.32300,-20.89500,-0.25000,0.18800,-0.79500,83.40000,0.31000
041225_03.58.28.642,0.92100,0.10300,0.26400,-17.67500,27.38800,-23.80000,-0.24200,0.18800,-0.79600,83.15000,-0.25000
041225_03.58.28.654,0.92800,0.14400,0.32500,-15.55700,19.16300,-19.54800,-0.23400,0.18900,-0.80500,83.68000,0.53000
041225_03.58.28.665,0.78500,0.10800,0.22600,-5.00500,9.48500,-16.24000,-0.23400,0.18900,-0.80200,83.68000,0.00000
041225_03.58.28.677,0.79800,0.11400,0.18800,9.92200,10.69300,-23.97500,-0.23500,0.19400,-0.80200,83.77000,0.09000
041225_03.58.28.688,0.71600,-0.01000,0.13000,23.08300,11.74300,-41.33500,-0.22400,0.19000,-0.80100,83.46000,-0.31000
041225_03.58.28.700,-0.16700,-0.44200,0.51000,17.55200,43.96000,-61.30300,-0.21400,0.18800,-0.79800,81.93000,-1.53000
041225_03.58.28.711,0.77000,0.15300,0.71600,1.31200,95.86500,-70.75300,-0.19800,0.19100,-0.79100,82.96000,1.03000
041225_03.58.28.723,0.82100,0.45200,0.48600,10.71000,92.08500,-61.46000,-0.19800,0.18200,-0.78600,83.15000,0.19000
041225_03.58.28.734,0.80000,0.38300,0.53700,27.12500,89.42500,-31.90300,-0.17500,0.18200,-0.78600,83.11000,-0.04000
041225_03.58.28.746,0.74200,0.24000,0.43900,40.32000,79.38000,-21.64800,-0.15900,0.17000,-0.77600,83.48000,0.37000
041225_03.58.28.757,0.94700,0.05200,0.49700,46.30500,67.77800,-18.30500,-0.14800,0.16700,-0.76900,83.25000,-0.23000
041225_03.58.28.769,0.96700,0.09700,0.59000,52.62300,51.90500,-11.97000,-0.13600,0.15700,-0.76700,83.25000,0.00000
041225_03.58.28.780,0.87100,0.28600,0.62500,41.38800,42.70000,-9.92200,-0.13600,0.15600,-0.76100,82.98000,-0.27000
041225_03.58.28.792,0.74100,0.43000,0.58900,25.41000,44.53700,-14.96200,-0.13300,0.15600,-0.76100,82.83000,-0.15000
041225_03.58.28.803,0.72300,0.40400,0.57500,16.92300,50.64500,-16.92300,-0.12800,0.14700,-0.74800,83.29000,0.46000
041225_03.58.28.815,0.75900,0.37000,0.54700,11.39200,55.37000,-16.39800,-0.11600,0.14400,-0.74200,82.99000,-0.30000
041225_03.58.28.826,0.62300,0.39500,0.55100,7.73500,58.48500,-17.34300,-0.10800,0.14200,-0.74600,83.93000,0.94000
041225_03.58.28.838,0.69500,0.48000,0.56100,6.40500,61.93200,-12.58300,-0.10800,0.13800,-0.73800,83.42000,-0.51000
041225_03.58.28.849,0.63000,0.53800,0.49800,7.49000,70.45500,-7.70000,-0.09900,0.13800,-0.73800,82.77000,-0.65000
041225_03.58.28.861,0.54900,0.54800,0.51100,7.96300,93.04800,-5.30300,-0.09100,0.13800,-0.73200,83.55000,0.78000
041225_03.58.28.872,0.55500,0.55200,0.63000,-1.69700,100.18800,-1.61000,-0.07800,0.13700,-0.72700,83.15000,-0.40000
041225_03.58.28.884,0.71500,0.31700,0.69100,-7.84000,99.43500,-0.19200,-0.06700,0.13000,-0.72200,83.02000,-0.13000
041225_03.58.28.895,0.56000,0.36900,0.60700,-17.41300,102.18300,3.37800,-0.06700,0.13100,-0.71100,82.61000,-0.41000
041225_03.58.28.907,0.27700,0.58700,0.32400,-16.41500,127.20800,14.19300,-0.05700,0.13100,-0.71100,83.35000,0.74000
041225_03.58.28.917,0.30800,0.34600,0.54900,-6.19500,170.78300,34.94700,-0.04500,0.12500,-0.69300,82.97000,-0.38000
041225_03.58.28.929,0.35600,0.08700,0.62800,-0.42000,201.68700,50.27800,-0.02500,0.11300,-0.66200,83.12000,0.15000
041225_03.58.28.941,0.35000,-0.04200,1.02400,-9.59000,224.92800,45.93800,-0.01300,0.09900,-0.64400,83.80000,0.68000
041225_03.58.28.952,1.13500,0.24000,1.98500,-18.91700,195.38700,34.79000,-0.01300,0.09500,-0.64100,83.32000,-0.48000
041225_03.58.28.964,0.36400,0.27800,1.05200,-22.05000,135.36300,47.39000,-0.00800,0.09500,-0.64100,83.26000,-0.06000
041225_03.58.28.975,0.34300,0.29300,1.16300,-12.14500,131.61800,46.13000,-0.00100,0.09000,-0.61800,83.58000,0.32000
041225_03.58.28.986,0.32900,0.30500,1.16100,3.81500,109.79500,49.82200,0.00000,0.08500,-0.60200,82.67000,-0.91000
041225_03.58.28.998,0.17000,0.19500,1.08200,3.76300,109.88200,48.00200,-0.00100,0.07400,-0.59200,83.31000,0.64000
041225_03.58.29.009,0.10000,0.18700,1.01100,3.13200,117.42500,41.35300,-0.00100,0.06400,-0.57400,82.85000,-0.46000
041225_03.58.29.021,-0.04800,0.14900,1.06300,1.78500,139.30000,34.87700,0.00200,0.06400,-0.57400,83.04000,0.19000
041225_03.58.29.032,-0.15800,0.14300,1.10800,0.22800,167.38700,31.23700,0.00900,0.05900,-0.56300,83.62000,0.58000
041225_03.58.29.044,-0.24900,0.20800,1.15500,3.02700,190.82000,29.62800,0.01100,0.05500,-0.53400,83.06000,-0.56000
041225_03.58.29.055,-0.11400,-0.11600,1.15800,4.56800,203.92800,26.79200,0.01600,0.05300,-0.51600,83.51000,0.45000
041225_03.58.29.067,-0.06300,-0.02300,0.96900,-6.52800,211.41700,-0.21000,0.01600,0.05700,-0.49100,83.04000,-0.47000
041225_03.58.29.078,-0.05400,0.46800,1.13800,-10.95500,220.11500,-27.72000,0.02300,0.05700,-0.49100,83.35000,0.31000
041225_03.58.29.090,-0.30900,0.51200,1.05900,-4.88300,217.28000,-32.14700,0.03300,0.06100,-0.46000,83.32000,-0.03000
041225_03.58.29.101,-0.45600,0.35100,1.01900,7.12200,216.21200,-36.38200,0.03800,0.06500,-0.43900,83.17000,-0.15000
041225_03.58.29.113,-0.49900,0.21800,1.01300,31.02800,211.82000,-56.99800,0.04300,0.07800,-0.40400,83.18000,0.01000
041225_03.58.29.124,-0.52700,0.20500,1.00200,36.45200,202.31800,-67.09500,0.04300,0.09000,-0.37700,83.23000,0.05000
041225_03.58.29.136,-0.52300,0.34100,0.96200,38.93800,193.41000,-70.26200,0.04700,0.09000,-0.37700,83.60000,0.37000
041225_03.58.29.147,-0.58600,0.42600,0.94100,40.23300,187.95000,-63.73500,0.04800,0.10600,-0.34200,83.58000,-0.02000
041225_03.58.29.159,-0.72600,0.33300,0.93900,38.23700,184.36300,-50.61000,0.04700,0.12000,-0.31500,82.62000,-0.96000
041225_03.58.29.170,-0.79200,0.25600,0.87400,29.82000,176.99500,-35.80500,0.03800,0.13200,-0.29300,83.24000,0.62000
041225_03.58.29.182,-0.81100,0.18500,0.78200,18.35800,168.89300,-23.53800,0.03800,0.13300,-0.27000,83.23000,-0.01000
041225_03.58.29.193,-0.79700,0.18800,0.74600,7.47200,164.76200,-16.15300,0.02900,0.13300,-0.27000,83.25000,0.02000
041225_03.58.29.205,-0.79500,0.24100,0.75600,-1.99500,164.15000,-11.53300,0.01800,0.14100,-0.24900,83.64000,0.39000
041225_03.58.29.216,-0.79300,0.25800,0.75400,-10.08000,165.14800,-9.59000,0.00300,0.14700,-0.23400,83.53000,-0.11000
041225_03.58.29.228,-0.87300,0.11800,0.87800,-13.44000,165.23500,-11.18200,-0.01500,0.15800,-0.21000,83.46000,-0.07000
041225_03.58.29.239,-1.12000,-0.20200,0.81300,24.27300,141.68000,-20.59700,-0.02800,0.16400,-0.19200,83.27000,-0.19000
041225_03.58.29.251,-0.80300,0.23400,0.50800,43.85500,133.14000,-20.05500,-0.02800,0.16400,-0.19200,83.86000,0.59000
041225_03.58.29.263,-0.71100,0.27600,0.47200,37.08300,123.46300,-14.35000,-0.04600,0.17600,-0.17600,83.16000,-0.70000
041225_03.58.29.274,-0.77300,0.26900,0.48700,14.80500,114.31000,-9.80000,-0.05700,0.18500,-0.15300,83.86000,0.70000
041225_03.58.29.286,-0.90300,0.29700,0.39900,-2.43300,109.81300,-9.66000,-0.07400,0.19300,-0.15300,83.02000,-0.84000
041225_03.58.29.298,-1.06800,0.27700,0.32000,-9.55500,115.22000,-13.28300,-0.08600,0.19800,-0.14600,83.52000,0.50000
041225_03.58.29.309,-1.10200,0.33300,0.26400,-14.54300,125.63200,-20.16000,-0.08600,0.19800,-0.14600,83.67000,0.15000
041225_03.58.29.321,-1.04300,0.36800,0.19600,-19.11000,139.33500,-28.77000,-0.10900,0.19700,-0.12500,83.45000,-0.22000
041225_03.58.29.332,-0.98800,0.27200,0.17600,-21.54200,153.12500,-37.85300,-0.12700,0.20100,-0.11900,83.88000,0.43000
041225_03.58.29.344,-0.97800,0.15700,0.18000,-21.94500,164.71000,-46.55000,-0.15600,0.21200,-0.10900,83.43000,-0.45000
041225_03.58.29.355,-1.08700,0.12800,0.11600,-24.99000,174.94700,-64.33000,-0.17900,0.21000,-0.10100,84.60000,1.17000
041225_03.58.29.367,-1.19000,0.08900,0.12400,-33.47800,198.74700,-73.95500,-0.17900,0.21000,-0.10100,82.78000,-1.82000
041225_03.58.29.378,-1.21800,0.08000,0.04500,-38.83300,210.07000,-84.78700,-0.21000,0.21300,-0.09700,82.09000,-0.69000
041225_03.58.29.390,-1.18100,0.09500,0.07900,-35.19300,217.31500,-90.56300,-0.24700,0.21600,-0.09000,82.62000,0.53000
041225_03.58.29.402,-1.10600,0.10100,0.01600,-21.91000,216.02000,-88.86500,-0.27800,0.21900,-0.08100,84.40000,1.78000
041225_03.58.29.413,-0.97200,0.16900,-0.06100,-9.22200,216.42300,-74.30500,-0.32000,0.22300,-0.08000,82.72000,-1.68000
041225_03.58.29.425,-1.03000,0.15700,-0.16800,-9.25700,222.91500,-48.35300,-0.32000,0.22300,-0.08000,83.60000,0.88000
041225_03.58.29.436,-1.13000,0.17300,-0.32700,-17.78000,238.05300,-18.79500,-0.36800,0.22400,-0.09300,83.77000,0.17000
041225_03.58.29.448,-1.21200,0.17100,-0.40900,-33.07500,264.25000,7.45500,-0.41700,0.21700,-0.11100,83.45000,-0.32000
041225_03.58.29.459,-0.93000,0.17600,-0.34600,-43.96000,300.75500,30.64200,-0.47300,0.21500,-0.14200,83.81000,0.36000
041225_03.58.29.471,-0.72300,0.17100,-0.20800,-43.71500,315.78800,45.08000,-0.53000,0.21500,-0.17000,83.95000,0.14000
041225_03.58.29.482,-0.52400,0.42100,-0.45300,-35.57700,254.22300,40.47800,-0.53000,0.21500,-0.17000,83.23000,-0.72000
041225_03.58.29.494,-0.42200,0.22000,-0.54800,-20.56200,220.37800,27.70200,-0.56700,0.22100,-0.20100,83.52000,0.29000
041225_03.58.29.505,-0.65800,0.11000,-0.67500,-26.82700,207.02500,13.52800,-0.59400,0.22300,-0.24100,83.24000,-0.28000
041225_03.58.29.517,-0.55500,0.18300,-0.66600,-25.88200,206.92000,5.37200,-0.61300,0.22100,-0.26800,82.99000,-0.25000
041225_03.58.29.529,-0.39400,0.21300,-0.58500,-17.09700,206.78000,7.26200,-0.63000,0.22200,-0.30100,83.90000,0.91000
041225_03.58.29.540,-0.34500,0.06000,-0.62600,-7.56000,204.92500,9.18800,-0.63000,0.22200,-0.30100,83.78000,-0.12000
041225_03.58.29.551,0.05100,-0.15200,-0.72000,-6.14200,203.40200,9.15300,-0.64100,0.22900,-0.32900,83.38000,-0.40000
041225_03.58.29.563,0.15500,-0.23800,-0.89700,-17.67500,183.78500,-4.37500,-0.64900,0.22800,-0.35300,83.47000,0.09000
