timestamp,ax,ay,az,gx,gy,gz,mx,my,mz,altitude,relative_altitude
041225_04.37.15.852,-0.07200,0.03400,1.00200,0.24500,-0.61300,5.26700,0.27400,0.71700,-1.33500,79.78000,0.00000
041225_04.37.15.863,-0.06900,0.03100,1.01100,0.22800,-0.61300,5.25000,0.27000,0.72200,-1.32700,79.82000,0.04000
041225_04.37.15.875,-0.05500,0.03000,1.01000,0.22800,-0.59500,5.28500,0.27000,0.72200,-1.32700,79.29000,-0.53000
041225_04.37.15.887,-0.06600,0.03200,0.99400,0.22800,-0.61300,5.30300,0.26700,0.72100,-1.32600,79.80000,0.51000
041225_04.37.15.898,-0.05100,0.03400,1.01000,0.24500,-0.61300,5.33800,0.26500,0.71800,-1.33500,79.05000,-0.75000
041225_04.37.15.910,-0.05600,0.03300,1.00500,0.22800,-0.59500,5.33800,0.26300,0.71800,-1.33000,79.53000,0.48000
041225_04.37.15.922,-0.05300,0.02500,1.01100,0.21000,-0.57700,5.35500,0.26300,0.71500,-1.32600,79.59000,0.06000
041225_04.37.15.933,-0.05100,0.02200,1.01600,0.24500,-0.50700,5.37200,0.26000,0.71500,-1.32600,79.32000,-0.27000
041225_04.37.15.945,-0.03800,0.03600,1.01000,0.21000,-0.54300,5.39000,0.26400,0.71400,-1.32700,79.21000,-0.11000
041225_04.37.15.956,-0.05600,0.02300,0.99700,0.19200,-0.50700,5.37200,0.26300,0.71400,-1.33300,78.93000,-0.28000
041225_04.37.15.968,-0.04100,0.03000,1.00900,0.24500,-0.57700,5.40700,0.26700,0.71000,-1.33400,79.78000,0.85000
041225_04.37.15.980,-0.04300,0.03400,0.99800,0.29800,-0.49000,5.44300,0.26700,0.71000,-1.33400,79.35000,-0.43000
041225_04.37.15.991,-0.05300,0.01900,1.02800,0.33300,-0.50700,5.46000,0.26700,0.71600,-1.33300,79.45000,0.10000
041225_04.37.16.003,-0.05400,0.02500,1.02600,0.28000,-0.50700,5.46000,0.27500,0.71600,-1.33900,79.32000,-0.13000
041225_04.37.16.014,-0.05100,0.02100,1.02600,0.28000,-0.64700,5.44300,0.27800,0.71500,-1.33400,79.53000,0.21000
041225_04.37.16.026,-0.04600,0.03000,1.00800,0.24500,-0.54300,5.46000,0.28300,0.71300,-1.33900,79.66000,0.13000
041225_04.37.16.037,-0.06600,0.01700,1.02200,0.28000,-0.56000,5.47700,0.28300,0.71300,-1.33900,78.92000,-0.74000
041225_04.37.16.049,-0.04800,0.02400,1.03200,0.31500,-0.61300,5.47700,0.28300,0.71400,-1.34200,79.17000,0.25000
041225_04.37.16.060,-0.04500,0.02400,1.01800,0.29800,-0.57700,5.47700,0.29200,0.71600,-1.33300,78.95000,-0.22000
041225_04.37.16.072,-0.04500,0.02700,1.03200,0.29800,-0.59500,5.46000,0.28800,0.71300,-1.33800,79.50000,0.55000
041225_04.37.16.083,-0.04400,0.03700,1.00900,0.28000,-0.49000,5.46000,0.28800,0.71300,-1.33800,79.30000,-0.20000
041225_04.37.16.095,-0.03500,0.03600,1.01800,0.29800,-0.61300,5.47700,0.29500,0.70900,-1.33600,79.43000,0.13000
041225_04.37.16.106,-0.03500,0.03200,1.00900,0.28000,-0.52500,5.49500,0.28800,0.71100,-1.33900,79.51000,0.08000
041225_04.37.16.118,-0.03100,0.02400,1.01100,0.24500,-0.45500,5.53000,0.28900,0.71400,-1.33500,79.65000,0.14000
041225_04.37.16.129,-0.03100,0.03300,1.01800,0.29800,-0.35000,5.53000,0.28500,0.71000,-1.32700,79.69000,0.04000
041225_04.37.16.141,-0.02800,0.03500,1.00700,0.24500,-0.31500,5.53000,0.28500,0.71000,-1.32700,79.41000,-0.28000
041225_04.37.16.152,-0.01000,0.03900,0.99000,0.19200,-0.26200,5.53000,0.28600,0.71600,-1.32900,79.76000,0.35000
041225_04.37.16.164,-0.02000,0.03400,0.98200,0.17500,-0.14000,5.58200,0.28600,0.71200,-1.32400,79.12000,-0.64000
041225_04.37.16.175,-0.02800,0.03300,0.96500,0.26200,0.08700,5.67000,0.28400,0.71100,-1.33600,78.71000,-0.41000
041225_04.37.16.187,-0.01000,0.04300,0.97300,0.33300,0.22800,5.68700,0.27600,0.71400,-1.32600,79.76000,1.05000
041225_04.37.16.198,-0.00400,0.03100,0.98700,0.29800,0.35000,5.70500,0.27600,0.71400,-1.32600,79.44000,-0.32000
041225_04.37.16.210,-0.02100,0.03200,0.98200,0.29800,0.52500,5.74000,0.27600,0.71300,-1.32500,79.11000,-0.33000
041225_04.37.16.221,-0.02200,0.03400,0.97100,0.31500,0.56000,5.74000,0.28100,0.71300,-1.32900,78.65000,-0.46000
041225_04.37.16.233,-0.02500,0.03300,0.97900,0.35000,0.57700,5.75800,0.27900,0.70900,-1.33400,78.65000,0.00000
041225_04.37.16.244,-0.02200,0.03200,0.96200,0.40300,0.73500,5.77500,0.27900,0.70900,-1.33400,79.55000,0.90000
041225_04.37.16.256,-0.04400,0.03400,0.98600,0.42000,0.77000,5.79300,0.27700,0.70700,-1.32700,79.32000,-0.23000
041225_04.37.16.267,-0.02900,0.03200,0.98200,0.40300,0.77000,5.81000,0.28300,0.70600,-1.32600,79.17000,-0.15000
041225_04.37.16.279,-0.03800,0.03200,0.97400,0.40300,0.80500,5.82700,0.29000,0.70800,-1.32900,79.43000,0.26000
041225_04.37.16.290,-0.03100,0.03100,0.98900,0.45500,0.84000,5.86300,0.29200,0.71000,-1.32900,79.09000,-0.34000
041225_04.37.16.302,-0.03900,0.03100,0.97600,0.45500,0.92800,5.84500,0.29200,0.71000,-1.32900,79.47000,0.38000
041225_04.37.16.313,-0.04800,0.03700,0.99900,0.47200,0.92800,5.84500,0.29300,0.70700,-1.32700,79.88000,0.41000
041225_04.37.16.325,-0.04100,0.02500,0.99000,0.38500,0.99800,5.86300,0.29600,0.70800,-1.32400,79.17000,-0.71000
041225_04.37.16.336,-0.04600,0.02900,1.00000,0.45500,0.92800,5.84500,0.30300,0.70500,-1.32400,79.77000,0.60000
041225_04.37.16.348,-0.04100,0.03700,0.98900,0.42000,1.01500,5.86300,0.30300,0.70500,-1.32800,80.26000,0.49000
041225_04.37.16.359,-0.05100,0.03500,0.99800,0.42000,1.03300,5.88000,0.30100,0.70900,-1.32800,79.87000,-0.39000
041225_04.37.16.371,-0.06400,0.02800,1.00300,0.45500,1.03300,5.89800,0.30200,0.70400,-1.33000,79.34000,-0.53000
041225_04.37.16.383,-0.05600,0.03600,1.00200,0.45500,0.99800,5.89800,0.30000,0.70400,-1.32600,79.02000,-0.32000
041225_04.37.16.394,-0.06400,0.03600,1.00100,0.47200,1.05000,5.88000,0.30100,0.70600,-1.32400,79.74000,0.72000
041225_04.37.16.406,-0.08400,0.02900,1.01700,0.38500,1.01500,5.89800,0.30100,0.70600,-1.32400,79.94000,0.20000
041225_04.37.16.418,-0.07600,0.03100,1.00700,0.43700,0.92800,5.86300,0.30400,0.71100,-1.32500,79.71000,-0.23000
041225_04.37.16.430,-0.07100,0.03700,1.01600,0.43700,0.85800,5.86300,0.30300,0.71100,-1.32100,79.84000,0.13000
041225_04.37.16.442,-0.08100,0.03600,1.00900,0.35000,0.91000,5.84500,0.30000,0.70800,-1.32400,79.20000,-0.64000
041225_04.37.16.453,-0.09400,0.03900,1.02500,0.29800,0.89200,5.84500,0.29800,0.70600,-1.31800,78.92000,-0.28000
041225_04.37.16.465,-0.11400,0.04400,1.00600,0.26200,0.77000,5.79300,0.29800,0.70600,-1.31800,78.61000,-0.31000
041225_04.37.16.477,-0.09000,0.03500,1.00500,0.29800,0.50700,5.79300,0.29700,0.70700,-1.32600,79.37000,0.76000
041225_04.37.16.488,-0.07200,0.04000,0.99600,0.29800,0.54300,5.79300,0.29100,0.70700,-1.32300,79.35000,-0.02000
041225_04.37.16.500,-0.10400,0.02700,1.00800,0.26200,0.54300,5.77500,0.28800,0.70400,-1.31800,79.80000,0.45000
041225_04.37.16.512,-0.10300,0.03200,1.01100,0.26200,0.29800,5.79300,0.28800,0.70400,-1.31800,79.80000,0.00000
041225_04.37.16.523,-0.12000,0.03900,0.97600,0.21000,0.07000,5.77500,0.28500,0.70400,-1.31900,79.49000,-0.31000
041225_04.37.16.535,-0.08800,0.04200,0.97300,0.24500,0.10500,5.77500,0.29300,0.70300,-1.32400,79.47000,-0.02000
041225_04.37.16.546,-0.09600,0.03500,0.99400,0.21000,0.15700,5.77500,0.29000,0.70300,-1.32200,79.20000,-0.27000
041225_04.37.16.558,-0.10600,0.02600,1.00700,0.28000,0.14000,5.81000,0.29600,0.70400,-1.31700,78.96000,-0.24000
041225_04.37.16.570,-0.10200,0.03000,1.02000,0.28000,-0.05300,5.81000,0.29600,0.70400,-1.31700,79.73000,0.77000
041225_04.37.16.581,-0.10100,0.02500,1.00300,0.24500,-0.14000,5.79300,0.30000,0.70000,-1.31900,79.41000,-0.32000
041225_04.37.16.593,-0.09400,0.02800,0.98900,0.21000,-0.14000,5.79300,0.30500,0.70400,-1.32600,79.31000,-0.10000
041225_04.37.16.605,-0.09100,0.02400,0.99900,0.21000,-0.17500,5.82700,0.30400,0.69800,-1.32400,79.00000,-0.31000
041225_04.37.16.617,-0.09200,0.01700,1.00900,0.28000,-0.31500,5.86300,0.30400,0.69700,-1.32100,79.75000,0.75000
041225_04.37.16.629,-0.09400,0.01800,1.00700,0.35000,-0.36800,5.88000,0.30900,0.69700,-1.32100,79.10000,-0.65000
041225_04.37.16.640,-0.08600,0.02000,1.02300,0.33300,-0.43700,5.89800,0.30700,0.69800,-1.32400,79.89000,0.79000
041225_04.37.16.652,-0.08800,0.01600,1.01000,0.26200,-0.50700,5.93200,0.30900,0.70100,-1.32700,79.02000,-0.87000
041225_04.37.16.663,-0.09100,0.02100,1.02100,0.28000,-0.66500,5.96800,0.30900,0.69900,-1.33200,78.91000,-0.11000
041225_04.37.16.675,-0.07600,0.02800,1.00100,0.33300,-0.77000,6.00300,0.30900,0.69900,-1.33200,79.30000,0.39000
041225_04.37.16.687,-0.07900,0.02900,1.00500,0.33300,-0.84000,6.09000,0.31000,0.69500,-1.33800,79.57000,0.27000
041225_04.37.16.698,-0.07500,0.02700,1.02700,0.36800,-0.98000,6.12500,0.30800,0.69700,-1.32400,79.17000,-0.40000
041225_04.37.16.710,-0.07400,0.03000,1.01000,0.42000,-1.08500,6.16000,0.30800,0.69400,-1.32700,79.62000,0.45000
041225_04.37.16.722,-0.06400,0.04100,1.00000,0.40300,-1.20700,6.17800,0.31200,0.69500,-1.32500,79.32000,-0.30000
041225_04.37.16.734,-0.06500,0.04400,1.00000,0.38500,-1.15500,6.19500,0.31200,0.69500,-1.32500,80.01000,0.69000
041225_04.37.16.746,-0.06700,0.03800,0.98900,0.40300,-1.08500,6.21300,0.30500,0.69600,-1.32500,79.03000,-0.98000
041225_04.37.16.757,-0.05800,0.03800,1.01200,0.45500,-1.12000,6.26500,0.30300,0.69100,-1.32300,79.25000,0.22000
041225_04.37.16.769,-0.05700,0.04300,1.00600,0.50700,-0.98000,6.30000,0.30000,0.69600,-1.32400,79.26000,0.01000
041225_04.37.16.781,-0.05300,0.04300,1.02200,0.43700,-1.01500,6.28200,0.30000,0.69600,-1.32400,79.22000,-0.04000
041225_04.37.16.793,-0.04800,0.04900,1.00000,0.33300,-0.89200,6.30000,0.30500,0.69100,-1.32800,79.33000,0.11000
041225_04.37.16.805,-0.04800,0.04100,0.99100,0.31500,-0.82200,6.30000,0.30200,0.69500,-1.32700,78.85000,-0.48000
041225_04.37.16.816,-0.02000,0.03900,1.00800,0.38500,-0.73500,6.33500,0.30300,0.69500,-1.32900,79.77000,0.92000
041225_04.37.16.828,-0.03700,0.04500,1.00200,0.47200,-0.52500,6.37000,0.30200,0.69000,-1.32600,79.47000,-0.30000
041225_04.37.16.840,-0.03100,0.04400,1.02400,0.38500,-0.43700,6.35200,0.30200,0.69000,-1.32600,79.82000,0.35000
041225_04.37.16.851,-0.04200,0.04800,1.02200,0.33300,-0.36800,6.37000,0.31100,0.69400,-1.33500,78.59000,-1.23000
041225_04.37.16.863,-0.01300,0.05900,1.00700,0.24500,-0.22800,6.33500,0.31800,0.69400,-1.33800,79.29000,0.70000
041225_04.37.16.875,-0.02100,0.05900,0.99600,0.21000,0.00000,6.35200,0.31900,0.68700,-1.33300,79.28000,-0.01000
041225_04.37.16.886,-0.02400,0.05000,1.01400,0.21000,0.12300,6.37000,0.31500,0.68900,-1.33500,79.28000,0.00000
041225_04.37.16.898,-0.02000,0.05100,1.02600,0.21000,0.08700,6.35200,0.31500,0.68900,-1.33500,78.81000,-0.47000
041225_04.37.16.910,-0.02300,0.06100,0.99900,0.15700,0.22800,6.37000,0.32700,0.69200,-1.33700,78.86000,0.05000
041225_04.37.16.922,-0.02000,0.05500,1.00600,0.05300,0.24500,6.35200,0.32800,0.69000,-1.33600,78.78000,-0.08000
041225_04.37.16.933,-0.02400,0.05700,0.99400,0.05300,0.36800,6.33500,0.32400,0.69100,-1.33200,79.24000,0.46000
041225_04.37.16.945,-0.03300,0.05600,1.00200,0.12300,0.42000,6.35200,0.32400,0.69100,-1.33200,78.91000,-0.33000
041225_04.37.16.956,-0.02900,0.05900,1.00200,0.08700,0.47200,6.33500,0.32300,0.69000,-1.33300,79.14000,0.23000
041225_04.37.16.967,-0.02800,0.04800,1.00500,0.01800,0.50700,6.31800,0.32300,0.68600,-1.33900,79.28000,0.14000
041225_04.37.16.979,-0.04000,0.04900,1.01000,-0.01800,0.56000,6.30000,0.32000,0.69000,-1.33000,78.83000,-0.45000
041225_04.37.16.991,-0.03100,0.05300,1.00000,-0.05300,0.57700,6.28200,0.32300,0.68800,-1.34000,79.27000,0.44000
041225_04.37.17.002,-0.03100,0.05900,0.98600,-0.07000,0.70000,6.26500,0.32300,0.68800,-1.34000,79.39000,0.12000
041225_04.37.17.014,-0.04800,0.05500,0.99800,-0.05300,0.75200,6.28200,0.31800,0.68800,-1.34000,79.00000,-0.39000
041225_04.37.17.025,-0.02300,0.05400,0.98400,-0.03500,0.87500,6.33500,0.31600,0.68800,-1.33000,79.71000,0.71000
041225_04.37.17.037,-0.05600,0.05700,0.99200,-0.12300,0.94500,6.30000,0.32100,0.69100,-1.33300,79.35000,-0.36000
041225_04.37.17.048,-0.04400,0.05500,0.99000,-0.12300,1.03300,6.30000,0.32100,0.69100,-1.33300,79.28000,-0.07000
041225_04.37.17.060,-0.04300,0.05400,0.99100,-0.15700,1.12000,6.33500,0.31800,0.68700,-1.32600,80.03000,0.75000
041225_04.37.17.072,-0.04200,0.04900,0.98000,-0.12300,1.22500,6.35200,0.32000,0.69000,-1.33200,79.38000,-0.65000
041225_04.37.17.083,-0.06700,0.04500,1.01600,-0.08700,1.27800,6.37000,0.31400,0.69000,-1.32500,79.45000,0.07000
041225_04.37.17.095,-0.05100,0.03800,0.99500,-0.10500,1.29500,6.40500,0.32200,0.68900,-1.33200,79.34000,-0.11000
041225_04.37.17.106,-0.05100,0.04500,1.00900,-0.12300,1.33000,6.42300,0.32200,0.68900,-1.33200,79.87000,0.53000
041225_04.37.17.118,-0.05800,0.04400,1.00800,-0.15700,1.43500,6.42300,0.32500,0.68900,-1.33200,79.23000,-0.64000
041225_04.37.17.130,-0.06700,0.04000,0.99600,-0.17500,1.48700,6.44000,0.33100,0.68300,-1.33400,79.43000,0.20000
041225_04.37.17.141,-0.07900,0.04300,1.01500,-0.17500,1.50500,6.47500,0.32700,0.68800,-1.33100,78.97000,-0.46000
041225_04.37.17.153,-0.06500,0.04000,1.00000,-0.15700,1.48700,6.49200,0.33600,0.68500,-1.33300,78.80000,-0.17000
041225_04.37.17.165,-0.06600,0.04300,1.02500,-0.15700,1.41800,6.52800,0.33600,0.68500,-1.33300,79.01000,0.21000
041225_04.37.17.176,-0.07600,0.04300,1.01200,-0.21000,1.47000,6.52800,0.33700,0.68100,-1.33400,79.06000,0.05000
041225_04.37.17.188,-0.08100,0.04400,1.00300,-0.26200,1.34700,6.52800,0.34100,0.68300,-1.33400,79.60000,0.54000
041225_04.37.17.200,-0.09200,0.03900,1.01500,-0.21000,1.24200,6.56200,0.33900,0.68100,-1.32400,79.51000,-0.09000
041225_04.37.17.211,-0.08500,0.04400,1.00700,-0.17500,1.10200,6.56200,0.33900,0.68100,-1.32400,79.39000,-0.12000
041225_04.37.17.223,-0.11300,0.04000,0.99300,-0.19200,1.13800,6.58000,0.34700,0.68100,-1.32400,79.57000,0.18000
041225_04.37.17.235,-0.09100,0.03800,1.01800,-0.17500,0.94500,6.59700,0.34300,0.67700,-1.32200,79.36000,-0.21000
041225_04.37.17.246,-0.10600,0.04900,1.00100,-0.14000,0.96200,6.56200,0.34500,0.67700,-1.32400,79.47000,0.11000
041225_04.37.17.258,-0.11200,0.03600,1.00300,-0.17500,0.77000,6.54500,0.34000,0.67900,-1.32300,79.80000,0.33000
041225_04.37.17.269,-0.11600,0.03900,0.99700,-0.15700,0.71800,6.56200,0.34000,0.67900,-1.32300,79.39000,-0.41000
041225_04.37.17.281,-0.11600,0.03200,0.99600,-0.10500,0.70000,6.52800,0.33800,0.67800,-1.31900,79.54000,0.15000
041225_04.37.17.292,-0.11000,0.04500,1.00800,-0.07000,0.57700,6.51000,0.33900,0.67800,-1.32500,80.53000,0.99000
041225_04.37.17.304,-0.12700,0.03600,0.99900,-0.12300,0.56000,6.51000,0.34000,0.68200,-1.32900,79.50000,-1.03000
041225_04.37.17.315,-0.13100,0.03600,1.01100,-0.07000,0.40300,6.47500,0.34000,0.68200,-1.32400,79.58000,0.08000
041225_04.37.17.327,-0.12300,0.04600,1.00300,-0.03500,0.38500,6.44000,0.33400,0.67800,-1.32400,80.38000,0.80000
041225_04.37.17.338,-0.12100,0.04300,0.99900,-0.08700,0.28000,6.42300,0.33200,0.67500,-1.31900,79.83000,-0.55000
041225_04.37.17.350,-0.12700,0.04200,1.01100,-0.08700,0.15700,6.42300,0.33700,0.67800,-1.31600,79.72000,-0.11000
041225_04.37.17.362,-0.12500,0.04000,0.99700,-0.08700,-0.03500,6.40500,0.33700,0.67900,-1.32400,79.74000,0.02000
041225_04.37.17.374,-0.12200,0.04600,0.99900,-0.10500,-0.08700,6.40500,0.33700,0.67900,-1.32400,79.33000,-0.41000
041225_04.37.17.385,-0.11600,0.03600,0.99600,-0.15700,-0.15700,6.42300,0.33700,0.67800,-1.33200,79.61000,0.28000
041225_04.37.17.397,-0.10900,0.04400,1.00700,-0.10500,-0.24500,6.42300,0.34000,0.67300,-1.32700,79.16000,-0.45000
041225_04.37.17.408,-0.10900,0.05200,0.99000,-0.03500,-0.29800,6.42300,0.34300,0.67400,-1.32300,80.08000,0.92000
041225_04.37.17.420,-0.11100,0.05200,0.99700,-0.14000,-0.38500,6.44000,0.34600,0.67300,-1.32400,79.73000,-0.35000
041225_04.37.17.431,-0.09900,0.04300,1.00000,-0.19200,-0.43700,6.45700,0.34600,0.67300,-1.32400,80.07000,0.34000
041225_04.37.17.443,-0.09500,0.04600,0.98800,-0.14000,-0.56000,6.47500,0.34700,0.67400,-1.32900,79.92000,-0.15000
041225_04.37.17.455,-0.10200,0.04600,1.00400,-0.10500,-0.61300,6.49200,0.34300,0.67200,-1.32600,79.74000,-0.18000
041225_04.37.17.466,-0.08400,0.05300,0.97600,-0.15700,-0.61300,6.49200,0.34800,0.66900,-1.32700,79.55000,-0.19000
041225_04.37.17.478,-0.09700,0.04800,0.99200,-0.19200,-0.71800,6.54500,0.34800,0.66900,-1.32700,80.26000,0.71000
041225_04.37.17.490,-0.08200,0.04700,0.98600,-0.17500,-0.77000,6.58000,0.35300,0.66800,-1.32400,79.70000,-0.56000
041225_04.37.17.501,-0.08800,0.05700,0.98000,-0.17500,-0.82200,6.61500,0.35500,0.66800,-1.32900,79.57000,-0.13000
041225_04.37.17.513,-0.07600,0.05400,0.99000,-0.22800,-0.84000,6.65000,0.35600,0.66800,-1.33200,80.11000,0.54000
041225_04.37.17.525,-0.09000,0.05200,0.97300,-0.22800,-0.85800,6.68500,0.35200,0.66800,-1.32500,79.50000,-0.61000
041225_04.37.17.537,-0.07000,0.05100,0.99400,-0.21000,-0.87500,6.77300,0.35200,0.66800,-1.32500,79.60000,0.10000
041225_04.37.17.549,-0.08100,0.05000,0.99600,-0.22800,-0.96200,6.80700,0.35600,0.66400,-1.32500,79.95000,0.35000
041225_04.37.17.560,-0.07700,0.04800,0.98600,-0.26200,-0.85800,6.80700,0.35400,0.66900,-1.31800,79.39000,-0.56000
041225_04.37.17.572,-0.07400,0.05000,0.99100,-0.22800,-0.96200,6.82500,0.35500,0.66600,-1.32200,79.74000,0.35000
041225_04.37.17.584,-0.07200,0.05000,0.97900,-0.29800,-0.96200,6.84300,0.35500,0.66600,-1.31400,79.54000,-0.20000
041225_04.37.17.595,-0.07600,0.04500,0.99500,-0.24500,-0.94500,6.87800,0.34600,0.66600,-1.31400,79.65000,0.11000
041225_04.37.17.607,-0.07100,0.05200,0.99100,-0.26200,-0.96200,6.89500,0.34600,0.66800,-1.31700,79.44000,-0.21000
041225_04.37.17.618,-0.07600,0.05400,0.98900,-0.28000,-0.94500,6.93000,0.35000,0.66900,-1.32000,80.06000,0.62000
041225_04.37.17.629,-0.06600,0.05400,0.98400,-0.29800,-0.92800,6.89500,0.34400,0.66500,-1.32400,79.27000,-0.79000
041225_04.37.17.640,-0.09100,0.04900,0.98400,-0.28000,-0.99800,6.91200,0.34400,0.66500,-1.32400,79.63000,0.36000
041225_04.37.17.652,-0.07700,0.04600,0.97800,-0.24500,-1.01500,6.89500,0.34400,0.66400,-1.32200,79.44000,-0.19000
041225_04.37.17.664,-0.06600,0.05100,0.99700,-0.14000,-1.01500,6.87800,0.34400,0.66100,-1.32000,79.65000,0.21000
041225_04.37.17.675,-0.08500,0.05500,1.01000,-0.22800,-0.92800,6.91200,0.34900,0.66300,-1.32100,79.92000,0.27000
041225_04.37.17.687,-0.08600,0.03700,1.01000,-0.33300,-0.99800,6.87800,0.36100,0.66200,-1.32000,79.97000,0.05000
041225_04.37.17.699,-0.07100,0.04300,0.99400,-0.22800,-0.94500,6.89500,0.36100,0.66200,-1.32000,78.79000,-1.18000
041225_04.37.17.710,-0.03200,0.05200,1.01600,-0.21000,-0.84000,6.87800,0.35500,0.66400,-1.32900,78.62000,-0.17000
041225_04.37.17.722,-0.06400,0.03900,1.02800,-0.17500,-0.66500,6.86000,0.35800,0.65900,-1.32300,79.79000,1.17000
041225_04.37.17.734,-0.06300,0.05100,1.03400,-0.19200,-0.59500,6.86000,0.36500,0.66400,-1.33100,79.18000,-0.61000
041225_04.37.17.745,-0.06000,0.04600,1.04200,-0.29800,-0.63000,6.86000,0.36500,0.66400,-1.33100,80.39000,1.21000
041225_04.37.17.757,-0.05100,0.03800,1.01100,-0.38500,-0.42000,6.84300,0.36700,0.66000,-1.32700,80.15000,-0.24000
041225_04.37.17.768,-0.04100,0.04100,1.03100,-0.35000,-0.35000,6.82500,0.36700,0.65700,-1.33100,79.78000,-0.37000
041225_04.37.17.780,-0.03000,0.04900,1.01800,-0.28000,-0.14000,6.84300,0.36800,0.66000,-1.32800,79.37000,-0.41000
041225_04.37.17.791,-0.04900,0.05600,1.04800,-0.35000,-0.01800,6.82500,0.36700,0.65600,-1.32500,80.00000,0.63000
041225_04.37.17.803,-0.05300,0.04900,1.02400,-0.45500,0.12300,6.80700,0.36700,0.65600,-1.32500,79.75000,-0.25000
041225_04.37.17.815,-0.04300,0.04800,1.02300,-0.43700,0.14000,6.82500,0.36900,0.65700,-1.32600,79.83000,0.08000
041225_04.37.17.826,-0.04600,0.04700,1.02300,-0.40300,0.22800,6.82500,0.37000,0.65600,-1.32300,79.24000,-0.59000
041225_04.37.17.838,-0.02400,0.05300,1.01200,-0.36800,0.36800,6.82500,0.36700,0.65400,-1.32300,79.68000,0.44000
041225_04.37.17.849,-0.04800,0.05000,1.02900,-0.43700,0.42000,6.84300,0.36500,0.65300,-1.32100,79.31000,-0.37000
041225_04.37.17.861,-0.05000,0.03500,1.01900,-0.47200,0.35000,6.84300,0.36500,0.65300,-1.32100,79.89000,0.58000
041225_04.37.17.873,-0.04700,0.04400,1.01400,-0.42000,0.42000,6.80700,0.36000,0.65800,-1.31900,79.47000,-0.42000
041225_04.37.17.884,-0.03500,0.05200,1.00400,-0.43700,0.42000,6.80700,0.36700,0.65700,-1.32000,80.00000,0.53000
041225_04.37.17.896,-0.06100,0.04800,1.02400,-0.42000,0.40300,6.84300,0.36200,0.65500,-1.32200,79.52000,-0.48000
041225_04.37.17.907,-0.04700,0.04200,1.00200,-0.42000,0.40300,6.84300,0.36200,0.65500,-1.32200,79.38000,-0.14000
041225_04.37.17.919,-0.06200,0.05100,1.00200,-0.38500,0.42000,6.82500,0.36300,0.65900,-1.32300,79.91000,0.53000
041225_04.37.17.930,-0.04900,0.04200,1.01300,-0.42000,0.42000,6.86000,0.35900,0.65800,-1.31900,79.70000,-0.21000
041225_04.37.17.941,-0.07500,0.04100,0.99800,-0.38500,0.45500,6.86000,0.36300,0.65400,-1.32100,79.56000,-0.14000
041225_04.37.17.953,-0.07000,0.04400,1.00900,-0.36800,0.43700,6.86000,0.36300,0.65500,-1.32500,79.43000,-0.13000
041225_04.37.17.965,-0.07000,0.04200,0.99800,-0.40300,0.42000,6.84300,0.36300,0.65500,-1.32500,79.07000,-0.36000
041225_04.37.17.976,-0.08600,0.03500,1.00700,-0.40300,0.43700,6.86000,0.37400,0.65500,-1.31700,78.80000,-0.27000
041225_04.37.17.988,-0.08400,0.02800,1.00900,-0.38500,0.50700,6.84300,0.37400,0.65500,-1.31600,78.81000,0.01000
041225_04.37.17.999,-0.08900,0.03700,1.00800,-0.35000,0.49000,6.80700,0.37900,0.65600,-1.32800,79.23000,0.42000
041225_04.37.18.011,-0.09400,0.03600,1.00600,-0.38500,0.54300,6.79000,0.37900,0.65600,-1.32800,79.41000,0.18000
041225_04.37.18.022,-0.09100,0.03000,1.01000,-0.40300,0.57700,6.79000,0.38000,0.65300,-1.32400,79.88000,0.47000
041225_04.37.18.034,-0.09500,0.03200,1.01000,-0.42000,0.57700,6.75500,0.38200,0.65000,-1.32400,79.62000,-0.26000
041225_04.37.18.045,-0.10200,0.03600,1.01000,-0.40300,0.57700,6.75500,0.38300,0.65300,-1.32200,79.30000,-0.32000
041225_04.37.18.057,-0.09100,0.03900,1.00100,-0.45500,0.64700,6.73800,0.38700,0.64900,-1.32700,79.77000,0.47000
041225_04.37.18.068,-0.08500,0.04100,1.01000,-0.45500,0.61300,6.70200,0.38700,0.64900,-1.32700,79.78000,0.01000
041225_04.37.18.080,-0.08700,0.03900,0.99200,-0.47200,0.66500,6.72000,0.39100,0.64700,-1.32200,79.41000,-0.37000
041225_04.37.18.091,-0.09200,0.03900,0.99000,-0.45500,0.70000,6.72000,0.39000,0.64600,-1.31500,79.26000,-0.15000
041225_04.37.18.103,-0.08100,0.04500,0.99000,-0.45500,0.75200,6.70200,0.39000,0.64700,-1.31600,78.92000,-0.34000
041225_04.37.18.114,-0.07900,0.04400,0.98100,-0.45500,0.75200,6.70200,0.39000,0.64900,-1.31800,79.12000,0.20000
041225_04.37.18.126,-0.09000,0.04100,0.99100,-0.47200,0.73500,6.70200,0.39000,0.64900,-1.31800,79.80000,0.68000
041225_04.37.18.138,-0.08600,0.03400,0.97500,-0.47200,0.75200,6.72000,0.39200,0.64900,-1.31800,79.20000,-0.60000
041225_04.37.18.149,-0.06800,0.03900,0.98200,-0.42000,0.71800,6.72000,0.39200,0.64200,-1.31600,79.24000,0.04000
041225_04.37.18.161,-0.08300,0.04100,0.99300,-0.43700,0.71800,6.73800,0.38700,0.64500,-1.32000,79.71000,0.47000
041225_04.37.18.172,-0.08200,0.03700,0.97100,-0.45500,0.68300,6.75500,0.38700,0.64500,-1.32000,79.34000,-0.37000
041225_04.37.18.184,-0.09500,0.04400,0.97800,-0.40300,0.54300,6.77300,0.38100,0.64600,-1.30700,79.51000,0.17000
041225_04.37.18.195,-0.08400,0.03400,0.98100,-0.40300,0.47200,6.79000,0.38600,0.64500,-1.31100,79.74000,0.23000
041225_04.37.18.207,-0.06300,0.03800,0.97600,-0.38500,0.50700,6.80700,0.38200,0.64400,-1.31600,79.37000,-0.37000
041225_04.37.18.218,-0.09400,0.04000,0.97100,-0.42000,0.49000,6.82500,0.38300,0.64600,-1.30400,79.23000,-0.14000
041225_04.37.18.230,-0.09700,0.04100,0.98100,-0.40300,0.40300,6.84300,0.38300,0.64600,-1.30400,79.72000,0.49000
041225_04.37.18.241,-0.09100,0.04300,0.97000,-0.35000,0.36800,6.84300,0.38300,0.64200,-1.31300,79.36000,-0.36000
041225_04.37.18.253,-0.09100,0.04000,0.96800,-0.33300,0.33300,6.82500,0.38800,0.64100,-1.31300,80.37000,1.01000
041225_04.37.18.264,-0.09300,0.03900,0.97900,-0.31500,0.45500,6.82500,0.39400,0.64000,-1.31200,79.47000,-0.90000
041225_04.37.18.276,-0.09700,0.03500,0.98300,-0.29800,0.43700,6.79000,0.39400,0.64000,-1.31100,79.39000,-0.08000
041225_04.37.18.287,-0.10600,0.03500,0.98100,-0.29800,0.42000,6.79000,0.39600,0.64000,-1.31100,79.25000,-0.14000
041225_04.37.18.299,-0.12200,0.02900,0.98000,-0.28000,0.35000,6.75500,0.39200,0.64000,-1.31700,79.63000,0.38000
041225_04.37.18.310,-0.11500,0.02700,0.96900,-0.26200,0.26200,6.75500,0.40100,0.64000,-1.31600,78.75000,-0.88000
041225_04.37.18.321,-0.09800,0.03100,0.97500,-0.22800,0.19200,6.73800,0.40000,0.64000,-1.31400,79.73000,0.98000
041225_04.37.18.333,-0.11900,0.03000,1.00000,-0.15700,0.14000,6.72000,0.40000,0.64000,-1.31400,79.84000,0.11000
041225_04.37.18.344,-0.10400,0.03500,0.97900,-0.15700,0.08700,6.68500,0.40700,0.63600,-1.31600,79.19000,-0.65000
041225_04.37.18.356,-0.12600,0.02600,0.99400,-0.14000,-0.05300,6.66800,0.40700,0.63500,-1.31300,79.76000,0.57000
041225_04.37.18.367,-0.10500,0.02900,1.00300,-0.12300,-0.12300,6.66800,0.39900,0.63700,-1.31400,80.11000,0.35000
041225_04.37.18.379,-0.11200,0.03300,0.99400,-0.10500,-0.33300,6.65000,0.40300,0.63800,-1.31200,80.01000,-0.10000
041225_04.37.18.390,-0.10700,0.02900,0.99600,-0.08700,-0.35000,6.63300,0.40300,0.63800,-1.31200,79.47000,-0.54000
041225_04.37.18.402,-0.10200,0.03900,1.00500,-0.03500,-0.38500,6.63300,0.39600,0.64200,-1.31700,79.05000,-0.42000
041225_04.37.18.413,-0.10200,0.03200,1.00600,-0.03500,-0.49000,6.61500,0.39500,0.63700,-1.31400,79.27000,0.22000
041225_04.37.18.425,-0.09300,0.04600,0.99600,-0.01800,-0.52500,6.63300,0.39600,0.63600,-1.31100,79.84000,0.57000
041225_04.37.18.437,-0.09100,0.03900,1.00500,-0.01800,-0.52500,6.61500,0.39600,0.63600,-1.31100,79.20000,-0.64000
041225_04.37.18.449,-0.09500,0.03600,1.00300,0.01800,-0.56000,6.61500,0.39300,0.63400,-1.30700,79.16000,-0.04000
041225_04.37.18.460,-0.09300,0.03900,1.00400,0.03500,-0.57700,6.65000,0.39200,0.63300,-1.31400,79.54000,0.38000
041225_04.37.18.472,-0.09200,0.03500,1.01000,0.01800,-0.57700,6.65000,0.39500,0.63400,-1.30200,78.93000,-0.61000
041225_04.37.18.483,-0.08100,0.03700,1.00400,-0.01800,-0.64700,6.65000,0.39200,0.63000,-1.30400,79.17000,0.24000
041225_04.37.18.495,-0.08700,0.03500,1.00300,-0.01800,-0.61300,6.66800,0.39200,0.63000,-1.30400,79.37000,0.20000
041225_04.37.18.506,-0.09000,0.03800,1.00000,0.00000,-0.57700,6.66800,0.38900,0.62900,-1.30900,79.37000,0.00000
041225_04.37.18.518,-0.08900,0.04300,1.01300,-0.01800,-0.57700,6.68500,0.39500,0.63200,-1.30400,79.06000,-0.31000
041225_04.37.18.529,-0.07000,0.03300,0.99800,-0.08700,-0.56000,6.68500,0.39900,0.62800,-1.31400,79.57000,0.51000
041225_04.37.18.541,-0.08600,0.04100,1.00100,-0.03500,-0.45500,6.72000,0.39900,0.63000,-1.30900,79.65000,0.08000
041225_04.37.18.552,-0.07400,0.04000,1.00000,-0.03500,-0.43700,6.72000,0.40200,0.63000,-1.30900,78.95000,-0.70000
041225_04.37.18.564,-0.07300,0.04100,1.00400,-0.07000,-0.42000,6.73800,0.40100,0.63000,-1.31400,79.09000,0.14000
041225_04.37.18.575,-0.08300,0.04200,1.00000,-0.03500,-0.43700,6.73800,0.40900,0.63100,-1.31400,79.22000,0.13000
041225_04.37.18.587,-0.07200,0.04500,0.99600,-0.05300,-0.42000,6.73800,0.40900,0.63200,-1.31600,79.62000,0.40000
041225_04.37.18.598,-0.07500,0.03500,0.99700,-0.08700,-0.35000,6.73800,0.40900,0.63200,-1.31600,79.22000,-0.40000
041225_04.37.18.610,-0.07000,0.03800,1.01200,-0.05300,-0.31500,6.72000,0.40800,0.63100,-1.31100,79.09000,-0.13000
041225_04.37.18.622,-0.08700,0.03800,0.99700,-0.05300,-0.24500,6.72000,0.41400,0.63000,-1.30800,78.39000,-0.70000
041225_04.37.18.633,-0.07700,0.03800,1.01800,-0.05300,-0.35000,6.72000,0.41100,0.63000,-1.30700,78.95000,0.56000
041225_04.37.18.645,-0.07500,0.03700,1.00500,-0.12300,-0.24500,6.70200,0.40900,0.62800,-1.30800,79.26000,0.31000
041225_04.37.18.656,-0.07200,0.03300,1.01400,-0.12300,-0.24500,6.68500,0.40900,0.62800,-1.30800,79.53000,0.27000
041225_04.37.18.668,-0.07900,0.03400,1.01600,-0.12300,-0.15700,6.65000,0.40900,0.62800,-1.30000,78.87000,-0.66000
041225_04.37.18.679,-0.08500,0.03200,1.02100,-0.15700,-0.14000,6.63300,0.40500,0.62700,-1.30200,79.15000,0.28000
041225_04.37.18.691,-0.05800,0.03600,1.02200,-0.19200,-0.12300,6.59700,0.40500,0.63200,-1.30500,79.01000,-0.14000
041225_04.37.18.703,-0.06900,0.04200,1.01800,-0.19200,-0.05300,6.56200,0.40500,0.63200,-1.30500,79.11000,0.10000
041225_04.37.18.714,-0.06800,0.05200,1.01000,-0.26200,0.03500,6.51000,0.40300,0.63100,-1.30900,79.85000,0.74000
041225_04.37.18.726,-0.03700,0.04200,1.00600,-0.28000,0.12300,6.51000,0.40200,0.63100,-1.30100,79.53000,-0.32000
041225_04.37.18.738,-0.06500,0.04500,1.01000,-0.26200,0.15700,6.49200,0.40000,0.63200,-1.30700,79.16000,-0.37000
041225_04.37.18.750,-0.05700,0.04500,1.00000,-0.26200,0.21000,6.45700,0.40400,0.62700,-1.30700,79.48000,0.32000
041225_04.37.18.761,-0.05900,0.04200,0.99900,-0.28000,0.24500,6.42300,0.40400,0.62700,-1.30700,79.44000,-0.04000
041225_04.37.18.773,-0.06800,0.04200,1.00400,-0.28000,0.26200,6.40500,0.40400,0.62400,-1.30900,79.89000,0.45000
041225_04.37.18.785,-0.06400,0.04400,0.97900,-0.28000,0.24500,6.37000,0.40000,0.62600,-1.30100,80.22000,0.33000
041225_04.37.18.797,-0.06600,0.04500,0.99000,-0.26200,0.24500,6.37000,0.40000,0.62500,-1.30700,78.97000,-1.25000
041225_04.37.18.808,-0.05800,0.03900,0.97200,-0.24500,0.33300,6.31800,0.40500,0.62400,-1.30900,78.71000,-0.26000
041225_04.37.18.820,-0.07800,0.04200,0.98800,-0.15700,0.28000,6.30000,0.40500,0.62400,-1.30900,79.39000,0.68000
041225_04.37.18.832,-0.08300,0.04200,0.97500,-0.15700,0.33300,6.26500,0.41300,0.62400,-1.30700,79.52000,0.13000
041225_04.37.18.843,-0.07100,0.04300,0.96500,-0.14000,0.22800,6.24700,0.41300,0.62400,-1.31000,79.54000,0.02000
041225_04.37.18.855,-0.08100,0.04400,0.96700,-0.14000,0.22800,6.23000,0.41500,0.62500,-1.31100,78.81000,-0.73000
041225_04.37.18.867,-0.08800,0.03700,0.95300,-0.05300,0.26200,6.21300,0.41500,0.62500,-1.31100,79.80000,0.99000
041225_04.37.18.878,-0.07000,0.04500,0.96900,0.03500,0.33300,6.17800,0.42500,0.61900,-1.30800,78.88000,-0.92000
041225_04.37.18.889,-0.07800,0.04200,0.99000,0.05300,0.31500,6.16000,0.42500,0.62700,-1.31000,80.24000,1.36000
041225_04.37.18.901,-0.09500,0.03600,0.96100,0.07000,0.38500,6.16000,0.42100,0.62300,-1.31300,79.78000,-0.46000
041225_04.37.18.912,-0.08000,0.03900,0.96500,0.10500,0.33300,6.16000,0.41600,0.62300,-1.31000,79.79000,0.01000
041225_04.37.18.924,-0.07300,0.03700,0.97000,0.10500,0.38500,6.14200,0.41600,0.62300,-1.31000,79.88000,0.09000
041225_04.37.18.935,-0.08400,0.02600,0.96500,0.12300,0.47200,6.14200,0.42000,0.62500,-1.30800,79.25000,-0.63000
041225_04.37.18.947,-0.09400,0.03100,0.98200,0.21000,0.56000,6.14200,0.41900,0.62400,-1.30700,79.50000,0.25000
041225_04.37.18.958,-0.08200,0.03600,0.97300,0.22800,0.63000,6.12500,0.41600,0.62200,-1.30600,80.19000,0.69000
041225_04.37.18.970,-0.08100,0.04000,0.98700,0.24500,0.57700,6.14200,0.41600,0.62200,-1.30600,79.96000,-0.23000
041225_04.37.18.982,-0.08900,0.03000,0.97300,0.24500,0.66500,6.16000,0.41600,0.62000,-1.30700,80.16000,0.20000
041225_04.37.18.993,-0.08100,0.03000,0.98600,0.28000,0.73500,6.19500,0.41400,0.61900,-1.30200,79.70000,-0.46000
041225_04.37.19.005,-0.08400,0.03400,0.99800,0.31500,0.78800,6.17800,0.41800,0.62000,-1.30100,79.42000,-0.28000
041225_04.37.19.016,-0.09600,0.02900,1.00200,0.28000,0.77000,6.16000,0.41500,0.61900,-1.30100,78.98000,-0.44000
041225_04.37.19.028,-0.09900,0.04000,1.00600,0.29800,0.71800,6.17800,0.41500,0.61900,-1.30100,79.99000,1.01000
041225_04.37.19.040,-0.08100,0.03700,0.99100,0.28000,0.73500,6.16000,0.41100,0.61900,-1.30300,79.72000,-0.27000
041225_04.37.19.052,-0.09800,0.04200,1.01100,0.31500,0.66500,6.16000,0.40700,0.61900,-1.29700,79.67000,-0.05000
041225_04.37.19.063,-0.10300,0.03500,1.01000,0.35000,0.47200,6.16000,0.40400,0.62200,-1.29900,79.77000,0.10000
041225_04.37.19.075,-0.09300,0.03800,1.02000,0.31500,0.36800,6.14200,0.41200,0.62200,-1.29900,80.00000,0.23000
041225_04.37.19.086,-0.09300,0.03900,1.00700,0.29800,0.33300,6.12500,0.41200,0.62200,-1.29900,80.10000,0.10000
041225_04.37.19.098,-0.11300,0.03700,1.01100,0.29800,0.21000,6.10800,0.41600,0.62000,-1.30600,79.41000,-0.69000
041225_04.37.19.110,-0.11200,0.03500,1.00900,0.31500,0.12300,6.12500,0.41400,0.61800,-1.30300,79.49000,0.08000
041225_04.37.19.121,-0.08700,0.04500,1.01300,0.35000,-0.01800,6.10800,0.41900,0.61500,-1.30600,80.05000,0.56000
041225_04.37.19.133,-0.10300,0.03900,1.01900,0.33300,-0.03500,6.07300,0.41900,0.61500,-1.30600,79.74000,-0.31000
041225_04.37.19.145,-0.10300,0.04000,1.02000,0.28000,-0.01800,6.00300,0.42400,0.61500,-1.30400,80.22000,0.48000
041225_04.37.19.156,-0.10900,0.03200,1.01300,0.24500,-0.03500,5.98500,0.42900,0.61100,-1.31200,79.39000,-0.83000
041225_04.37.19.167,-0.10800,0.03100,1.02800,0.29800,-0.12300,5.93200,0.43100,0.61200,-1.30700,79.19000,-0.20000
041225_04.37.19.178,-0.11600,0.04600,1.02100,0.33300,-0.08700,5.89800,0.42900,0.61300,-1.30500,80.33000,1.14000
041225_04.37.19.190,-0.10200,0.05400,1.02300,0.24500,-0.17500,5.84500,0.42900,0.61300,-1.30500,79.84000,-0.49000
041225_04.37.19.201,-0.09700,0.04500,1.03200,0.19200,-0.28000,5.81000,0.43400,0.61000,-1.29800,80.33000,0.49000
041225_04.37.19.213,-0.09400,0.04400,1.02800,0.21000,-0.22800,5.70500,0.43100,0.61300,-1.30200,79.49000,-0.84000
041225_04.37.19.224,-0.09200,0.04300,1.02200,0.14000,-0.12300,5.68700,0.43000,0.60700,-1.31100,79.65000,0.16000
041225_04.37.19.236,-0.09600,0.05200,1.01800,0.07000,-0.08700,5.68700,0.43000,0.60700,-1.29600,79.82000,0.17000
041225_04.37.19.247,-0.08300,0.04900,1.02500,-0.01800,-0.19200,5.67000,0.42300,0.61000,-1.29600,79.51000,-0.31000
041225_04.37.19.259,-0.06900,0.04500,0.99800,-0.03500,-0.03500,5.63500,0.42700,0.60800,-1.29700,79.34000,-0.17000
041225_04.37.19.271,-0.08500,0.04300,1.01400,-0.08700,0.05300,5.60000,0.42500,0.60800,-1.30300,79.78000,0.44000
041225_04.37.19.282,-0.09000,0.03700,1.01400,-0.05300,0.22800,5.60000,0.41900,0.61100,-1.30300,80.04000,0.26000
041225_04.37.19.294,-0.08600,0.04400,1.01200,-0.08700,0.17500,5.58200,0.41900,0.61100,-1.30300,80.96000,0.92000
041225_04.37.19.305,-0.05600,0.04100,1.01100,-0.19200,0.17500,5.56500,0.41900,0.60800,-1.29500,80.17000,-0.79000
041225_04.37.19.317,-0.07000,0.03500,0.99300,-0.21000,0.24500,5.56500,0.41900,0.60800,-1.30100,80.22000,0.05000
041225_04.37.19.328,-0.07400,0.02700,1.00100,-0.21000,0.31500,5.56500,0.41500,0.61100,-1.29600,79.74000,-0.48000
041225_04.37.19.339,-0.07300,0.03800,1.01300,-0.08700,0.33300,5.60000,0.41800,0.61100,-1.30300,79.64000,-0.10000
041225_04.37.19.351,-0.07000,0.04200,1.02100,-0.14000,0.26200,5.61700,0.41800,0.61100,-1.30300,80.09000,0.45000
041225_04.37.19.362,-0.07400,0.03600,1.01300,-0.24500,0.24500,5.60000,0.41500,0.60400,-1.30200,79.81000,-0.28000
041225_04.37.19.374,-0.07900,0.03900,1.01600,-0.24500,0.17500,5.61700,0.42900,0.60900,-1.30300,80.34000,0.53000
041225_04.37.19.386,-0.06900,0.04400,1.00400,-0.21000,0.07000,5.58200,0.42800,0.61000,-1.30500,79.66000,-0.68000
041225_04.37.19.398,-0.08600,0.04300,1.00700,-0.26200,0.00000,5.58200,0.42800,0.61000,-1.30500,79.80000,0.14000
041225_04.37.19.409,-0.08000,0.04200,1.00100,-0.26200,-0.03500,5.58200,0.43700,0.60800,-1.30600,79.61000,-0.19000
041225_04.37.19.421,-0.07700,0.03600,1.00200,-0.24500,-0.17500,5.58200,0.43600,0.60700,-1.30900,79.38000,-0.23000
041225_04.37.19.432,-0.08400,0.02900,0.99100,-0.22800,-0.17500,5.58200,0.44300,0.60600,-1.30700,79.51000,0.13000
041225_04.37.19.444,-0.09400,0.03600,1.00400,-0.17500,-0.22800,5.58200,0.43900,0.60700,-1.31200,80.04000,0.53000
041225_04.37.19.455,-0.08200,0.03300,0.98800,-0.17500,-0.21000,5.56500,0.43900,0.60700,-1.31200,80.17000,0.13000
041225_04.37.19.467,-0.09600,0.03800,0.99300,-0.17500,-0.24500,5.54800,0.44200,0.61000,-1.32000,79.76000,-0.41000
041225_04.37.19.478,-0.09000,0.03300,0.98900,-0.17500,-0.21000,5.51200,0.43500,0.60300,-1.31700,80.10000,0.34000
041225_04.37.19.490,-0.08700,0.04000,0.98200,-0.14000,-0.17500,5.51200,0.43800,0.60300,-1.31100,79.64000,-0.46000
041225_04.37.19.501,-0.08700,0.03700,0.98800,-0.17500,-0.14000,5.49500,0.43800,0.60000,-1.31000,79.61000,-0.03000
041225_04.37.19.513,-0.09600,0.03300,0.98200,-0.14000,-0.07000,5.47700,0.43800,0.60000,-1.31000,79.35000,-0.26000
041225_04.37.19.525,-0.07900,0.04300,0.99100,-0.14000,-0.03500,5.47700,0.43400,0.60400,-1.31100,79.21000,-0.14000
041225_04.37.19.536,-0.09400,0.03400,0.97700,-0.17500,0.07000,5.46000,0.42800,0.60800,-1.31000,79.41000,0.20000
041225_04.37.19.548,-0.07800,0.03400,0.98000,-0.12300,0.07000,5.44300,0.42700,0.60600,-1.30500,79.86000,0.45000
041225_04.37.19.559,-0.08900,0.04200,0.98800,-0.08700,0.21000,5.42500,0.42700,0.60600,-1.30500,79.60000,-0.26000
041225_04.37.19.571,-0.08100,0.05000,0.98100,-0.12300,0.22800,5.40700,0.43000,0.60100,-1.30300,79.89000,0.29000
041225_04.37.19.582,-0.08900,0.03400,0.98700,-0.17500,0.24500,5.40700,0.43000,0.60700,-1.30900,79.44000,-0.45000
041225_04.37.19.594,-0.07200,0.03600,0.97600,-0.12300,0.24500,5.37200,0.43400,0.60800,-1.30800,79.92000,0.48000
041225_04.37.19.605,-0.07400,0.04400,0.99700,-0.05300,0.26200,5.37200,0.42500,0.60200,-1.31100,79.53000,-0.39000
041225_04.37.19.617,-0.08200,0.03900,0.97900,-0.08700,0.29800,5.35500,0.42500,0.60200,-1.31100,80.00000,0.47000
041225_04.37.19.628,-0.07500,0.04100,0.97800,-0.14000,0.28000,5.32000,0.43200,0.60700,-1.30800,79.82000,-0.18000
041225_04.37.19.640,-0.09900,0.03500,0.97400,-0.15700,0.35000,5.30300,0.42500,0.60400,-1.30800,79.27000,-0.55000
041225_04.37.19.651,-0.09500,0.03100,0.98900,-0.07000,0.15700,5.32000,0.44100,0.60500,-1.31300,79.72000,0.45000
041225_04.37.19.663,-0.07300,0.04300,0.98100,-0.05300,0.14000,5.30300,0.44100,0.60500,-1.31300,79.30000,-0.42000
041225_04.37.19.674,-0.07500,0.03100,0.97800,-0.10500,0.17500,5.26700,0.43900,0.60500,-1.31300,79.54000,0.24000
041225_04.37.19.686,-0.09100,0.03500,0.99100,-0.05300,0.24500,5.25000,0.44400,0.60500,-1.31000,79.32000,-0.22000
041225_04.37.19.697,-0.11700,0.03500,1.01300,-0.01800,0.05300,5.26700,0.44500,0.60300,-1.31300,78.93000,-0.39000
041225_04.37.19.709,-0.08300,0.04300,0.99800,-0.01800,-0.15700,5.23300,0.45100,0.60200,-1.31000,79.83000,0.90000
041225_04.37.19.720,-0.08200,0.04500,0.99000,-0.05300,-0.12300,5.21500,0.45100,0.60200,-1.31000,80.00000,0.17000
041225_04.37.19.732,-0.07000,0.03800,1.02800,0.00000,-0.10500,5.21500,0.45100,0.60400,-1.31300,79.53000,-0.47000
041225_04.37.19.743,-0.10000,0.03200,1.01400,0.01800,-0.24500,5.19800,0.45200,0.60200,-1.31200,80.27000,0.74000
041225_04.37.19.755,-0.09100,0.02900,0.99500,-0.01800,-0.33300,5.19800,0.45200,0.59800,-1.31500,79.50000,-0.77000
041225_04.37.19.766,-0.08800,0.03500,0.99600,-0.03500,-0.33300,5.19800,0.45700,0.60300,-1.30800,79.26000,-0.24000
041225_04.37.19.778,-0.08300,0.03600,0.98400,-0.03500,-0.31500,5.21500,0.45700,0.60300,-1.30800,79.66000,0.40000
041225_04.37.19.790,-0.08600,0.03800,1.00100,0.05300,-0.33300,5.19800,0.44900,0.59900,-1.31100,79.08000,-0.58000
041225_04.37.19.801,-0.09100,0.03300,0.99600,0.05300,-0.26200,5.18000,0.45200,0.59900,-1.31200,79.12000,0.04000
041225_04.37.19.813,-0.10400,0.03600,1.01100,0.10500,-0.28000,5.19800,0.44400,0.59900,-1.30800,78.97000,-0.15000
041225_04.37.19.824,-0.09900,0.04000,0.99500,0.08700,-0.28000,5.19800,0.44400,0.59900,-1.30800,79.31000,0.34000
041225_04.37.19.836,-0.08100,0.03800,0.99800,0.01800,-0.35000,5.19800,0.44500,0.59900,-1.31300,79.04000,-0.27000
041225_04.37.19.847,-0.08600,0.04300,1.00100,0.07000,-0.21000,5.18000,0.44700,0.59800,-1.31200,78.69000,-0.35000
041225_04.37.19.859,-0.08500,0.03700,1.00000,0.05300,-0.14000,5.19800,0.43800,0.59400,-1.32100,79.58000,0.89000
041225_04.37.19.870,-0.08400,0.03900,1.00900,0.07000,-0.12300,5.19800,0.43500,0.59400,-1.31700,78.79000,-0.79000
041225_04.37.19.882,-0.10100,0.03800,1.01500,0.03500,-0.07000,5.19800,0.43500,0.59400,-1.31700,78.95000,0.16000
041225_04.37.19.893,-0.08100,0.03700,1.00500,0.03500,-0.14000,5.19800,0.44000,0.59700,-1.30900,79.56000,0.61000
041225_04.37.19.905,-0.07100,0.04400,1.00400,0.03500,-0.03500,5.19800,0.44600,0.59600,-1.31900,78.93000,-0.63000
041225_04.37.19.916,-0.07900,0.03900,1.01700,-0.01800,-0.05300,5.21500,0.43800,0.59600,-1.32200,79.26000,0.33000
041225_04.37.19.928,-0.08700,0.03800,1.00500,-0.05300,-0.10500,5.21500,0.43800,0.59600,-1.32200,78.91000,-0.35000
041225_04.37.19.939,-0.07700,0.03300,1.00200,-0.05300,-0.14000,5.19800,0.44600,0.59200,-1.31800,79.26000,0.35000
041225_04.37.19.951,-0.07200,0.04000,1.00700,-0.07000,-0.14000,5.21500,0.45200,0.58900,-1.31800,78.96000,-0.30000
041225_04.37.19.962,-0.07900,0.03600,0.99500,-0.10500,-0.08700,5.18000,0.45700,0.58500,-1.31400,79.38000,0.42000
041225_04.37.19.974,-0.07900,0.03900,1.01100,-0.07000,-0.17500,5.18000,0.45300,0.58500,-1.31200,78.78000,-0.60000
041225_04.37.19.985,-0.06500,0.04500,0.99700,-0.07000,-0.17500,5.18000,0.45300,0.58500,-1.31200,78.56000,-0.22000
041225_04.37.19.996,-0.07100,0.04100,0.99700,-0.08700,-0.21000,5.19800,0.45700,0.58800,-1.31200,78.82000,0.26000
041225_04.37.20.008,-0.08300,0.04200,1.01200,-0.12300,-0.19200,5.18000,0.45900,0.58900,-1.31000,79.18000,0.36000
041225_04.37.20.019,-0.07500,0.04400,0.99100,-0.10500,-0.12300,5.16200,0.46700,0.58800,-1.31700,80.10000,0.92000
041225_04.37.20.031,-0.08000,0.04600,1.00700,-0.10500,-0.24500,5.16200,0.47000,0.58500,-1.32000,79.37000,-0.73000
041225_04.37.20.042,-0.07900,0.04400,0.99800,-0.12300,-0.22800,5.14500,0.47000,0.58500,-1.32000,79.15000,-0.22000
041225_04.37.20.054,-0.08800,0.03800,1.00000,-0.12300,-0.28000,5.14500,0.46300,0.58700,-1.31600,78.68000,-0.47000
041225_04.37.20.065,-0.09200,0.03700,1.02000,-0.17500,-0.22800,5.09300,0.46200,0.58400,-1.30900,78.79000,0.11000
041225_04.37.20.076,-0.10000,0.03500,1.00900,-0.19200,-0.14000,5.05700,0.46100,0.58300,-1.30800,78.34000,-0.45000
041225_04.37.20.088,-0.10000,0.03200,1.01100,-0.24500,-0.08700,5.02300,0.46100,0.58300,-1.30800,78.31000,-0.03000
041225_04.37.20.099,-0.07600,0.04000,1.01700,-0.24500,-0.05300,5.00500,0.46000,0.58800,-1.31500,79.22000,0.91000
041225_04.37.20.111,-0.09800,0.04300,1.01600,-0.28000,0.03500,4.93500,0.46000,0.58700,-1.31500,78.58000,-0.64000
041225_04.37.20.122,-0.07200,0.03500,1.00700,-0.31500,0.07000,4.91800,0.45400,0.58300,-1.31200,79.35000,0.77000
041225_04.37.20.134,-0.09800,0.03400,1.01600,-0.29800,0.19200,4.91800,0.45500,0.58500,-1.31000,78.58000,-0.77000
041225_04.37.20.145,-0.08300,0.02700,1.01600,-0.28000,0.24500,4.88300,0.45500,0.58500,-1.31000,78.41000,-0.17000
041225_04.37.20.156,-0.08300,0.03600,1.03100,-0.31500,0.19200,4.88300,0.45700,0.58500,-1.31800,78.17000,-0.24000
041225_04.37.20.168,-0.07300,0.03300,1.02100,-0.35000,0.24500,4.88300,0.45100,0.58200,-1.31500,78.15000,-0.02000
041225_04.37.20.179,-0.08400,0.03500,1.02800,-0.38500,0.19200,4.84700,0.44900,0.58000,-1.31900,78.82000,0.67000
041225_04.37.20.191,-0.07400,0.03200,1.02400,-0.40300,0.22800,4.81200,0.44900,0.58000,-1.31800,78.87000,0.05000
041225_04.37.20.202,-0.08500,0.02500,1.01700,-0.45500,0.29800,4.79500,0.45700,0.58000,-1.31800,78.70000,-0.17000
041225_04.37.20.213,-0.08100,0.02800,1.03800,-0.38500,0.15700,4.81200,0.46400,0.58000,-1.31700,78.56000,-0.14000
041225_04.37.20.225,-0.07300,0.02800,1.00000,-0.40300,0.00000,4.79500,0.46500,0.57600,-1.32000,78.80000,0.24000
041225_04.37.20.236,-0.06800,0.03000,0.99900,-0.43700,0.08700,4.81200,0.46700,0.57400,-1.31800,78.12000,-0.68000
041225_04.37.20.248,-0.08300,0.02200,1.01400,-0.36800,-0.01800,4.81200,0.46700,0.57400,-1.31800,79.18000,1.06000
041225_04.37.20.259,-0.05300,0.02700,1.01600,-0.35000,-0.08700,4.81200,0.46800,0.57800,-1.31000,79.16000,-0.02000
041225_04.37.20.271,-0.06100,0.03000,0.98700,-0.33300,0.00000,4.83000,0.47100,0.57600,-1.31800,78.11000,-1.05000
041225_04.37.20.282,-0.05600,0.03200,1.00500,-0.29800,-0.08700,4.86500,0.47700,0.57600,-1.32100,78.88000,0.77000
041225_04.37.20.293,-0.05600,0.03800,0.98800,-0.24500,-0.08700,4.86500,0.47300,0.57700,-1.31800,78.27000,-0.61000
041225_04.37.20.305,-0.05400,0.04200,0.98500,-0.22800,-0.05300,4.86500,0.47300,0.57700,-1.31800,79.11000,0.84000
041225_04.37.20.316,-0.07400,0.03600,0.98600,-0.24500,-0.01800,4.90000,0.47100,0.57600,-1.32000,78.68000,-0.43000
041225_04.37.20.328,-0.06300,0.02700,0.96700,-0.24500,0.03500,4.91800,0.47500,0.57500,-1.32000,79.12000,0.44000
041225_04.37.20.339,-0.08000,0.02500,0.98100,-0.12300,0.05300,4.91800,0.47300,0.57800,-1.31300,78.35000,-0.77000
041225_04.37.20.350,-0.06300,0.02600,0.97100,-0.07000,0.07000,4.91800,0.47300,0.57800,-1.31300,79.00000,0.65000
041225_04.37.20.362,-0.06700,0.03200,0.96500,-0.01800,0.19200,4.90000,0.47000,0.57600,-1.32100,78.34000,-0.66000
041225_04.37.20.373,-0.09300,0.03800,0.97400,-0.01800,0.26200,4.91800,0.46800,0.57700,-1.32000,79.29000,0.95000
041225_04.37.20.385,-0.07900,0.02900,0.96100,-0.08700,0.35000,4.91800,0.46400,0.57500,-1.31500,79.53000,0.24000
041225_04.37.20.396,-0.10700,0.02600,0.98000,0.03500,0.43700,4.91800,0.46600,0.57600,-1.32100,79.23000,-0.30000
041225_04.37.20.407,-0.09000,0.03800,0.97300,0.03500,0.56000,4.90000,0.46600,0.57600,-1.32100,79.08000,-0.15000
041225_04.37.20.419,-0.08300,0.04000,0.96200,-0.01800,0.68300,4.84700,0.46100,0.57600,-1.31600,78.88000,-0.20000
041225_04.37.20.430,-0.11000,0.02900,0.96000,-0.03500,0.68300,4.84700,0.46300,0.57100,-1.32000,78.73000,-0.15000
041225_04.37.20.442,-0.08900,0.03300,0.96300,0.08700,0.70000,4.84700,0.45800,0.57700,-1.31600,79.45000,0.72000
041225_04.37.20.453,-0.09300,0.03000,0.95200,0.07000,0.80500,4.84700,0.45800,0.57500,-1.31400,79.42000,-0.03000
041225_04.37.20.465,-0.07900,0.03200,0.98600,0.12300,0.85800,4.83000,0.46300,0.57500,-1.31400,78.88000,-0.54000
041225_04.37.20.476,-0.08600,0.04100,0.96400,0.14000,0.94500,4.79500,0.47100,0.57400,-1.31800,77.90000,-0.98000
041225_04.37.20.487,-0.09800,0.04100,0.99100,0.12300,0.77000,4.77800,0.47400,0.57000,-1.31800,78.90000,1.00000
041225_04.37.20.499,-0.08300,0.03600,0.95400,0.05300,0.85800,4.77800,0.47300,0.57300,-1.31700,78.25000,-0.65000
041225_04.37.20.510,-0.08000,0.03300,0.97200,0.10500,0.73500,4.79500,0.47300,0.57300,-1.31700,78.75000,0.50000
041225_04.37.20.522,-0.05800,0.02800,0.97700,0.15700,0.84000,4.79500,0.47800,0.57000,-1.31900,78.70000,-0.05000
041225_04.37.20.533,-0.08700,0.03200,1.00000,0.21000,0.75200,4.79500,0.48200,0.57000,-1.31600,78.81000,0.11000
041225_04.37.20.545,-0.08400,0.03400,1.00900,0.10500,0.64700,4.83000,0.48300,0.56700,-1.31700,79.18000,0.37000
041225_04.37.20.556,-0.07100,0.03300,0.99000,0.07000,0.40300,4.81200,0.48500,0.56700,-1.31500,78.61000,-0.57000
041225_04.37.20.567,-0.07000,0.04400,0.98800,0.07000,0.45500,4.84700,0.48500,0.56700,-1.31500,79.23000,0.62000
041225_04.37.20.579,-0.08700,0.03500,1.02100,0.10500,0.38500,4.86500,0.48500,0.56900,-1.31300,78.89000,-0.34000
041225_04.37.20.590,-0.08900,0.03500,1.01500,0.08700,0.29800,4.86500,0.48700,0.56500,-1.31900,78.44000,-0.45000
041225_04.37.20.602,-0.07100,0.03500,1.00600,0.05300,0.15700,4.84700,0.48500,0.56700,-1.31800,78.85000,0.41000
041225_04.37.20.613,-0.09200,0.03900,1.00900,0.00000,0.21000,4.84700,0.48500,0.56700,-1.31800,78.38000,-0.47000
041225_04.37.20.624,-0.09400,0.03400,1.00500,-0.01800,0.22800,4.86500,0.48700,0.56400,-1.31400,78.94000,0.56000
041225_04.37.20.636,-0.09700,0.04300,1.01700,0.01800,0.19200,4.86500,0.48500,0.56200,-1.31300,79.22000,0.28000
041225_04.37.20.647,-0.10100,0.03300,1.02100,0.00000,0.19200,4.88300,0.47900,0.56200,-1.31200,78.88000,-0.34000
041225_04.37.20.658,-0.09400,0.02600,1.01600,-0.05300,0.26200,4.86500,0.48500,0.56400,-1.31600,78.88000,0.00000
041225_04.37.20.670,-0.10600,0.03100,1.03400,-0.08700,0.31500,4.84700,0.48500,0.56400,-1.31600,79.39000,0.51000
041225_04.37.20.681,-0.10600,0.02900,1.01800,-0.12300,0.35000,4.79500,0.48300,0.56300,-1.31800,79.11000,-0.28000
041225_04.37.20.693,-0.10900,0.04600,1.02500,-0.14000,0.24500,4.83000,0.47400,0.55800,-1.31800,78.81000,-0.30000
041225_04.37.20.704,-0.10100,0.03600,1.00600,-0.21000,0.33300,4.77800,0.48200,0.56000,-1.31700,79.00000,0.19000
041225_04.37.20.716,-0.10600,0.03800,1.01600,-0.19200,0.35000,4.79500,0.47900,0.56200,-1.32100,78.88000,-0.12000
041225_04.37.20.727,-0.10300,0.02600,1.02700,-0.17500,0.33300,4.74200,0.47900,0.56200,-1.32100,79.64000,0.76000
041225_04.37.20.738,-0.09400,0.03400,1.02700,-0.21000,0.24500,4.74200,0.47500,0.55900,-1.32700,79.25000,-0.39000
041225_04.37.20.750,-0.10400,0.03300,1.00300,-0.26200,0.26200,4.74200,0.47800,0.55900,-1.32000,79.18000,-0.07000
041225_04.37.20.761,-0.11000,0.03600,1.01500,-0.26200,0.21000,4.72500,0.48500,0.55700,-1.31600,79.38000,0.20000
041225_04.37.20.773,-0.11100,0.02700,1.00700,-0.26200,0.19200,4.72500,0.48500,0.55700,-1.31600,79.83000,0.45000
041225_04.37.20.784,-0.08100,0.03100,1.01800,-0.17500,0.05300,4.70700,0.48800,0.56200,-1.32000,79.56000,-0.27000
041225_04.37.20.796,-0.10700,0.03400,1.02000,-0.22800,0.03500,4.69000,0.48600,0.55600,-1.32300,79.62000,0.06000
041225_04.37.20.807,-0.09700,0.02500,1.01900,-0.28000,-0.08700,4.67300,0.49200,0.55800,-1.32400,79.03000,-0.59000
041225_04.37.20.819,-0.11600,0.03100,1.01000,-0.26200,-0.19200,4.67300,0.49000,0.55500,-1.31900,79.70000,0.67000
041225_04.37.20.830,-0.09300,0.03100,1.00800,-0.26200,-0.36800,4.65500,0.49000,0.55500,-1.31900,78.82000,-0.88000
041225_04.37.20.842,-0.09300,0.03100,0.99600,-0.22800,-0.36800,4.65500,0.49500,0.55600,-1.32800,79.66000,0.84000
041225_04.37.20.853,-0.11300,0.03100,1.02300,-0.22800,-0.47200,4.65500,0.49900,0.56000,-1.32800,79.50000,-0.16000
041225_04.37.20.864,-0.10300,0.02200,0.99600,-0.28000,-0.54300,4.65500,0.49400,0.55400,-1.32400,79.59000,0.09000
041225_04.37.20.876,-0.08900,0.02800,1.00200,-0.21000,-0.64700,4.62000,0.49400,0.55400,-1.32400,79.92000,0.33000
041225_04.37.20.887,-0.09800,0.02900,0.99900,-0.19200,-0.61300,4.62000,0.49600,0.55400,-1.31900,79.24000,-0.68000
041225_04.37.20.899,-0.10600,0.03000,0.98700,-0.14000,-0.63000,4.60200,0.49300,0.55600,-1.32600,79.51000,0.27000
041225_04.37.20.910,-0.09300,0.02400,0.97400,-0.14000,-0.56000,4.60200,0.49300,0.55300,-1.31000,79.73000,0.22000
041225_04.37.20.922,-0.08600,0.02500,0.99100,-0.10500,-0.49000,4.58500,0.48900,0.55400,-1.31500,79.50000,-0.23000
041225_04.37.20.933,-0.10700,0.01600,0.98200,-0.10500,-0.40300,4.58500,0.48900,0.55400,-1.31500,79.88000,0.38000
041225_04.37.20.945,-0.09200,0.01600,0.97900,-0.05300,-0.40300,4.56800,0.48700,0.54900,-1.31500,79.05000,-0.83000
041225_04.37.20.956,-0.09600,0.02900,0.97700,0.03500,-0.33300,4.55000,0.49200,0.55200,-1.31600,79.19000,0.14000
041225_04.37.20.968,-0.07600,0.02400,0.96300,-0.01800,-0.26200,4.53200,0.48800,0.55400,-1.31700,78.87000,-0.32000
041225_04.37.20.979,-0.09500,0.03200,0.97500,0.10500,-0.15700,4.55000,0.48100,0.55000,-1.32000,79.35000,0.48000
041225_04.37.20.991,-0.08700,0.02600,0.98000,0.12300,-0.17500,4.56800,0.48100,0.55000,-1.32000,79.75000,0.40000
041225_04.37.21.002,-0.07900,0.02600,0.97900,0.19200,-0.26200,4.55000,0.48000,0.55100,-1.31900,80.11000,0.36000
041225_04.37.21.013,-0.07500,0.03600,0.98000,0.22800,-0.21000,4.53200,0.48400,0.55200,-1.32200,79.37000,-0.74000
041225_04.37.21.025,-0.06900,0.02600,0.96800,0.17500,-0.12300,4.55000,0.48200,0.55200,-1.31900,80.42000,1.05000
041225_04.37.21.036,-0.08800,0.03200,0.98600,0.26200,-0.15700,4.56800,0.48200,0.55200,-1.31900,79.53000,-0.89000
041225_04.37.21.048,-0.08600,0.03100,0.97900,0.29800,-0.26200,4.56800,0.48500,0.55000,-1.32500,79.68000,0.15000
041225_04.37.21.059,-0.07600,0.03100,0.97800,0.31500,-0.29800,4.58500,0.48700,0.54700,-1.31300,80.84000,1.16000
041225_04.37.21.070,-0.06900,0.03000,0.98800,0.31500,-0.31500,4.58500,0.49600,0.54600,-1.31500,79.72000,-1.12000
041225_04.37.21.082,-0.08900,0.03200,0.99100,0.35000,-0.36800,4.58500,0.49600,0.54600,-1.32200,80.22000,0.50000
041225_04.37.21.093,-0.08500,0.02800,0.99100,0.35000,-0.47200,4.58500,0.49600,0.54600,-1.32200,80.31000,0.09000
041225_04.37.21.105,-0.07300,0.03300,0.99600,0.36800,-0.49000,4.60200,0.49900,0.54900,-1.31800,80.17000,-0.14000
041225_04.37.21.116,-0.08500,0.03300,0.99400,0.33300,-0.43700,4.56800,0.49900,0.54200,-1.31900,80.44000,0.27000
041225_04.37.21.127,-0.08800,0.03300,1.00000,0.29800,-0.45500,4.56800,0.50100,0.54100,-1.31200,80.19000,-0.25000
041225_04.37.21.139,-0.08500,0.03200,0.99700,0.24500,-0.47200,4.56800,0.50100,0.54100,-1.31200,80.33000,0.14000
041225_04.37.21.150,-0.08600,0.03100,1.00100,0.24500,-0.49000,4.55000,0.49800,0.54000,-1.31200,79.97000,-0.36000
041225_04.37.21.162,-0.08500,0.03600,1.00200,0.26200,-0.43700,4.55000,0.50500,0.54200,-1.31300,80.22000,0.25000
041225_04.37.21.173,-0.09800,0.03600,1.00600,0.19200,-0.38500,4.51500,0.50100,0.54400,-1.31600,79.84000,-0.38000
041225_04.37.21.185,-0.07800,0.04200,1.01000,0.19200,-0.38500,4.51500,0.49600,0.54400,-1.31300,79.98000,0.14000
041225_04.37.21.196,-0.07700,0.03400,1.00500,0.14000,-0.26200,4.49700,0.49600,0.54400,-1.31300,80.02000,0.04000
041225_04.37.21.207,-0.09700,0.02900,1.01100,0.14000,-0.19200,4.49700,0.50000,0.53700,-1.30600,80.74000,0.72000
041225_04.37.21.219,-0.08700,0.02800,1.00700,0.08700,4.46300,4.46300,0.49400,0.53900,-1.31700,80.01000,-0.73000
041225_04.37.21.230,-0.09100,0.02200,1.02100,0.07000,0.12300,4.42800,0.49500,0.53900,-1.31600,80.30000,0.29000
041225_04.37.21.242,-0.08600,0.03200,1.02100,0.03500,0.29800,4.42800,0.49000,0.53500,-1.32100,80.38000,0.08000
041225_04.37.21.253,-0.07100,0.02500,1.03000,-0.03500,0.38500,4.39200,0.49000,0.53500,-1.32100,79.96000,-0.42000
041225_04.37.21.264,-0.08400,0.02100,1.02700,0.00000,0.35000,4.39200,0.49000,0.53700,-1.31100,80.19000,0.23000
041225_04.37.21.276,-0.07200,0.03000,1.03200,0.05300,0.42000,4.39200,0.48800,0.53300,-1.30700,80.23000,0.04000
041225_04.37.21.287,-0.06800,0.03300,1.02600,-0.03500,0.49000,4.37500,0.49000,0.53100,-1.31400,80.14000,-0.09000
041225_04.37.21.298,-0.07000,0.03500,1.03800,-0.12300,0.45500,4.39200,0.49000,0.53100,-1.31400,79.50000,-0.64000
041225_04.37.21.310,-0.07500,0.02500,1.01800,-0.12300,0.43700,4.39200,0.49200,0.53500,-1.31300,80.65000,1.15000
041225_04.37.21.321,-0.05900,0.03300,1.02000,-0.12300,0.33300,4.39200,0.49800,0.53100,-1.31200,80.18000,-0.47000
041225_04.37.21.333,-0.06600,0.03300,1.01200,-0.10500,0.40300,4.41000,0.49800,0.53300,-1.30900,79.78000,-0.40000
041225_04.37.21.344,-0.06600,0.02300,1.01900,-0.10500,0.31500,4.41000,0.51000,0.53100,-1.31600,79.76000,-0.02000
041225_04.37.21.356,-0.07200,0.03900,1.02600,-0.05300,0.19200,4.44500,0.51000,0.53100,-1.31600,80.76000,1.00000
041225_04.37.21.367,-0.04800,0.03500,1.01100,-0.10500,0.14000,4.44500,0.50500,0.52900,-1.31900,80.22000,-0.54000
041225_04.37.21.378,-0.06400,0.02700,1.00300,-0.19200,0.10500,4.44500,0.50500,0.53100,-1.31200,80.24000,0.02000
041225_04.37.21.390,-0.06900,0.02300,1.01500,-0.01800,0.08700,4.51500,0.51600,0.52900,-1.31000,80.10000,-0.14000
041225_04.37.21.401,-0.08100,0.03400,1.01800,-0.03500,-0.08700,4.51500,0.51600,0.52900,-1.31800,80.39000,0.29000
041225_04.37.21.413,-0.07100,0.02500,0.98900,-0.22800,-0.08700,4.51500,0.51600,0.52900,-1.31800,80.09000,-0.30000
041225_04.37.21.424,-0.08500,0.02300,0.99900,-0.10500,-0.10500,4.53200,0.51200,0.52600,-1.31500,80.12000,0.03000
041225_04.37.21.436,-0.09400,0.03200,1.00900,-0.03500,-0.07000,4.53200,0.50800,0.52700,-1.31300,80.14000,0.02000
041225_04.37.21.447,-0.09300,0.03100,0.99000,-0.07000,-0.10500,4.55000,0.50800,0.52900,-1.31700,79.76000,-0.38000
041225_04.37.21.458,-0.09300,0.03200,0.98900,-0.14000,-0.10500,4.53200,0.50800,0.52900,-1.31700,80.69000,0.93000
041225_04.37.21.470,-0.08500,0.02900,0.98900,-0.12300,-0.01800,4.55000,0.50900,0.52800,-1.31900,80.22000,-0.47000
041225_04.37.21.481,-0.10100,0.03500,0.96900,-0.07000,0.05300,4.53200,0.50700,0.52700,-1.31500,80.29000,0.07000
041225_04.37.21.493,-0.10900,0.03600,0.97900,-0.07000,0.05300,4.53200,0.50400,0.52400,-1.31600,79.53000,-0.76000
041225_04.37.21.504,-0.10400,0.01900,0.96900,-0.10500,0.17500,4.51500,0.50400,0.52400,-1.30900,79.99000,0.46000
041225_04.37.21.515,-0.11100,0.02300,0.98200,0.00000,0.17500,4.48000,0.50400,0.52400,-1.30900,79.91000,-0.08000
041225_04.37.21.527,-0.09500,0.01700,0.98700,-0.01800,0.24500,4.48000,0.49400,0.52100,-1.31200,79.64000,-0.27000
041225_04.37.21.538,-0.10300,0.02700,0.97200,0.00000,0.28000,4.46300,0.50100,0.52300,-1.31300,79.74000,0.10000
041225_04.37.21.549,-0.10600,0.02500,0.98100,-0.03500,0.31500,4.44500,0.49600,0.51700,-1.31400,79.28000,-0.46000
041225_04.37.21.561,-0.09800,0.02700,0.97100,0.07000,0.33300,4.46300,0.49600,0.51700,-1.31400,80.45000,1.17000
041225_04.37.21.572,-0.09800,0.02600,0.98000,0.00000,0.33300,4.46300,0.49600,0.51800,-1.31200,80.16000,-0.29000
041225_04.37.21.584,-0.10200,0.01700,0.98500,0.03500,0.35000,4.46300,0.49800,0.51800,-1.31600,79.83000,-0.33000
041225_04.37.21.595,-0.09200,0.03000,0.99100,0.10500,0.29800,4.46300,0.50300,0.52000,-1.31900,79.91000,0.08000
041225_04.37.21.607,-0.10200,0.03300,0.98100,0.10500,0.22800,4.44500,0.50800,0.51900,-1.32500,79.31000,-0.60000
041225_04.37.21.618,-0.09300,0.03200,0.98800,0.03500,0.15700,4.44500,0.50800,0.51900,-1.32500,80.09000,0.78000
041225_04.37.21.630,-0.10600,0.02200,0.97500,0.07000,0.22800,4.46300,0.50400,0.51400,-1.31700,80.37000,0.28000
041225_04.37.21.642,-0.08900,0.03200,0.99000,0.19200,0.03500,4.44500,0.50900,0.51600,-1.31700,80.13000,-0.24000
041225_04.37.21.653,-0.08900,0.02500,0.99400,0.17500,0.05300,4.44500,0.51300,0.51500,-1.32300,80.38000,0.25000
041225_04.37.21.665,-0.10900,0.02900,0.98100,0.14000,0.07000,4.44500,0.51500,0.51400,-1.32100,80.42000,0.04000
041225_04.37.21.676,-0.10100,0.02300,1.00100,0.15700,-0.03500,4.46300,0.51500,0.51400,-1.32100,80.07000,-0.35000
041225_04.37.21.688,-0.10500,0.03100,0.97400,0.21000,-0.05300,4.48000,0.51100,0.51500,-1.32100,79.92000,-0.15000
041225_04.37.21.699,-0.09000,0.03400,0.99600,0.21000,-0.17500,4.49700,0.51400,0.51600,-1.32100,79.84000,-0.08000
041225_04.37.21.711,-0.09900,0.02400,0.99500,0.17500,-0.07000,4.49700,0.51100,0.51300,-1.31600,80.32000,0.48000
041225_04.37.21.722,-0.09300,0.02800,1.00000,0.19200,-0.17500,4.49700,0.51100,0.51300,-1.31600,79.66000,-0.66000
041225_04.37.21.734,-0.09300,0.03000,0.99100,0.10500,-0.14000,4.51500,0.50700,0.51400,-1.31600,79.96000,0.30000
041225_04.37.21.745,-0.08800,0.03000,1.01300,0.07000,-0.19200,4.51500,0.50700,0.51300,-1.31700,80.03000,0.07000
041225_04.37.21.756,-0.09700,0.02600,1.00400,0.15700,-0.17500,4.55000,0.50900,0.51300,-1.31200,79.78000,-0.25000
041225_04.37.21.768,-0.08100,0.03400,1.01300,0.15700,-0.22800,4.55000,0.50700,0.50700,-1.31900,80.66000,0.88000
041225_04.37.21.779,-0.10300,0.02800,1.02100,0.07000,-0.15700,4.55000,0.50700,0.50700,-1.31900,79.50000,-1.16000
041225_04.37.21.791,-0.08200,0.02100,1.00100,0.07000,-0.10500,4.56800,0.50500,0.51100,-1.31000,79.40000,-0.10000
041225_04.37.21.803,-0.12900,0.03300,1.04000,0.12300,-0.15700,4.60200,0.50400,0.50300,-1.31900,79.47000,0.07000
041225_04.37.21.814,-0.06600,0.03400,1.01500,0.03500,-0.22800,4.58500,0.50100,0.50900,-1.31500,79.02000,-0.45000
041225_04.37.21.825,-0.08700,0.02800,1.01200,0.00000,-0.28000,4.60200,0.50100,0.50900,-1.30700,79.03000,0.01000
041225_04.37.21.837,-0.07100,0.02000,1.02400,-0.03500,-0.12300,4.62000,0.49900,0.50600,-1.30700,79.87000,0.84000
041225_04.37.21.849,-0.10000,0.02800,1.01800,0.05300,-0.08700,4.60200,0.50200,0.50600,-1.32000,79.53000,-0.34000
041225_04.37.21.860,-0.11700,0.03700,1.03900,0.01800,-0.17500,4.62000,0.49900,0.50700,-1.31800,79.35000,-0.18000
041225_04.37.21.872,-0.10000,0.02500,0.99700,-0.08700,-0.28000,4.65500,0.50600,0.49900,-1.32100,79.61000,0.26000
041225_04.37.21.883,-0.07100,0.03200,1.01500,-0.03500,-0.40300,4.67300,0.50600,0.49900,-1.32100,80.13000,0.52000
041225_04.37.21.895,-0.07900,0.03000,0.99100,0.03500,-0.22800,4.65500,0.51400,0.49400,-1.32000,79.33000,-0.80000
041225_04.37.21.907,-0.10300,0.03200,1.00700,0.00000,-0.24500,4.63700,0.51200,0.49600,-1.31600,79.77000,0.44000
041225_04.37.21.918,-0.10500,0.02600,1.01200,0.00000,-0.40300,4.63700,0.52200,0.49800,-1.31900,79.54000,-0.23000
041225_04.37.21.930,-0.08600,0.03400,0.99700,-0.01800,-0.40300,4.65500,0.52200,0.49800,-1.31600,79.82000,0.28000
041225_04.37.21.941,-0.09800,0.03700,0.99200,0.01800,-0.33300,4.67300,0.52200,0.49800,-1.31600,79.82000,0.00000
041225_04.37.21.953,-0.09100,0.02600,1.00700,-0.01800,-0.36800,4.65500,0.51800,0.49700,-1.31400,79.84000,0.02000
041225_04.37.21.965,-0.09200,0.02200,0.99800,0.03500,-0.29800,4.65500,0.52700,0.49600,-1.31400,79.62000,-0.22000
041225_04.37.21.976,-0.08900,0.02500,1.00300,0.05300,-0.35000,4.65500,0.52500,0.49700,-1.31800,79.58000,-0.04000
041225_04.37.21.988,-0.10200,0.02800,0.99700,0.00000,-0.31500,4.62000,0.52500,0.49700,-1.31800,80.06000,0.48000
041225_04.37.21.999,-0.09000,0.02700,0.98800,-0.01800,-0.33300,4.60200,0.52000,0.49600,-1.32000,79.42000,-0.64000
041225_04.37.22.011,-0.08400,0.03000,0.98900,0.00000,-0.29800,4.60200,0.51500,0.49700,-1.31300,80.09000,0.67000
041225_04.37.22.022,-0.09000,0.02800,0.98400,0.07000,-0.26200,4.58500,0.51800,0.49200,-1.31300,79.81000,-0.28000
041225_04.37.22.034,-0.09200,0.02300,0.99600,0.07000,-0.31500,4.60200,0.51600,0.49300,-1.31400,80.04000,0.23000
041225_04.37.22.046,-0.09300,0.02300,0.98600,0.12300,-0.21000,4.58500,0.51600,0.49300,-1.31400,79.63000,-0.41000
041225_04.37.22.057,-0.09300,0.02900,0.99100,0.08700,-0.28000,4.60200,0.51200,0.49200,-1.31000,79.71000,0.08000
041225_04.37.22.069,-0.09600,0.02700,0.96900,0.08700,-0.28000,4.58500,0.50900,0.49400,-1.31200,79.63000,-0.08000
041225_04.37.22.081,-0.09700,0.02900,0.99800,0.14000,-0.24500,4.60200,0.50800,0.49200,-1.31400,79.95000,0.32000
041225_04.37.22.092,-0.08100,0.03300,0.99800,0.14000,-0.08700,4.58500,0.50800,0.49200,-1.31200,79.21000,-0.74000
041225_04.37.22.104,-0.10400,0.03100,1.01000,0.07000,-0.17500,4.56800,0.50800,0.49000,-1.31200,80.10000,0.89000
041225_04.37.22.115,-0.08300,0.02100,1.01300,0.05300,-0.28000,4.58500,0.50800,0.49300,-1.31800,79.73000,-0.37000
041225_04.37.22.127,-0.07600,0.02400,0.98200,0.05300,-0.19200,4.58500,0.50400,0.49100,-1.31000,80.74000,1.01000
041225_04.37.22.138,-0.07400,0.02700,1.01500,0.05300,-0.10500,4.56800,0.50500,0.49200,-1.31600,80.12000,-0.62000
041225_04.37.22.150,-0.09800,0.02200,1.00400,0.07000,0.00000,4.58500,0.50500,0.49200,-1.31600,79.66000,-0.46000
041225_04.37.22.162,-0.10100,0.02800,1.02300,0.05300,-0.21000,4.58500,0.51000,0.48600,-1.31400,79.43000,-0.23000
041225_04.37.22.173,-0.08400,0.02700,1.00100,0.01800,-0.19200,4.60200,0.51400,0.48400,-1.31800,79.97000,0.54000
041225_04.37.22.185,-0.08300,0.03300,1.00400,-0.01800,-0.22800,4.58500,0.51100,0.48800,-1.31700,79.86000,-0.11000
041225_04.37.22.197,-0.08500,0.03500,1.00700,0.00000,-0.17500,4.56800,0.51400,0.48400,-1.31800,79.26000,-0.60000
041225_04.37.22.208,-0.10100,0.02700,1.00500,-0.01800,-0.24500,4.58500,0.51400,0.48400,-1.31800,79.86000,0.60000
041225_04.37.22.220,-0.08300,0.03200,1.02200,0.00000,-0.29800,4.58500,0.51900,0.48200,-1.32200,79.96000,0.10000
041225_04.37.22.231,-0.08500,0.03000,0.99800,-0.10500,-0.28000,4.53200,0.52200,0.48400,-1.31600,79.37000,-0.59000
041225_04.37.22.243,-0.08800,0.02500,1.00500,-0.17500,-0.26200,4.56800,0.52200,0.48800,-1.31700,79.51000,0.14000
041225_04.37.22.254,-0.09000,0.02400,0.99800,-0.10500,-0.35000,4.56800,0.52200,0.48800,-1.31700,79.36000,-0.15000
041225_04.37.22.266,-0.09200,0.02600,0.99500,-0.03500,-0.42000,4.53200,0.51800,0.48400,-1.31300,79.98000,0.62000
041225_04.37.22.278,-0.08200,0.02700,1.00500,-0.08700,-0.29800,4.51500,0.51900,0.48400,-1.31600,80.05000,0.07000
041225_04.37.22.289,-0.11000,0.02600,0.99600,-0.14000,-0.22800,4.48000,0.51700,0.48100,-1.32100,79.15000,-0.90000
041225_04.37.22.301,-0.10200,0.01400,1.01300,-0.14000,-0.36800,4.48000,0.51500,0.48100,-1.31500,79.62000,0.47000
041225_04.37.22.312,-0.10700,0.02200,0.99800,-0.03500,-0.38500,4.46300,0.51500,0.48100,-1.31500,79.27000,-0.35000
041225_04.37.22.324,-0.08100,0.03700,0.99900,-0.03500,-0.35000,4.42800,0.51400,0.48000,-1.31200,79.73000,0.46000
041225_04.37.22.336,-0.09100,0.03500,1.00100,-0.12300,-0.26200,4.39200,0.51500,0.47700,-1.31300,80.58000,0.85000
041225_04.37.22.347,-0.10000,0.02200,1.00900,-0.17500,-0.31500,4.39200,0.51200,0.48300,-1.30900,80.12000,-0.46000
041225_04.37.22.359,-0.09100,0.02500,0.99100,-0.10500,-0.33300,4.37500,0.51200,0.48900,-1.30400,79.23000,-0.89000
041225_04.37.22.370,-0.08100,0.02500,0.99600,-0.08700,-0.28000,4.32300,0.50700,0.48900,-1.30400,79.22000,-0.01000
041225_04.37.22.382,-0.09300,0.02800,0.99400,-0.12300,-0.17500,4.30500,0.50900,0.48200,-1.31400,79.44000,0.22000
041225_04.37.22.394,-0.10100,0.02300,0.99800,-0.08700,-0.19200,4.27000,0.51000,0.48000,-1.30800,79.61000,0.17000
041225_04.37.22.405,-0.08100,0.03500,0.98700,-0.03500,-0.28000,4.21800,0.50800,0.48000,-1.31700,79.79000,0.18000
041225_04.37.22.417,-0.07400,0.01600,0.99200,-0.05300,-0.15700,4.20000,0.50800,0.48000,-1.31700,80.07000,0.28000
041225_04.37.22.428,-0.10300,0.01600,1.00500,0.01800,-0.10500,4.18200,0.51200,0.47900,-1.31900,79.88000,-0.19000
041225_04.37.22.440,-0.07000,0.01100,0.99300,0.05300,-0.24500,4.16500,0.51300,0.47400,-1.31600,79.54000,-0.34000
041225_04.37.22.451,-0.08200,0.03300,0.99400,0.10500,-0.22800,4.13000,0.51100,0.47300,-1.31900,79.63000,0.09000
041225_04.37.22.463,-0.07900,0.03800,0.99200,0.00000,-0.15700,4.11300,0.51800,0.47200,-1.32000,79.75000,0.12000
041225_04.37.22.475,-0.08100,0.02900,0.97600,-0.01800,-0.14000,4.09500,0.51800,0.47200,-1.32000,80.30000,0.55000
041225_04.37.22.486,-0.08900,0.02400,1.00300,0.05300,-0.17500,4.07700,0.51700,0.47200,-1.31700,79.62000,-0.68000
041225_04.37.22.498,-0.06900,0.01800,0.99000,0.08700,-0.10500,4.07700,0.52000,0.47700,-1.32400,79.48000,-0.14000
041225_04.37.22.509,-0.08400,0.03400,0.99800,0.14000,-0.07000,4.02500,0.52200,0.47400,-1.31000,79.71000,0.23000
041225_04.37.22.520,-0.08700,0.03000,1.00300,0.01800,-0.08700,3.99000,0.52200,0.47400,-1.31000,79.78000,0.07000
041225_04.37.22.532,-0.08500,0.02000,0.97900,-0.01800,-0.12300,3.97300,0.52200,0.47000,-1.31700,79.62000,-0.16000
041225_04.37.22.543,-0.08300,0.02700,0.99900,0.12300,-0.21000,3.95500,0.52800,0.47700,-1.31800,79.73000,0.11000
041225_04.37.22.555,-0.06600,0.02800,0.97800,0.17500,-0.15700,3.95500,0.52900,0.47000,-1.31500,79.53000,-0.20000
041225_04.37.22.566,-0.08500,0.01800,1.00400,0.12300,-0.22800,3.90200,0.52000,0.47300,-1.32000,79.59000,0.06000
041225_04.37.22.578,-0.09100,0.02000,0.99900,0.14000,-0.31500,3.86800,0.52000,0.47300,-1.32000,79.93000,0.34000
041225_04.37.22.589,-0.07000,0.03500,1.00500,0.07000,-0.40300,3.79800,0.52000,0.46900,-1.30800,79.95000,0.02000
041225_04.37.22.600,-0.07900,0.03100,0.98300,0.05300,-0.22800,3.81500,0.52100,0.47000,-1.30600,79.57000,-0.38000
041225_04.37.22.612,-0.08100,0.02900,1.01400,0.05300,-0.26200,3.81500,0.51900,0.46800,-1.30900,79.04000,-0.53000
041225_04.37.22.623,-0.09500,0.02600,1.00900,0.08700,-0.29800,3.78000,0.51400,0.47100,-1.31100,79.69000,0.65000
041225_04.37.22.635,-0.05900,0.03400,1.00100,0.01800,-0.38500,3.74500,0.51400,0.47100,-1.31100,79.51000,-0.18000
041225_04.37.22.646,-0.09000,0.02800,0.99800,-0.03500,-0.21000,3.71000,0.50800,0.46700,-1.31200,80.09000,0.58000
041225_04.37.22.658,-0.08300,0.02200,0.99800,-0.03500,-0.21000,3.69300,0.50800,0.46500,-1.30800,79.47000,-0.62000
041225_04.37.22.669,-0.09100,0.03300,0.99800,0.03500,-0.24500,3.65800,0.50700,0.46900,-1.31200,79.59000,0.12000
041225_04.37.22.680,-0.07400,0.03200,0.99700,0.05300,-0.22800,3.64000,0.50700,0.46900,-1.31200,79.77000,0.18000
041225_04.37.22.692,-0.07700,0.03100,0.99500,0.00000,-0.15700,3.60500,0.50600,0.46700,-1.31700,78.88000,-0.89000
041225_04.37.22.703,-0.08500,0.01900,1.01600,-0.03500,-0.08700,3.57000,0.50300,0.46700,-1.30800,79.52000,0.64000
041225_04.37.22.715,-0.07700,0.02200,1.00300,-0.05300,-0.08700,3.53500,0.50700,0.46600,-1.31300,79.73000,0.21000
041225_04.37.22.726,-0.08900,0.03400,1.01000,-0.05300,-0.21000,3.50000,0.50900,0.46400,-1.31600,80.22000,0.49000
041225_04.37.22.738,-0.06500,0.02700,0.98600,-0.03500,-0.12300,3.48300,0.50900,0.46400,-1.31600,80.34000,0.12000
041225_04.37.22.749,-0.08200,0.02700,1.01000,-0.05300,-0.03500,3.46500,0.51200,0.46700,-1.31500,79.78000,-0.56000
041225_04.37.22.761,-0.08100,0.02000,0.99800,-0.03500,-0.10500,3.44700,0.51500,0.46500,-1.31700,79.39000,-0.39000
041225_04.37.22.772,-0.06400,0.02600,1.01200,-0.05300,-0.21000,3.43000,0.51400,0.46800,-1.31800,79.50000,0.11000
041225_04.37.22.784,-0.06800,0.03300,0.99700,-0.03500,-0.03500,3.41200,0.51400,0.46800,-1.32500,79.40000,-0.10000
041225_04.37.22.796,-0.07500,0.02500,1.00400,-0.12300,-0.10500,3.37800,0.51700,0.46500,-1.32500,79.85000,0.45000
041225_04.37.22.807,-0.06900,0.02500,1.01100,-0.05300,-0.07000,3.39500,0.52400,0.46900,-1.32300,80.11000,0.26000
041225_04.37.22.818,-0.06500,0.02600,1.00700,0.01800,-0.05300,3.41200,0.51900,0.46500,-1.32200,79.81000,-0.30000
041225_04.37.22.830,-0.07200,0.03000,1.02100,-0.05300,-0.07000,3.36000,0.51700,0.46300,-1.32200,79.76000,-0.05000
041225_04.37.22.841,-0.06700,0.02300,1.00800,-0.12300,0.01800,3.34200,0.51700,0.46300,-1.32200,79.46000,-0.30000
041225_04.37.22.853,-0.06300,0.02800,1.01200,-0.07000,0.01800,3.32500,0.51700,0.46200,-1.31900,79.46000,0.00000
041225_04.37.22.864,-0.07100,0.02300,1.00800,-0.08700,-0.01800,3.30800,0.51700,0.46500,-1.31700,79.14000,-0.32000
041225_04.37.22.875,-0.07600,0.02200,0.99800,-0.07000,0.03500,3.27300,0.51400,0.46300,-1.31600,79.71000,0.57000
041225_04.37.22.887,-0.07200,0.03000,1.01700,-0.03500,-0.03500,3.29000,0.50900,0.46400,-1.31400,79.59000,-0.12000
041225_04.37.22.898,-0.06200,0.02300,1.00000,-0.07000,-0.14000,3.27300,0.50900,0.46400,-1.31400,79.26000,-0.33000
041225_04.37.22.910,-0.07000,0.02700,0.99900,-0.07000,-0.07000,3.25500,0.51300,0.46300,-1.31100,79.61000,0.35000
041225_04.37.22.921,-0.07700,0.02500,1.00700,-0.01800,-0.07000,3.23700,0.50800,0.46400,-1.30600,79.71000,0.10000
041225_04.37.22.933,-0.07900,0.02700,1.01300,-0.01800,-0.14000,3.22000,0.50400,0.46500,-1.30500,79.38000,-0.33000
041225_04.37.22.944,-0.08600,0.02400,1.00100,-0.07000,-0.15700,3.20300,0.50400,0.46500,-1.30500,80.04000,0.66000
041225_04.37.22.956,-0.07000,0.02500,1.00200,-0.05300,-0.19200,3.16800,0.50100,0.46200,-1.31200,79.95000,-0.09000
041225_04.37.22.968,-0.06700,0.02700,0.98900,-0.01800,-0.12300,3.15000,0.51100,0.45900,-1.30700,78.94000,-1.01000
041225_04.37.22.979,-0.08200,0.02500,1.00600,0.00000,-0.17500,3.13200,0.51400,0.46100,-1.30800,79.79000,0.85000
041225_04.37.22.991,-0.07700,0.02500,0.99500,-0.03500,-0.14000,3.09800,0.51300,0.46100,-1.31200,80.09000,0.30000
041225_04.37.23.002,-0.08600,0.02200,0.99800,0.01800,-0.22800,3.09800,0.51300,0.46100,-1.31200,79.36000,-0.73000
041225_04.37.23.014,-0.07000,0.01300,0.99500,-0.01800,-0.22800,3.04500,0.51500,0.45600,-1.31300,79.82000,0.46000
041225_04.37.23.026,-0.07700,0.02700,0.98900,0.07000,-0.17500,3.02700,0.51900,0.45700,-1.31000,80.04000,0.22000
041225_04.37.23.037,-0.07600,0.02500,0.99900,0.01800,-0.15700,3.02700,0.52600,0.45300,-1.30900,79.88000,-0.16000
041225_04.37.23.049,-0.08200,0.02500,0.99000,0.03500,-0.15700,2.99300,0.52600,0.46000,-1.30900,79.82000,-0.06000
041225_04.37.23.060,-0.07100,0.02400,1.00300,0.01800,-0.17500,2.99300,0.52800,0.46000,-1.30900,79.88000,0.06000
041225_04.37.23.072,-0.07800,0.01800,0.98100,0.08700,-0.17500,2.92200,0.52400,0.46200,-1.31500,79.23000,-0.65000
041225_04.37.23.084,-0.06900,0.02500,0.99700,0.03500,-0.07000,2.88800,0.52900,0.45800,-1.31000,79.87000,0.64000
041225_04.37.23.095,-0.07500,0.02500,0.99600,0.05300,-0.08700,2.83500,0.53000,0.45600,-1.31300,79.25000,-0.62000
041225_04.37.23.107,-0.08100,0.02900,0.99700,0.05300,-0.10500,2.80000,0.53000,0.45600,-1.31300,79.18000,-0.07000
041225_04.37.23.118,-0.06500,0.02300,0.98800,0.07000,-0.15700,2.78300,0.53300,0.45900,-1.30800,79.17000,-0.01000
041225_04.37.23.130,-0.07400,0.03100,0.99400,0.08700,-0.15700,2.74700,0.52500,0.45700,-1.31200,79.45000,0.28000
041225_04.37.23.141,-0.07900,0.02000,0.99300,0.07000,-0.12300,2.71300,0.52500,0.45600,-1.31000,79.98000,0.53000
041225_04.37.23.153,-0.06100,0.02600,0.99700,0.08700,-0.21000,2.67800,0.52300,0.45400,-1.31000,79.28000,-0.70000
041225_04.37.23.164,-0.07000,0.02200,1.00600,0.03500,-0.28000,2.66000,0.52300,0.45400,-1.31000,80.09000,0.81000
041225_04.37.23.176,-0.07600,0.02100,0.99100,0.03500,-0.31500,2.62500,0.51800,0.45700,-1.30500,79.57000,-0.52000
041225_04.37.23.187,-0.06900,0.02200,1.01100,0.03500,-0.47200,2.60800,0.51800,0.45300,-1.31100,79.91000,0.34000
041225_04.37.23.199,-0.05300,0.02900,0.98700,0.05300,-0.42000,2.55500,0.51400,0.45500,-1.31200,80.23000,0.32000
041225_04.37.23.211,-0.07400,0.03000,1.00800,0.01800,-0.43700,2.52000,0.51400,0.45500,-1.31200,79.75000,-0.48000
041225_04.37.23.222,-0.07100,0.01800,0.99500,-0.08700,-0.43700,2.48500,0.51400,0.45200,-1.31400,79.83000,0.08000
041225_04.37.23.234,-0.06900,0.02400,0.99400,0.03500,-0.47200,2.41500,0.51000,0.45200,-1.30400,79.73000,-0.10000
041225_04.37.23.245,-0.07000,0.03400,0.97000,-0.01800,-0.49000,2.38000,0.51100,0.45500,-1.31400,79.22000,-0.51000
041225_04.37.23.257,-0.07100,0.02000,1.00000,0.00000,-0.45500,2.36200,0.51100,0.45400,-1.30400,79.76000,0.54000
041225_04.37.23.268,-0.07100,0.01900,0.99600,0.05300,-0.40300,2.32800,0.51100,0.45400,-1.30400,79.94000,0.18000
041225_04.37.23.280,-0.06300,0.02600,0.99600,0.08700,-0.45500,2.29300,0.51400,0.45100,-1.30800,79.35000,-0.59000
041225_04.37.23.291,-0.06100,0.02400,1.00100,0.05300,-0.42000,2.25700,0.51200,0.45000,-1.31500,80.27000,0.92000
041225_04.37.23.303,-0.06100,0.02500,0.99100,0.07000,-0.35000,2.24000,0.51800,0.45000,-1.31200,79.86000,-0.41000
041225_04.37.23.315,-0.06200,0.02800,0.99300,0.05300,-0.33300,2.18800,0.51700,0.45100,-1.31400,79.27000,-0.59000
041225_04.37.23.326,-0.06100,0.02200,0.99200,0.03500,-0.35000,2.18800,0.51700,0.45100,-1.31400,80.11000,0.84000
041225_04.37.23.338,-0.05000,0.01500,0.99200,0.07000,-0.26200,2.17000,0.52100,0.45100,-1.31400,79.50000,-0.61000
041225_04.37.23.349,-0.05000,0.02600,1.00000,0.12300,-0.22800,2.13500,0.52200,0.44600,-1.31100,79.95000,0.45000
041225_04.37.23.361,-0.05900,0.02100,0.98700,0.08700,-0.19200,2.11800,0.52200,0.45100,-1.31200,79.80000,-0.15000
041225_04.37.23.372,-0.05000,0.02200,0.99800,0.08700,-0.17500,2.08200,0.52200,0.45100,-1.31200,80.33000,0.53000
041225_04.37.23.384,-0.05500,0.02900,0.99600,0.12300,-0.15700,2.08200,0.52900,0.45500,-1.31700,79.84000,-0.49000
041225_04.37.23.396,-0.04000,0.01900,0.98800,0.08700,-0.15700,2.04700,0.52500,0.44900,-1.30500,79.54000,-0.30000
041225_04.37.23.407,-0.04900,0.02000,1.00300,0.21000,-0.07000,2.04700,0.51900,0.44800,-1.31300,79.42000,-0.12000
041225_04.37.23.419,-0.02700,0.03400,1.01500,0.24500,-0.12300,2.01300,0.52100,0.44800,-1.31300,79.57000,0.15000
041225_04.37.23.431,-0.03900,0.03000,1.00400,0.14000,-0.15700,2.01300,0.52100,0.44800,-1.31300,79.59000,0.02000
041225_04.37.23.442,-0.05100,0.01700,0.99700,0.08700,-0.19200,1.99500,0.52400,0.45100,-1.31100,79.48000,-0.11000
041225_04.37.23.454,-0.01600,0.01500,1.01000,0.19200,-0.19200,1.99500,0.51600,0.45000,-1.31300,79.43000,-0.05000
041225_04.37.23.465,-0.03700,0.01600,1.00800,0.28000,-0.10500,1.99500,0.51100,0.45100,-1.30900,79.39000,-0.04000
041225_04.37.23.477,-0.04700,0.02700,1.03000,0.26200,-0.19200,1.97700,0.51100,0.45100,-1.30900,79.41000,0.02000
041225_04.37.23.488,-0.04600,0.03100,0.99900,0.15700,-0.15700,1.96000,0.51700,0.44600,-1.30600,79.14000,-0.27000
041225_04.37.23.500,-0.04800,0.03200,1.00500,0.17500,-0.31500,1.96000,0.51900,0.44800,-1.30300,79.45000,0.31000
041225_04.37.23.512,-0.03200,0.02700,0.97200,0.17500,-0.17500,1.94200,0.50900,0.44800,-1.31000,79.77000,0.32000
041225_04.37.23.523,-0.04400,0.02000,1.00100,0.29800,-0.08700,1.94200,0.51100,0.44600,-1.30700,79.20000,-0.57000
041225_04.37.23.535,-0.05000,0.01600,1.02000,0.28000,-0.07000,1.92500,0.51100,0.44600,-1.30700,79.65000,0.45000
041225_04.37.23.547,-0.05800,0.02300,1.01700,0.29800,-0.15700,1.89000,0.51300,0.44700,-1.29900,80.26000,0.61000
041225_04.37.23.558,-0.04900,0.03900,1.00500,0.22800,-0.15700,1.87300,0.51500,0.44900,-1.30300,80.21000,-0.05000
041225_04.37.23.570,-0.03900,0.02600,0.97800,0.10500,4.37500,1.83700,0.51600,0.45000,-1.31200,80.36000,0.15000
041225_04.37.23.581,-0.05600,0.02400,1.01000,0.26200,0.08700,1.82000,0.52200,0.44600,-1.31400,79.63000,-0.73000
041225_04.37.23.593,-0.04500,0.02400,1.02100,0.26200,0.00000,1.76800,0.52200,0.44600,-1.31400,79.54000,-0.09000
041225_04.37.23.604,-0.07600,0.03200,1.02400,0.19200,0.08700,1.75000,0.51900,0.43900,-1.30900,79.77000,0.23000
041225_04.37.23.616,-0.04200,0.02200,1.01200,0.03500,0.07000,1.71500,0.52600,0.44100,-1.30900,80.19000,0.42000
041225_04.37.23.628,-0.06100,0.03200,1.00600,0.03500,0.08700,1.68000,0.52700,0.44000,-1.30400,79.71000,-0.48000
041225_04.37.23.639,-0.04300,0.02100,0.99500,0.08700,0.10500,1.64500,0.52700,0.44000,-1.30400,80.50000,0.79000
041225_04.37.23.651,-0.06400,0.02900,1.01000,0.15700,0.10500,1.62800,0.52900,0.43700,-1.30900,79.32000,-1.18000
041225_04.37.23.662,-0.05100,0.02400,1.00800,0.07000,0.19200,1.57500,0.53200,0.44100,-1.31100,79.34000,0.02000
041225_04.37.23.674,-0.06100,0.02300,1.00600,0.01800,0.10500,1.50500,0.53000,0.44000,-1.31000,79.80000,0.46000
041225_04.37.23.685,-0.06400,0.02700,1.02000,0.03500,-0.01800,1.50500,0.53100,0.44400,-1.31500,80.21000,0.41000
041225_04.37.23.697,-0.05500,0.02100,0.98500,0.03500,-0.10500,1.47000,0.53100,0.44400,-1.31500,79.34000,-0.87000
041225_04.37.23.708,-0.04100,0.03500,1.00800,0.08700,-0.17500,1.45200,0.52000,0.44100,-1.30600,79.90000,0.56000
041225_04.37.23.720,-0.05300,0.02200,0.99500,0.03500,0.00000,1.43500,0.52300,0.44400,-1.30100,79.93000,0.03000
041225_04.37.23.731,-0.06400,0.02200,1.02700,0.05300,-0.19200,1.41800,0.52600,0.44000,-1.30200,79.36000,-0.57000
041225_04.37.23.743,-0.05400,0.02300,1.00500,0.05300,-0.42000,1.40000,0.52600,0.44000,-1.30500,79.37000,0.01000
041225_04.37.23.755,-0.04900,0.02500,0.99200,-0.03500,-0.31500,1.34700,0.51900,0.44200,-1.30500,79.99000,0.62000
041225_04.37.23.766,-0.04100,0.02100,0.99300,-0.01800,-0.26200,1.34700,0.51500,0.44200,-1.31000,79.71000,-0.28000
041225_04.37.23.778,-0.05000,0.02600,1.00100,0.07000,-0.28000,1.33000,0.51500,0.44300,-1.30400,79.57000,-0.14000
041225_04.37.23.789,-0.04700,0.02100,1.01300,0.12300,-0.29800,1.34700,0.51300,0.44400,-1.29600,79.35000,-0.22000
041225_04.37.23.801,-0.03700,0.03000,0.98900,0.03500,-0.22800,1.29500,0.51300,0.44400,-1.29600,79.49000,0.14000
041225_04.37.23.813,-0.05600,0.02200,0.98800,-0.03500,-0.10500,1.24200,0.51000,0.44200,-1.30600,79.86000,0.37000
041225_04.37.23.824,-0.04200,0.01900,0.98600,-0.03500,-0.03500,1.26000,0.50900,0.44700,-1.30800,79.93000,0.07000
041225_04.37.23.836,-0.04000,0.02100,0.99100,0.10500,-0.05300,1.29500,0.50400,0.44100,-1.31200,80.02000,0.09000
041225_04.37.23.847,-0.04200,0.02500,0.98700,0.17500,0.00000,1.26000,0.50900,0.43600,-1.30800,79.16000,-0.86000
041225_04.37.23.859,-0.03800,0.02100,0.98100,0.12300,0.12300,1.22500,0.50900,0.43600,-1.30800,79.66000,0.50000
041225_04.37.23.870,-0.03700,0.02400,0.99300,0.07000,0.15700,1.22500,0.51000,0.43600,-1.31000,79.30000,-0.36000
041225_04.37.23.882,-0.04800,0.02000,1.00200,0.14000,0.12300,1.20700,0.51600,0.43900,-1.31300,79.51000,0.21000
041225_04.37.23.893,-0.04500,0.02400,0.97700,0.19200,0.08700,1.19000,0.51700,0.43700,-1.31400,79.69000,0.18000
041225_04.37.23.905,-0.03300,0.02800,1.00100,0.21000,0.01800,1.17300,0.51700,0.43700,-1.31400,79.75000,0.06000
041225_04.37.23.916,-0.03200,0.02400,0.99200,0.19200,-0.03500,1.15500,0.51200,0.43400,-1.31000,79.64000,-0.11000
041225_04.37.23.928,-0.05900,0.03000,0.99800,0.19200,-0.03500,1.17300,0.52300,0.43400,-1.31300,79.86000,0.22000
041225_04.37.23.939,-0.02900,0.02500,0.99500,0.14000,-0.22800,1.15500,0.52300,0.43900,-1.30900,79.74000,-0.12000
041225_04.37.23.951,-0.05000,0.02500,0.99800,0.14000,-0.22800,1.15500,0.52300,0.43600,-1.31400,79.01000,-0.73000
041225_04.37.23.962,-0.03500,0.01900,0.98800,0.15700,-0.22800,1.15500,0.52300,0.43600,-1.31400,80.00000,0.99000
041225_04.37.23.974,-0.04800,0.03000,1.01000,0.24500,-0.33300,1.13800,0.51800,0.43600,-1.30300,80.10000,0.10000
041225_04.37.23.985,-0.03500,0.02900,1.00600,0.19200,-0.42000,1.13800,0.51600,0.43700,-1.30400,79.89000,-0.21000
041225_04.37.23.997,-0.04100,0.01800,0.99500,0.10500,-0.42000,1.08500,0.52000,0.44200,-1.30300,79.58000,-0.31000
041225_04.37.24.008,-0.04400,0.02500,1.00700,0.14000,-0.38500,1.06700,0.52000,0.43700,-1.31000,79.85000,0.27000
041225_04.37.24.020,-0.03500,0.02100,0.99100,0.15700,-0.33300,1.06700,0.52100,0.43700,-1.31000,80.13000,0.28000
041225_04.37.24.031,-0.04900,0.03200,1.02100,0.22800,-0.38500,1.05000,0.51600,0.44100,-1.30500,80.00000,-0.13000
041225_04.37.24.043,-0.04700,0.02500,0.98800,0.08700,-0.26200,1.03300,0.51300,0.43200,-1.30500,79.92000,-0.08000
041225_04.37.24.055,-0.03600,0.02500,1.00800,0.10500,-0.29800,0.99800,0.51500,0.43700,-1.30000,79.44000,-0.48000
041225_04.37.24.066,-0.04500,0.02600,1.00100,0.10500,-0.19200,1.01500,0.51500,0.43700,-1.30000,79.46000,0.02000
041225_04.37.24.078,-0.04600,0.02200,1.00000,0.10500,-0.19200,0.98000,0.51100,0.43500,-1.30500,79.54000,0.08000
041225_04.37.24.089,-0.04000,0.02500,0.99800,0.10500,-0.12300,0.98000,0.50700,0.43400,-1.30600,79.70000,0.16000
041225_04.37.24.101,-0.04500,0.02500,1.03200,0.08700,-0.14000,0.96200,0.50700,0.43400,-1.30700,79.97000,0.27000
041225_04.37.24.112,-0.05700,0.02800,1.00100,0.05300,-0.07000,0.92800,0.50800,0.43100,-1.30500,80.13000,0.16000
041225_04.37.24.124,-0.03500,0.02500,1.00500,0.01800,-0.17500,0.92800,0.50800,0.43100,-1.30500,80.07000,-0.06000
041225_04.37.24.135,-0.04300,0.02900,1.02000,0.10500,-0.10500,0.92800,0.51400,0.43400,-1.30400,79.87000,-0.20000
041225_04.37.24.147,-0.02200,0.02700,1.01200,0.05300,-0.15700,0.92800,0.52000,0.43100,-1.30800,79.62000,-0.25000
041225_04.37.24.159,-0.04700,0.01500,1.02000,0.01800,-0.14000,0.92800,0.51900,0.43100,-1.30500,80.20000,0.58000
041225_04.37.24.170,-0.03600,0.01500,1.02000,0.03500,-0.07000,0.91000,0.51900,0.43100,-1.30500,80.12000,-0.08000
041225_04.37.24.182,-0.04700,0.02300,1.02300,0.01800,-0.14000,0.87500,0.52100,0.43100,-1.30400,79.66000,-0.46000
041225_04.37.24.193,-0.03100,0.02100,1.01800,0.01800,-0.15700,0.87500,0.52000,0.43400,-1.30700,79.19000,-0.47000
041225_04.37.24.205,-0.02300,0.01900,1.00100,-0.03500,-0.12300,0.85800,0.52300,0.43400,-1.30400,79.78000,0.59000
041225_04.37.24.216,-0.03600,0.02500,1.01600,0.05300,-0.08700,0.85800,0.51900,0.43300,-1.30500,80.01000,0.23000
041225_04.37.24.228,-0.01900,0.01600,1.00900,0.05300,-0.07000,0.84000,0.51900,0.43300,-1.30500,79.42000,-0.59000
041225_04.37.24.240,-0.04700,0.02900,1.01500,0.07000,-0.08700,0.84000,0.52100,0.43400,-1.30500,79.74000,0.32000
041225_04.37.24.251,-0.03000,0.02500,1.00600,0.05300,-0.17500,0.80500,0.51600,0.43200,-1.29900,80.22000,0.48000
041225_04.37.24.263,-0.01000,0.02200,1.00100,0.08700,-0.12300,0.82200,0.51900,0.43100,-1.30000,79.15000,-1.07000
041225_04.37.24.274,-0.04200,0.01900,0.99500,0.10500,-0.10500,0.82200,0.51500,0.43700,-1.30000,80.32000,1.17000
041225_04.37.24.286,-0.02000,0.02400,1.00900,0.10500,-0.14000,0.80500,0.51500,0.43700,-1.30000,79.77000,-0.55000
041225_04.37.24.297,-0.04500,0.02400,0.99800,0.10500,-0.10500,0.78800,0.52000,0.43700,-1.29800,79.74000,-0.03000
041225_04.37.24.309,-0.03300,0.02600,1.00700,0.10500,-0.15700,0.78800,0.51500,0.43800,-1.29600,80.37000,0.63000
041225_04.37.24.321,-0.03300,0.02900,0.97900,0.07000,-0.08700,0.77000,0.50700,0.44000,-1.29400,79.85000,-0.52000
041225_04.37.24.332,-0.01300,0.02400,1.01300,0.07000,-0.10500,0.80500,0.50700,0.44000,-1.29400,79.99000,0.14000
041225_04.37.24.344,-0.04400,0.01900,0.98800,0.10500,0.01800,0.80500,0.50100,0.43500,-1.29600,79.65000,-0.34000
041225_04.37.24.355,-0.03600,0.02900,1.00500,0.14000,-0.10500,0.80500,0.50100,0.43400,-1.29300,80.04000,0.39000
041225_04.37.24.367,-0.02700,0.02300,0.97300,0.03500,0.01800,0.77000,0.49900,0.43300,-1.29600,79.76000,-0.28000
041225_04.37.24.378,-0.02100,0.02200,0.99200,0.03500,0.07000,0.77000,0.49900,0.43200,-1.30100,80.16000,0.40000
041225_04.37.24.390,-0.04600,0.01800,0.99900,0.03500,0.15700,0.78800,0.49900,0.43200,-1.30100,78.93000,-1.23000
041225_04.37.24.402,-0.04200,0.02500,0.99500,0.12300,0.07000,0.80500,0.49800,0.43700,-1.30200,80.06000,1.13000
041225_04.37.24.413,-0.03000,0.02500,0.99900,0.05300,0.10500,0.78800,0.50400,0.43600,-1.30000,80.10000,0.04000
041225_04.37.24.425,-0.02400,0.03500,0.97200,-0.03500,0.10500,0.77000,0.50700,0.43100,-1.29800,79.76000,-0.34000
041225_04.37.24.436,-0.05500,0.02800,1.00400,0.01800,0.01800,0.78800,0.50700,0.43100,-1.30400,79.45000,-0.31000
041225_04.37.24.448,-0.03600,0.01700,0.98600,-0.01800,-0.01800,0.82200,0.50600,0.43400,-1.30400,79.62000,0.17000
041225_04.37.24.459,-0.03100,0.01200,1.00100,0.01800,-0.05300,0.82200,0.50700,0.43300,-1.29600,79.68000,0.06000
041225_04.37.24.471,-0.02300,0.01400,1.00000,0.01800,-0.05300,0.82200,0.51300,0.43400,-1.29500,79.86000,0.18000
041225_04.37.24.483,-0.04300,0.02700,0.99600,0.05300,-0.01800,0.82200,0.51500,0.43200,-1.30400,79.26000,-0.60000
041225_04.37.24.494,-0.05300,0.02600,0.98700,-0.03500,-0.05300,0.80500,0.51500,0.43200,-1.30400,79.14000,-0.12000
041225_04.37.24.506,-0.02600,0.02600,0.98300,-0.01800,-0.12300,0.84000,0.51600,0.43600,-1.29900,79.09000,-0.05000
041225_04.37.24.517,-0.02600,0.01600,0.98700,0.05300,-0.01800,0.84000,0.52000,0.43400,-1.30400,79.14000,0.05000
041225_04.37.24.529,-0.05200,0.01500,1.00400,0.10500,0.03500,0.84000,0.51800,0.43400,-1.30300,79.56000,0.42000
041225_04.37.24.541,-0.03500,0.01400,1.01400,0.07000,0.03500,0.84000,0.51300,0.43500,-1.30200,79.85000,0.29000
041225_04.37.24.552,-0.03400,0.02800,1.00300,0.10500,-0.03500,0.82200,0.51300,0.43500,-1.30200,79.49000,-0.36000
041225_04.37.24.564,-0.02700,0.02800,1.00300,0.03500,-0.10500,0.82200,0.50800,0.43500,-1.29200,78.61000,-0.88000
041225_04.37.24.575,-0.05200,0.02400,0.98500,0.00000,0.01800,0.82200,0.51000,0.43700,-1.29700,79.38000,0.77000
041225_04.37.24.587,-0.04200,0.02200,1.00200,0.14000,0.01800,0.84000,0.51200,0.43500,-1.29000,79.29000,-0.09000
041225_04.37.24.598,-0.03000,0.02100,1.01200,0.12300,-0.05300,0.85800,0.51200,0.43500,-1.29000,79.65000,0.36000
041225_04.37.24.610,-0.03200,0.02900,1.00300,0.00000,-0.03500,0.84000,0.51100,0.43400,-1.29100,79.97000,0.32000
041225_04.37.24.621,-0.04500,0.02800,0.98500,-0.05300,0.03500,0.78800,0.50600,0.43700,-1.28900,79.32000,-0.65000
041225_04.37.24.633,-0.04800,0.02100,0.99300,0.01800,-0.03500,0.78800,0.50600,0.43600,-1.29700,79.49000,0.17000
041225_04.37.24.644,-0.04900,0.01500,1.00200,0.08700,-0.12300,0.82200,0.49900,0.43700,-1.29500,79.46000,-0.03000
041225_04.37.24.656,-0.03700,0.02700,0.98800,0.14000,-0.10500,0.78800,0.49900,0.43700,-1.29500,79.75000,0.29000
041225_04.37.24.667,-0.04200,0.01700,1.01400,0.03500,-0.12300,0.75200,0.50200,0.43500,-1.30200,79.47000,-0.28000
041225_04.37.24.679,-0.05000,0.01700,1.00600,0.03500,-0.17500,0.73500,0.49900,0.43400,-1.29700,80.02000,0.55000
041225_04.37.24.690,-0.04300,0.02000,0.99900,0.10500,-0.24500,0.70000,0.50500,0.43400,-1.29500,79.51000,-0.51000
041225_04.37.24.702,-0.06000,0.02300,0.99800,0.14000,-0.28000,0.70000,0.50500,0.43700,-1.30100,79.91000,0.40000
041225_04.37.24.714,-0.04000,0.01900,0.98900,0.10500,-0.24500,0.68300,0.51100,0.43700,-1.30100,79.24000,-0.67000
041225_04.37.24.725,-0.05100,0.02900,1.01600,0.21000,-0.31500,0.66500,0.50900,0.43300,-1.29900,79.84000,0.60000
041225_04.37.24.737,-0.03100,0.02800,0.99600,0.17500,-0.38500,0.64700,0.51300,0.42800,-1.29600,79.66000,-0.18000
041225_04.37.24.748,-0.04000,0.02500,1.00100,0.10500,-0.40300,0.59500,0.52100,0.43800,-1.29500,79.06000,-0.60000
041225_04.37.24.760,-0.06400,0.01300,1.00600,0.17500,-0.42000,0.59500,0.52100,0.43800,-1.29500,79.87000,0.81000
041225_04.37.24.771,-0.03700,0.03600,0.99900,0.24500,-0.43700,0.59500,0.51900,0.43700,-1.30200,79.09000,-0.78000
041225_04.37.24.783,-0.02900,0.02600,0.98200,0.17500,-0.31500,0.56000,0.52100,0.43100,-1.30100,79.39000,0.30000
041225_04.37.24.794,-0.04000,0.01200,1.01500,0.14000,-0.36800,0.57700,0.51700,0.43200,-1.29800,80.09000,0.70000
041225_04.37.24.806,-0.06100,0.02100,0.99600,0.21000,-0.33300,0.54300,0.51700,0.43600,-1.29600,79.58000,-0.51000
041225_04.37.24.818,-0.02700,0.02700,1.00100,0.21000,-0.45500,0.49000,0.51700,0.43600,-1.29600,79.83000,0.25000
041225_04.37.24.829,-0.04200,0.02400,0.99600,0.15700,-0.33300,0.50700,0.51700,0.43400,-1.29400,80.33000,0.50000
041225_04.37.24.841,-0.02400,0.01600,0.99900,0.19200,-0.26200,0.50700,0.51500,0.43700,-1.29800,79.65000,-0.68000
041225_04.37.24.853,-0.03300,0.03100,1.01700,0.21000,-0.31500,0.50700,0.51100,0.43700,-1.29700,79.25000,-0.40000
041225_04.37.24.864,-0.01300,0.02900,1.00300,0.15700,-0.33300,0.52500,0.51100,0.43700,-1.29700,79.90000,0.65000
041225_04.37.24.875,-0.02200,0.02400,0.99300,0.05300,-0.24500,0.50700,0.50600,0.43700,-1.29000,80.13000,0.23000
041225_04.37.24.887,-0.02500,0.01900,1.00700,0.08700,-0.07000,0.50700,0.50700,0.43700,-1.29100,79.76000,-0.37000
041225_04.37.24.898,-0.02600,0.02700,1.00600,0.17500,-0.01800,0.52500,0.50800,0.44000,-1.29600,79.16000,-0.60000
041225_04.37.24.910,-0.00700,0.03500,1.02900,0.15700,-0.10500,0.52500,0.50300,0.43700,-1.29800,79.45000,0.29000
041225_04.37.24.922,-0.02400,0.02300,1.00900,-0.05300,0.07000,0.52500,0.50300,0.43700,-1.29800,79.80000,0.35000
041225_04.37.24.933,-0.00700,0.03400,1.00200,-0.08700,0.14000,0.50700,0.50100,0.43700,-1.29800,79.79000,-0.01000
041225_04.37.24.945,-0.03300,0.02500,1.02200,0.00000,0.03500,0.54300,0.50200,0.43300,-1.29100,80.04000,0.25000
041225_04.37.24.956,-0.01500,0.02700,1.01400,-0.08700,0.10500,0.54300,0.50700,0.43800,-1.29500,79.63000,-0.41000
041225_04.37.24.968,-0.00600,0.02000,1.01600,-0.08700,0.01800,0.57700,0.50400,0.43400,-1.29300,80.28000,0.65000
041225_04.37.24.979,-0.01800,0.03100,1.01800,-0.07000,0.00000,0.56000,0.50400,0.43400,-1.29300,79.76000,-0.52000
041225_04.37.24.991,-0.01800,0.02500,1.00500,-0.17500,0.01800,0.57700,0.51200,0.44300,-1.29900,79.76000,0.00000
041225_04.37.25.002,-0.02100,0.02000,1.00600,-0.21000,0.03500,0.56000,0.51400,0.43600,-1.29300,79.48000,-0.28000
041225_04.37.25.013,-0.02500,0.02000,1.01400,-0.14000,0.01800,0.59500,0.51800,0.43700,-1.29100,79.79000,0.31000
041225_04.37.25.025,-0.01300,0.02700,1.00600,-0.15700,-0.01800,0.59500,0.51800,0.43700,-1.29100,79.68000,-0.11000
041225_04.37.25.036,-0.03100,0.02100,1.00700,-0.21000,0.01800,0.59500,0.51400,0.43900,-1.29000,79.64000,-0.04000
041225_04.37.25.048,-0.01600,0.02200,0.99200,-0.22800,0.07000,0.59500,0.52000,0.43500,-1.29500,79.60000,-0.04000
041225_04.37.25.059,-0.02900,0.02600,1.00100,-0.14000,0.01800,0.57700,0.52500,0.43600,-1.29300,79.26000,-0.34000
041225_04.37.25.070,-0.03500,0.02300,0.99700,-0.10500,0.03500,0.57700,0.52900,0.43400,-1.28800,79.41000,0.15000
041225_04.37.25.082,-0.04000,0.02000,0.98500,-0.12300,0.08700,0.57700,0.52900,0.43400,-1.28800,79.68000,0.27000
041225_04.37.25.094,-0.02100,0.01200,1.00200,0.00000,0.12300,0.57700,0.52500,0.43900,-1.29400,79.68000,0.00000
041225_04.37.25.105,-0.01900,0.01900,1.00400,-0.05300,0.05300,0.54300,0.51700,0.43600,-1.29400,78.95000,-0.73000
041225_04.37.25.117,-0.04900,0.02300,0.98200,-0.07000,0.17500,0.52500,0.52200,0.43600,-1.28400,79.71000,0.76000
041225_04.37.25.128,-0.04400,0.01900,0.98900,-0.05300,0.12300,0.52500,0.52200,0.43600,-1.28300,79.44000,-0.27000
041225_04.37.25.140,-0.05200,0.01200,0.99700,0.01800,0.07000,0.50700,0.52400,0.43400,-1.28300,79.99000,0.55000
041225_04.37.25.151,-0.03300,0.02000,1.01100,0.07000,-0.05300,0.49000,0.52600,0.43700,-1.28600,79.44000,-0.55000
041225_04.37.25.163,-0.03300,0.01700,0.99400,0.05300,0.03500,0.49000,0.51600,0.44100,-1.29000,79.48000,0.04000
041225_04.37.25.174,-0.04600,0.02000,1.00900,0.07000,0.01800,0.43700,0.51800,0.43800,-1.28700,80.41000,0.93000
041225_04.37.25.186,-0.04200,0.02500,0.99000,0.01800,0.01800,0.43700,0.51800,0.43800,-1.28700,80.52000,0.11000
041225_04.37.25.197,-0.04300,0.02200,0.99800,0.07000,-0.07000,0.40300,0.51500,0.43800,-1.28700,79.17000,-1.35000
041225_04.37.25.209,-0.04400,0.01600,0.99000,0.10500,-0.08700,0.40300,0.51400,0.43300,-1.29500,79.44000,0.27000
041225_04.37.25.220,-0.03400,0.01600,0.98900,0.15700,-0.07000,0.38500,0.51100,0.44000,-1.30000,79.91000,0.47000
041225_04.37.25.232,-0.02600,0.01800,1.00100,0.21000,-0.01800,0.35000,0.51700,0.43700,-1.29700,80.09000,0.18000
041225_04.37.25.243,-0.04900,0.02500,1.00600,0.19200,-0.05300,0.36800,0.51700,0.43700,-1.29700,79.15000,-0.94000
041225_04.37.25.255,-0.04800,0.02100,0.98900,0.14000,-0.19200,0.33300,0.51600,0.43600,-1.29700,79.59000,0.44000
041225_04.37.25.266,-0.02100,0.02500,0.98300,0.19200,-0.08700,0.35000,0.52200,0.43500,-1.30000,79.56000,-0.03000
041225_04.37.25.278,-0.03400,0.01800,0.99700,0.24500,-0.05300,0.33300,0.51800,0.43900,-1.29700,79.04000,-0.52000
041225_04.37.25.289,-0.03100,0.02200,1.00300,0.24500,-0.12300,0.33300,0.51800,0.43900,-1.29700,79.95000,0.91000
041225_04.37.25.301,-0.03000,0.02000,0.99000,0.19200,-0.15700,0.33300,0.52100,0.43900,-1.29700,79.60000,-0.35000
041225_04.37.25.313,-0.03400,0.02500,0.98200,0.17500,-0.14000,0.29800,0.51900,0.43700,-1.29000,79.10000,-0.50000
041225_04.37.25.324,-0.03600,0.01800,0.98700,0.14000,-0.07000,0.28000,0.52300,0.43500,-1.30300,79.68000,0.58000
041225_04.37.25.336,-0.02700,0.02200,0.98700,0.22800,0.03500,0.29800,0.52600,0.44000,-1.30500,80.37000,0.69000
041225_04.37.25.347,-0.04000,0.01900,1.01500,0.26200,-0.05300,0.29800,0.52600,0.44000,-1.30500,79.16000,-1.21000
041225_04.37.25.359,-0.02500,0.02700,0.99700,0.24500,-0.03500,0.28000,0.52600,0.43700,-1.30000,79.93000,0.77000
041225_04.37.25.370,-0.03000,0.02600,1.00200,0.19200,-0.10500,0.28000,0.52400,0.43700,-1.29700,79.46000,-0.47000
041225_04.37.25.382,-0.02700,0.02200,1.00700,0.12300,-0.10500,0.28000,0.52600,0.44400,-1.30000,79.33000,-0.13000
041225_04.37.25.394,-0.05500,0.01600,0.99700,0.19200,-0.08700,0.29800,0.52600,0.44000,-1.29500,79.98000,0.65000
041225_04.37.25.405,-0.02300,0.02500,1.00900,0.22800,-0.17500,0.28000,0.52200,0.44000,-1.29500,79.54000,-0.44000
041225_04.37.25.417,-0.03600,0.03200,1.01100,0.21000,-0.10500,0.29800,0.51800,0.44300,-1.30500,79.45000,-0.09000
041225_04.37.25.428,-0.02200,0.02400,1.01600,0.08700,-0.22800,0.29800,0.51400,0.43900,-1.30200,79.78000,0.33000
041225_04.37.25.440,-0.00800,0.01500,0.99500,0.10500,-0.19200,0.28000,0.51400,0.44100,-1.30000,79.21000,-0.57000
041225_04.37.25.451,-0.04700,0.02500,1.00800,0.22800,-0.12300,0.28000,0.51400,0.44100,-1.30000,79.88000,0.67000
041225_04.37.25.463,-0.02100,0.01700,1.00100,0.14000,-0.10500,0.29800,0.51100,0.44000,-1.30500,79.23000,-0.65000
041225_04.37.25.474,-0.03500,0.01900,1.01000,0.19200,-0.14000,0.28000,0.50800,0.43700,-1.30000,79.12000,-0.11000
041225_04.37.25.485,-0.01600,0.02400,1.01200,0.17500,-0.19200,0.26200,0.50900,0.43700,-1.29400,79.57000,0.45000
041225_04.37.25.497,-0.03300,0.01800,0.99200,0.15700,-0.17500,0.28000,0.51000,0.44000,-1.30300,79.03000,-0.54000
041225_04.37.25.508,-0.02400,0.02500,1.01700,0.17500,-0.15700,0.26200,0.51000,0.44000,-1.30300,79.23000,0.20000
041225_04.37.25.520,-0.02000,0.02800,0.99000,0.17500,-0.05300,0.24500,0.51100,0.43800,-1.30000,79.15000,-0.08000
041225_04.37.25.531,-0.02600,0.02100,1.02300,0.17500,-0.15700,0.26200,0.51500,0.43500,-1.29900,79.60000,0.45000
041225_04.37.25.542,-0.02700,0.01400,0.99500,0.14000,-0.08700,0.28000,0.52000,0.43600,-1.30500,79.11000,-0.49000
041225_04.37.25.554,-0.01000,0.02300,1.00900,0.22800,-0.19200,0.29800,0.52000,0.43600,-1.30500,79.55000,0.44000
041225_04.37.25.566,-0.01900,0.02800,1.00200,0.19200,-0.07000,0.26200,0.52100,0.43500,-1.29900,79.49000,-0.06000
041225_04.37.25.577,-0.03900,0.02200,0.99100,0.15700,-0.10500,0.26200,0.52800,0.43400,-1.30600,79.65000,0.16000
041225_04.37.25.588,-0.00900,0.02500,0.98800,0.22800,-0.08700,0.26200,0.52800,0.43900,-1.30400,79.50000,-0.15000
041225_04.37.25.600,-0.02800,0.02400,0.99400,0.21000,-0.10500,0.24500,0.52700,0.43300,-1.30600,79.64000,0.14000
041225_04.37.25.611,-0.03400,0.01300,1.00500,0.22800,0.05300,0.22800,0.52700,0.43300,-1.30600,79.07000,-0.57000
041225_04.37.25.622,-0.02400,0.01100,1.00700,0.21000,-0.05300,0.22800,0.52900,0.43900,-1.31200,79.16000,0.09000
041225_04.37.25.634,-0.02700,0.02800,1.00700,0.24500,-0.05300,0.21000,0.53000,0.43400,-1.30600,79.21000,0.05000
041225_04.37.25.645,-0.02400,0.03400,0.98600,0.19200,0.00000,0.19200,0.53400,0.43600,-1.30900,79.75000,0.54000
041225_04.37.25.657,-0.02500,0.03100,0.99100,0.17500,-0.01800,0.19200,0.52700,0.43900,-1.30900,79.18000,-0.57000
041225_04.37.25.668,-0.02700,0.02000,1.00100,0.22800,0.08700,0.17500,0.52700,0.43900,-1.30900,79.37000,0.19000
041225_04.37.25.679,-0.03200,0.01700,1.00800,0.26200,0.05300,0.15700,0.52200,0.44100,-1.30300,79.77000,0.40000
041225_04.37.25.691,-0.03600,0.01700,1.00500,0.22800,-0.03500,0.14000,0.52300,0.43900,-1.30500,79.43000,-0.34000
041225_04.37.25.702,-0.02600,0.02300,0.99600,0.21000,-0.05300,0.12300,0.51900,0.43800,-1.30800,79.54000,0.11000
041225_04.37.25.714,-0.01300,0.03100,0.99900,0.17500,-0.07000,0.08700,0.51900,0.43800,-1.30800,79.88000,0.34000
041225_04.37.25.725,-0.04100,0.03100,0.99200,0.15700,0.01800,0.07000,0.51600,0.43800,-1.30700,79.81000,-0.07000
041225_04.37.25.736,-0.03700,0.01400,0.98800,0.17500,0.00000,0.08700,0.51600,0.43800,-1.30600,79.51000,-0.30000
041225_04.37.25.748,-0.02200,0.01500,1.00500,0.26200,-0.08700,0.10500,0.51300,0.44000,-1.30600,79.58000,0.07000
041225_04.37.25.759,-0.01800,0.02100,1.01100,0.21000,0.00000,0.03500,0.51300,0.44100,-1.30800,79.17000,-0.41000
041225_04.37.25.771,-0.03700,0.02100,1.00500,0.14000,0.01800,0.03500,0.51300,0.44100,-1.30800,80.08000,0.91000
041225_04.37.25.782,-0.04400,0.01900,1.00100,0.21000,-0.07000,0.01800,0.51100,0.44000,-1.31200,79.39000,-0.69000
041225_04.37.25.793,-0.01500,0.02300,1.00800,0.26200,-0.17500,0.01800,0.51000,0.44500,-1.30500,79.33000,-0.06000
041225_04.37.25.805,-0.04500,0.02100,1.01000,0.22800,-0.07000,0.03500,0.51100,0.44000,-1.31100,79.22000,-0.11000
041225_04.37.25.816,-0.02600,0.02300,1.01500,0.19200,-0.12300,0.00000,0.51100,0.44000,-1.31100,79.01000,-0.21000
041225_04.37.25.828,-0.03900,0.02400,1.00700,0.19200,-0.17500,-0.01800,0.51700,0.44200,-1.31100,79.87000,0.86000
041225_04.37.25.839,-0.02700,0.02200,1.00200,0.17500,-0.28000,0.01800,0.52000,0.44200,-1.30600,79.92000,0.05000
041225_04.37.25.850,-0.03700,0.01700,0.98100,0.22800,-0.14000,0.00000,0.52200,0.44100,-1.31500,79.37000,-0.55000
041225_04.37.25.862,-0.03100,0.02400,1.00600,0.29800,-0.17500,0.03500,0.52600,0.43800,-1.31500,79.22000,-0.15000
041225_04.37.25.873,-0.01900,0.02100,1.00300,0.29800,-0.14000,0.03500,0.52600,0.43800,-1.31500,79.51000,0.29000
041225_04.37.25.885,-0.03100,0.03000,1.01900,0.28000,-0.15700,0.03500,0.52500,0.43600,-1.31100,79.64000,0.13000
041225_04.37.25.896,-0.03700,0.01600,1.00100,0.14000,-0.07000,0.01800,0.52500,0.43900,-1.31100,79.61000,-0.03000
041225_04.37.25.907,-0.02500,0.02300,1.01100,0.22800,-0.10500,0.01800,0.52500,0.44100,-1.31900,79.69000,0.08000
041225_04.37.25.919,-0.01500,0.02100,1.00200,0.21000,-0.12300,0.03500,0.52600,0.43900,-1.31100,79.61000,-0.08000
041225_04.37.25.930,-0.03000,0.02200,1.01200,0.21000,0.00000,0.03500,0.52600,0.43900,-1.31100,79.13000,-0.48000
041225_04.37.25.942,-0.02900,0.03100,1.02200,0.12300,-0.05300,0.05300,0.52500,0.43800,-1.30600,79.35000,0.22000
041225_04.37.25.953,-0.01800,0.02400,1.00300,0.10500,-0.10500,0.07000,0.52400,0.44100,-1.31200,79.23000,-0.12000
041225_04.37.25.965,-0.02200,0.01800,1.01100,0.07000,-0.10500,0.08700,0.52200,0.44100,-1.30800,79.84000,0.61000
041225_04.37.25.976,-0.01700,0.02200,1.00500,0.10500,-0.05300,0.10500,0.52200,0.44100,-1.30800,79.61000,-0.23000
041225_04.37.25.987,-0.02500,0.03400,1.00800,0.14000,-0.07000,0.08700,0.52500,0.43900,-1.31000,79.38000,-0.23000
041225_04.37.25.999,-0.03100,0.03100,1.02600,0.03500,-0.17500,0.12300,0.51600,0.44000,-1.30800,78.92000,-0.46000
041225_04.37.26.010,-0.02100,0.02000,0.99600,-0.07000,-0.15700,0.10500,0.51900,0.44100,-1.31300,78.65000,-0.27000
041225_04.37.26.022,-0.03300,0.02200,1.00900,0.00000,-0.29800,0.12300,0.52000,0.44400,-1.31700,79.68000,1.03000
041225_04.37.26.033,-0.01100,0.02600,0.98900,0.00000,-0.22800,0.12300,0.52000,0.44400,-1.31700,79.06000,-0.62000
041225_04.37.26.044,-0.03900,0.02300,1.00400,0.01800,-0.22800,0.12300,0.51800,0.44400,-1.31100,79.35000,0.29000
041225_04.37.26.056,-0.02200,0.01500,1.00500,0.01800,-0.28000,0.14000,0.51900,0.44000,-1.31100,79.77000,0.42000
041225_04.37.26.067,-0.03300,0.01600,1.01000,0.07000,-0.28000,0.14000,0.52800,0.44100,-1.31800,79.66000,-0.11000
041225_04.37.26.079,-0.01600,0.02900,0.99000,0.05300,-0.29800,0.14000,0.52800,0.44100,-1.31600,80.20000,0.54000
041225_04.37.26.090,-0.02600,0.01600,1.00400,0.05300,-0.21000,0.15700,0.52500,0.43700,-1.31600,79.64000,-0.56000
041225_04.37.26.101,-0.02800,0.02400,1.00400,0.08700,-0.14000,0.12300,0.52900,0.44000,-1.32500,79.57000,-0.07000
041225_04.37.26.113,-0.03100,0.01600,1.02400,-0.01800,-0.15700,0.12300,0.53200,0.44000,-1.31700,80.30000,0.73000
041225_04.37.26.124,-0.02900,0.01700,1.00900,-0.08700,-0.07000,0.10500,0.53300,0.43800,-1.31800,79.50000,-0.80000
041225_04.37.26.136,-0.03400,0.02500,1.02100,0.03500,-0.15700,0.05300,0.53300,0.43800,-1.31800,79.66000,0.16000
041225_04.37.26.147,-0.02800,0.03000,0.99600,-0.01800,-0.24500,0.03500,0.53500,0.44200,-1.32000,79.18000,-0.48000
041225_04.37.26.158,-0.02300,0.01900,0.98600,-0.08700,-0.26200,0.03500,0.53500,0.43800,-1.31700,79.65000,0.47000
041225_04.37.26.170,-0.01900,0.00900,0.99800,0.01800,-0.12300,0.05300,0.53600,0.43900,-1.31900,80.06000,0.41000
041225_04.37.26.181,-0.03700,0.01700,1.01200,0.10500,-0.21000,0.05300,0.53100,0.44000,-1.31100,79.92000,-0.14000
041225_04.37.26.193,-0.01600,0.01200,1.00600,0.03500,-0.24500,0.05300,0.53100,0.44000,-1.31100,79.64000,-0.28000
041225_04.37.26.204,-0.02300,0.02500,1.00000,0.05300,-0.24500,0.03500,0.53400,0.43500,-1.31100,79.78000,0.14000
041225_04.37.26.216,-0.01000,0.02400,0.99600,0.01800,-0.14000,0.01800,0.53000,0.43600,-1.31600,79.91000,0.13000
041225_04.37.26.227,-0.03200,0.03200,0.98000,0.05300,-0.03500,0.00000,0.52600,0.43800,-1.31800,79.60000,-0.31000
041225_04.37.26.238,-0.02000,0.01400,1.00800,0.05300,-0.10500,0.00000,0.52600,0.43800,-1.31800,79.08000,-0.52000
041225_04.37.26.250,-0.02800,0.02300,0.98900,0.10500,0.03500,-4.48000,0.52700,0.44000,-1.31200,80.10000,1.02000
041225_04.37.26.261,-0.02500,0.01500,1.00700,0.08700,0.05300,-0.03500,0.52200,0.43900,-1.31000,79.93000,-0.17000
041225_04.37.26.272,-0.01600,0.02000,1.00100,0.12300,0.03500,0.00000,0.51700,0.44400,-1.30800,80.00000,0.07000
041225_04.37.26.284,-0.03000,0.02100,0.99200,0.14000,-0.01800,-0.01800,0.51200,0.44200,-1.31700,79.45000,-0.55000
041225_04.37.26.295,-0.02400,0.02200,0.98300,0.19200,-0.10500,-0.01800,0.51200,0.44200,-1.31700,79.60000,0.15000
041225_04.37.26.307,-0.01700,0.02400,0.99100,0.21000,0.01800,0.00000,0.51400,0.44100,-1.31100,79.32000,-0.28000
041225_04.37.26.318,-0.03700,0.02100,1.00800,0.21000,0.01800,0.01800,0.50600,0.43800,-1.31300,80.15000,0.83000
041225_04.37.26.329,-0.02200,0.01600,0.99400,0.17500,-0.08700,0.01800,0.50700,0.43000,-1.31600,79.69000,-0.46000
041225_04.37.26.341,-0.03600,0.02300,1.00800,0.17500,-0.15700,0.01800,0.50700,0.43500,-1.31800,79.79000,0.10000
041225_04.37.26.352,-0.01900,0.02300,0.98700,0.15700,-0.19200,0.00000,0.51700,0.43500,-1.31800,79.32000,-0.47000
041225_04.37.26.364,-0.02700,0.02500,1.00700,0.15700,-0.21000,0.03500,0.51600,0.43800,-1.32000,79.80000,0.48000
041225_04.37.26.375,-0.02900,0.01400,1.00700,0.15700,-0.22800,0.03500,0.52200,0.43600,-1.31400,79.87000,0.07000
041225_04.37.26.386,-0.03000,0.01400,0.99600,0.17500,-0.24500,0.08700,0.52400,0.44000,-1.31700,78.94000,-0.93000
041225_04.37.26.398,-0.02100,0.02700,1.02200,0.19200,-0.33300,0.10500,0.52400,0.44000,-1.31700,80.26000,1.32000
041225_04.37.26.409,-0.02400,0.02200,0.98500,0.08700,-0.22800,0.08700,0.52900,0.44300,-1.32400,79.52000,-0.74000
041225_04.37.26.421,-0.03100,0.02400,1.02100,0.12300,-0.10500,0.08700,0.52800,0.44200,-1.31800,79.32000,-0.20000
041225_04.37.26.432,-0.02300,0.02100,1.02200,0.19200,-0.21000,0.08700,0.52900,0.44000,-1.31800,79.85000,0.53000
041225_04.37.26.443,-0.03000,0.04100,1.01700,0.10500,-0.15700,0.08700,0.52800,0.44100,-1.32100,79.06000,-0.79000
041225_04.37.26.455,-0.03600,0.02000,1.00300,0.00000,-0.15700,0.07000,0.52800,0.44100,-1.32100,79.46000,0.40000
041225_04.37.26.466,-0.02900,0.01200,1.01400,-0.03500,-0.22800,0.08700,0.52900,0.43700,-1.31700,79.83000,0.37000
041225_04.37.26.478,-0.02500,0.00800,1.00600,0.05300,-0.19200,0.12300,0.52900,0.43900,-1.32000,79.35000,-0.48000
041225_04.37.26.489,-0.03100,0.01900,1.02200,0.15700,-0.24500,0.12300,0.53100,0.44100,-1.31800,79.56000,0.21000
041225_04.37.26.501,-0.03100,0.03300,1.01000,0.03500,-0.22800,0.08700,0.53100,0.44100,-1.31800,79.52000,-0.04000
041225_04.37.26.512,-0.03100,0.02500,1.00500,-0.05300,-0.26200,0.08700,0.52900,0.44100,-1.31100,79.41000,-0.11000
041225_04.37.26.523,-0.01900,0.02500,1.00200,-0.05300,-0.24500,0.08700,0.52900,0.44700,-1.31300,80.04000,0.63000
041225_04.37.26.535,-0.01200,0.01100,1.01100,-0.03500,-0.22800,0.08700,0.52600,0.44100,-1.31700,78.99000,-1.05000
041225_04.37.26.546,-0.03500,0.01900,0.99900,0.03500,-0.10500,0.07000,0.52200,0.43900,-1.31900,79.61000,0.62000
041225_04.37.26.558,-0.04400,0.02800,1.02300,0.01800,-0.15700,0.07000,0.52200,0.43900,-1.31900,78.93000,-0.68000
041225_04.37.26.569,-0.02100,0.02800,0.98900,-0.08700,-0.22800,0.07000,0.52300,0.43900,-1.31900,79.75000,0.82000
041225_04.37.26.581,-0.01400,0.01600,0.99900,-0.12300,-0.28000,0.05300,0.51600,0.44300,-1.31700,79.72000,-0.03000
041225_04.37.26.592,-0.02900,0.00800,0.98900,0.08700,-0.19200,0.01800,0.51800,0.44200,-1.31400,79.60000,-0.12000
041225_04.37.26.603,-0.03400,0.02100,1.01100,0.05300,-0.21000,0.03500,0.51600,0.44000,-1.32200,79.87000,0.27000
041225_04.37.26.615,-0.02800,0.02100,1.00300,0.03500,-0.33300,0.01800,0.51600,0.44000,-1.32200,80.17000,0.30000
041225_04.37.26.626,-0.03200,0.02100,0.98400,-0.01800,-0.36800,-0.03500,0.52200,0.44100,-1.31800,79.55000,-0.62000
041225_04.37.26.638,-0.02600,0.01600,0.98600,0.03500,-0.36800,-0.07000,0.52400,0.44400,-1.31800,79.30000,-0.25000
041225_04.37.26.649,-0.04500,0.02500,0.98600,0.12300,-0.38500,-0.05300,0.53100,0.44500,-1.32400,79.96000,0.66000
041225_04.37.26.660,-0.03300,0.01300,0.99700,0.12300,-0.49000,-0.07000,0.53100,0.44500,-1.32400,79.74000,-0.22000
041225_04.37.26.672,-0.01900,0.01300,0.98700,0.14000,-0.47200,-0.10500,0.53100,0.44200,-1.31500,79.34000,-0.40000
041225_04.37.26.683,-0.02600,0.01200,0.99600,0.17500,-0.40300,-0.10500,0.53000,0.44300,-1.31300,79.61000,0.27000
041225_04.37.26.695,-0.02600,0.01900,1.00200,0.15700,-0.45500,-0.10500,0.53600,0.44300,-1.31800,79.39000,-0.22000
041225_04.37.26.706,-0.03600,0.02000,0.99000,0.19200,-0.47200,-0.12300,0.53600,0.44400,-1.32400,78.76000,-0.63000
041225_04.37.26.718,-0.02700,0.02100,0.97800,0.21000,-0.43700,-0.14000,0.53600,0.44400,-1.32400,79.75000,0.99000
041225_04.37.26.729,-0.02000,0.02600,0.99300,0.29800,-0.36800,-0.12300,0.53800,0.44500,-1.32200,79.27000,-0.48000
041225_04.37.26.740,-0.01400,0.02900,0.98700,0.26200,-0.38500,-0.14000,0.53300,0.44300,-1.31800,79.73000,0.46000
041225_04.37.26.752,-0.03400,0.01300,0.98100,0.22800,-0.35000,-0.14000,0.53100,0.44200,-1.31300,79.80000,0.07000
041225_04.37.26.763,-0.02400,0.01200,0.99500,0.31500,-0.24500,-0.15700,0.53100,0.44200,-1.31300,79.38000,-0.42000
041225_04.37.26.775,-0.01900,0.01900,1.00300,0.28000,-0.28000,-0.15700,0.53000,0.44800,-1.31900,79.82000,0.44000
041225_04.37.26.786,-0.02000,0.02000,0.99700,0.28000,-0.21000,-0.14000,0.52900,0.44800,-1.31600,79.22000,-0.60000
041225_04.37.26.798,-0.02100,0.03000,1.00100,0.33300,-0.19200,-0.12300,0.52200,0.44400,-1.31900,79.58000,0.36000
041225_04.37.26.809,-0.00300,0.02200,1.01400,0.28000,-0.24500,-0.12300,0.52200,0.44400,-1.31300,80.09000,0.51000
041225_04.37.26.820,-0.01000,0.01600,1.00000,0.24500,-0.12300,-0.14000,0.52200,0.44400,-1.31300,79.43000,-0.66000
041225_04.37.26.832,-0.00700,0.02100,1.00100,0.26200,-0.08700,-0.10500,0.52300,0.44700,-1.31500,79.70000,0.27000
041225_04.37.26.843,-0.01300,0.01500,1.02000,0.26200,-0.12300,-0.10500,0.52400,0.44800,-1.31000,79.91000,0.21000
041225_04.37.26.855,-0.00300,0.02900,1.00300,0.28000,-0.01800,-0.08700,0.51900,0.44700,-1.32300,80.12000,0.21000
041225_04.37.26.866,-0.02300,0.02900,1.01100,0.17500,-0.10500,-0.08700,0.52100,0.44900,-1.31600,79.42000,-0.70000
041225_04.37.26.878,0.00200,0.02400,0.99600,0.14000,-0.05300,-0.07000,0.52100,0.44900,-1.31600,79.49000,0.07000
041225_04.37.26.889,-0.01100,0.02100,1.00300,0.19200,-0.01800,-0.05300,0.51900,0.44500,-1.31800,79.27000,-0.22000
041225_04.37.26.900,-0.00700,0.02200,1.02400,0.19200,0.03500,-0.03500,0.52600,0.45000,-1.31400,79.56000,0.29000
041225_04.37.26.912,-0.02100,0.01800,1.02300,0.15700,-0.01800,-0.03500,0.52800,0.45000,-1.32200,79.38000,-0.18000
041225_04.37.26.923,-0.01800,0.01500,1.02700,0.15700,-0.14000,-0.01800,0.52800,0.45000,-1.32200,79.71000,0.33000
041225_04.37.26.935,-0.02500,0.05900,1.01000,0.15700,-0.26200,-0.01800,0.52900,0.44300,-1.32400,79.18000,-0.53000
041225_04.37.26.946,-0.02800,0.02500,0.99900,0.07000,-0.28000,0.00000,0.53400,0.44800,-1.32300,79.69000,0.51000
041225_04.37.26.958,-0.02100,0.01100,1.00600,0.10500,-0.33300,0.01800,0.53500,0.44600,-1.31900,79.84000,0.15000
041225_04.37.26.969,-0.03100,0.01500,1.02200,0.21000,-0.35000,0.01800,0.54200,0.44900,-1.32500,79.47000,-0.37000
041225_04.37.26.981,-0.02100,0.02000,1.01700,0.10500,-0.38500,-0.03500,0.54200,0.44900,-1.32500,80.04000,0.57000
041225_04.37.26.992,-0.03200,0.02300,1.01000,0.01800,-0.38500,-0.05300,0.54300,0.44900,-1.32400,79.64000,-0.40000
041225_04.37.27.003,-0.03400,0.02900,1.00200,0.01800,-0.40300,-0.03500,0.54200,0.44500,-1.32600,79.87000,0.23000
041225_04.37.27.015,-0.02700,0.02600,0.99000,0.00000,-0.47200,-0.01800,0.54000,0.44700,-1.32300,79.90000,0.03000
041225_04.37.27.026,-0.02000,0.01500,1.01700,0.07000,-0.40300,-0.03500,0.54000,0.44700,-1.33400,80.00000,0.10000
041225_04.37.27.038,-0.02800,0.01000,1.00900,0.03500,-0.22800,-0.05300,0.54300,0.44900,-1.33400,79.49000,-0.51000
041225_04.37.27.049,-0.04600,0.02100,1.01700,0.10500,-0.19200,-0.08700,0.53700,0.44900,-1.32800,79.28000,-0.21000
041225_04.37.27.060,-0.02200,0.02900,1.01200,0.03500,-0.29800,-0.10500,0.53700,0.44600,-1.32600,79.48000,0.20000
041225_04.37.27.072,-0.03500,0.03200,0.98600,-0.03500,-0.31500,-0.15700,0.53400,0.44300,-1.32700,79.28000,-0.20000
041225_04.37.27.083,-0.02800,0.01500,0.97600,-0.01800,-0.21000,-0.15700,0.53400,0.44300,-1.32700,79.26000,-0.02000
041225_04.37.27.095,-0.02500,-0.00200,1.00800,0.19200,-0.17500,-0.14000,0.53700,0.44800,-1.32400,79.82000,0.56000
041225_04.37.27.106,-0.02600,0.02000,1.02200,0.14000,-0.31500,-0.17500,0.53000,0.44900,-1.32400,78.93000,-0.89000
041225_04.37.27.118,-0.01200,0.03200,0.99200,-0.01800,-0.35000,-0.19200,0.53300,0.44700,-1.31800,79.96000,1.03000
041225_04.37.27.129,-0.01800,0.02000,0.98800,-0.05300,-0.28000,-0.19200,0.52400,0.44500,-1.32300,79.56000,-0.40000
041225_04.37.27.141,-0.02600,0.02800,0.99300,0.07000,-0.24500,-0.17500,0.52400,0.44500,-1.32300,80.36000,0.80000
041225_04.37.27.152,-0.01800,0.02100,0.97600,0.08700,-0.15700,-0.17500,0.52600,0.45000,-1.32000,78.52000,-1.84000
041225_04.37.27.164,-0.01100,0.01300,1.00400,0.15700,-0.17500,-0.17500,0.52200,0.44900,-1.32700,79.34000,0.82000
041225_04.37.27.175,-0.00400,0.01700,1.00600,0.10500,-0.15700,-0.19200,0.52100,0.44700,-1.32300,79.23000,-0.11000
041225_04.37.27.186,-0.01800,0.01300,0.99100,0.03500,-0.14000,-0.22800,0.52100,0.44700,-1.32300,79.49000,0.26000
041225_04.37.27.198,-0.00800,0.02100,0.97800,0.01800,-0.12300,-0.21000,0.52300,0.44800,-1.32500,79.64000,0.15000
041225_04.37.27.209,-0.01500,0.01900,0.98600,0.10500,-0.07000,-0.21000,0.53000,0.45000,-1.32500,79.48000,-0.16000
041225_04.37.27.221,-0.00300,0.02100,0.98500,0.21000,-0.03500,-0.19200,0.53800,0.44900,-1.32600,79.21000,-0.27000
041225_04.37.27.232,-0.01600,0.02300,1.00000,0.24500,0.00000,-0.15700,0.53600,0.44400,-1.32300,78.96000,-0.25000
041225_04.37.27.243,-0.01800,0.01400,1.00900,0.17500,0.00000,-0.15700,0.53600,0.44400,-1.32300,79.72000,0.76000
041225_04.37.27.255,-0.02100,0.01700,1.00800,0.15700,-0.15700,-0.17500,0.53400,0.44900,-1.33400,79.53000,-0.19000
041225_04.37.27.266,-0.01000,0.02200,0.98500,0.17500,-0.12300,-0.15700,0.54400,0.44900,-1.33200,79.52000,-0.01000
041225_04.37.27.278,-0.03200,0.01900,1.00400,0.19200,-0.10500,-0.14000,0.54200,0.44900,-1.33400,79.20000,-0.32000
041225_04.37.27.289,-0.00500,0.01400,1.01200,0.21000,-0.14000,-0.12300,0.54200,0.44700,-1.33200,78.91000,-0.29000
041225_04.37.27.300,-0.02300,0.02500,1.01600,0.19200,-0.22800,-0.12300,0.54500,0.44700,-1.33200,78.95000,0.04000
041225_04.37.27.312,-0.01300,0.02000,1.01400,0.08700,-0.28000,-0.12300,0.54400,0.44800,-1.32700,79.51000,0.56000
041225_04.37.27.323,-0.03200,0.02900,0.99700,0.12300,-0.29800,-0.08700,0.54800,0.45000,-1.32900,79.75000,0.24000
041225_04.37.27.335,-0.02100,0.02400,1.00100,0.12300,-0.33300,-0.07000,0.54500,0.44600,-1.32800,79.92000,0.17000
041225_04.37.27.346,-0.00800,0.02300,1.00400,0.19200,-0.33300,-0.07000,0.54500,0.44600,-1.32800,79.79000,-0.13000
041225_04.37.27.358,-0.02000,0.02400,1.02200,0.12300,-0.28000,-0.03500,0.53400,0.45200,-1.32800,79.48000,-0.31000
041225_04.37.27.369,-0.03200,0.01300,1.01300,0.07000,-0.28000,-0.07000,0.54200,0.45000,-1.32500,79.50000,0.02000
041225_04.37.27.380,-0.01900,0.03000,1.01400,0.01800,-0.36800,-0.07000,0.54200,0.44900,-1.32300,79.73000,0.23000
041225_04.37.27.392,-0.02700,0.01900,1.00200,-0.10500,-0.29800,-0.05300,0.54500,0.45000,-1.32600,79.16000,-0.57000
041225_04.37.27.403,-0.02900,0.01900,1.01100,-0.08700,-0.36800,-0.05300,0.54500,0.45000,-1.32600,79.34000,0.18000
041225_04.37.27.415,-0.02000,0.01600,1.01500,-0.05300,-0.35000,-0.01800,0.53600,0.44800,-1.32600,79.06000,-0.28000
041225_04.37.27.426,-0.01300,0.02200,1.01300,-0.15700,-0.21000,-0.05300,0.53900,0.44700,-1.32500,79.53000,0.47000
041225_04.37.27.438,-0.02700,0.01100,1.01100,-0.21000,-0.24500,-0.07000,0.54100,0.45000,-1.33500,80.22000,0.69000
041225_04.37.27.449,-0.03600,0.02200,1.01100,-0.19200,-0.29800,-0.05300,0.54100,0.45000,-1.33500,79.43000,-0.79000
041225_04.37.27.460,-0.01900,0.01300,1.01100,-0.21000,-0.35000,-0.03500,0.54100,0.44900,-1.33000,79.66000,0.23000
041225_04.37.27.472,-0.00000,0.02100,0.99900,-0.21000,-0.22800,-0.05300,0.54600,0.44600,-1.33200,79.46000,-0.20000
041225_04.37.27.483,-0.02500,0.01500,1.01400,-0.24500,-0.10500,-0.10500,0.55300,0.44900,-1.33600,79.21000,-0.25000
041225_04.37.27.495,-0.01600,0.01400,1.00900,-0.26200,-0.10500,-0.14000,0.55400,0.45100,-1.33600,79.94000,0.73000
041225_04.37.27.506,-0.05500,0.02200,0.99500,-0.28000,-0.12300,-0.12300,0.55400,0.45100,-1.33600,79.23000,-0.71000
041225_04.37.27.518,0.00700,0.01200,1.00300,-0.33300,-0.19200,-0.12300,0.56000,0.44600,-1.33800,79.62000,0.39000
041225_04.37.27.529,-0.01700,0.00800,0.98500,-0.29800,-0.07000,-0.12300,0.55800,0.45100,-1.33500,79.42000,-0.20000
041225_04.37.27.541,-0.02500,0.01000,1.00700,-0.17500,-0.08700,-0.12300,0.56000,0.44800,-1.33800,78.89000,-0.53000
041225_04.37.27.552,-0.01000,0.01400,1.00200,-0.17500,-0.08700,-0.14000,0.56400,0.45300,-1.33400,79.50000,0.61000
041225_04.37.27.563,-0.02100,0.01400,1.01500,-0.28000,-0.19200,-0.17500,0.56400,0.45300,-1.33400,79.55000,0.05000
041225_04.37.27.575,-0.01500,0.00700,0.98100,-0.33300,-0.08700,-0.19200,0.56600,0.45200,-1.33800,79.16000,-0.39000
041225_04.37.27.586,-0.02800,0.01100,0.98900,-0.24500,-0.10500,-0.17500,0.56200,0.45200,-1.32800,79.02000,-0.14000
041225_04.37.27.598,-0.00700,0.01200,0.98800,-0.21000,-0.10500,-0.19200,0.56900,0.45200,-1.33100,79.21000,0.19000
041225_04.37.27.609,-0.02000,0.00700,1.00700,-0.26200,-0.10500,-0.21000,0.56900,0.45200,-1.33100,79.43000,0.22000
041225_04.37.27.621,-0.01400,0.01500,0.98700,-0.22800,-0.15700,-0.21000,0.56000,0.45400,-1.33000,79.56000,0.13000
041225_04.37.27.632,-0.01100,0.01700,0.99000,-0.24500,-0.10500,-0.21000,0.56400,0.45200,-1.32700,79.04000,-0.52000
041225_04.37.27.644,-0.00600,0.00700,0.99400,-0.26200,-0.03500,-0.21000,0.55700,0.45300,-1.33000,79.17000,0.13000
041225_04.37.27.655,-0.02700,0.00700,0.98800,-0.22800,0.07000,-0.21000,0.56000,0.45500,-1.33200,79.01000,-0.16000
041225_04.37.27.667,-0.01900,0.00500,1.00100,-0.17500,0.01800,-0.19200,0.56000,0.45500,-1.33200,79.16000,0.15000
041225_04.37.27.679,-0.01000,0.01400,0.99900,-0.21000,0.01800,-0.22800,0.55000,0.45400,-1.32700,79.08000,-0.08000
041225_04.37.27.690,-0.02500,0.01000,1.00100,-0.26200,0.00000,-0.21000,0.55300,0.45600,-1.33200,79.36000,0.28000
041225_04.37.27.702,-0.02100,0.00100,0.99800,-0.29800,-0.12300,-0.19200,0.55000,0.45000,-1.32500,79.93000,0.57000
041225_04.37.27.713,-0.02300,-0.00000,0.99200,-0.21000,-0.12300,-0.19200,0.55000,0.45000,-1.32400,79.24000,-0.69000
041225_04.37.27.725,-0.00500,0.00800,1.00700,-0.19200,-0.12300,-0.17500,0.55400,0.45300,-1.32400,79.37000,0.13000
041225_04.37.27.736,-0.01700,0.00700,1.00900,-0.21000,-0.12300,-0.17500,0.55000,0.45600,-1.33100,78.97000,-0.40000
041225_04.37.27.747,-0.01700,0.00600,0.99400,-0.29800,-0.19200,-0.14000,0.55400,0.45500,-1.33200,79.48000,0.51000
041225_04.37.27.759,0.00700,0.00300,0.98900,-0.21000,-0.08700,-0.08700,0.56100,0.45600,-1.33100,79.47000,-0.01000
041225_04.37.27.770,-0.01900,-0.00100,0.99600,-0.21000,-0.05300,-0.05300,0.56100,0.45600,-1.33100,78.70000,-0.77000
041225_04.37.27.782,-0.00400,-0.00100,1.00300,-0.21000,-0.08700,-0.05300,0.56800,0.45400,-1.33500,79.77000,1.07000
041225_04.37.27.793,-0.00400,0.00300,0.99900,-0.21000,0.00000,-0.05300,0.57100,0.45500,-1.33900,78.85000,-0.92000
041225_04.37.27.805,-0.00600,-0.00500,1.02000,-0.21000,-0.03500,-0.01800,0.57000,0.45800,-1.33400,78.76000,-0.09000
041225_04.37.27.816,-0.01800,0.00500,1.00700,-0.21000,0.03500,-0.01800,0.57500,0.45700,-1.33900,79.58000,0.82000
041225_04.37.27.828,-0.02000,0.00200,1.01400,-0.24500,0.01800,0.00000,0.57500,0.45700,-1.33900,79.51000,-0.07000
041225_04.37.27.839,-0.00700,0.00700,1.00100,-0.22800,0.07000,-0.01800,0.58500,0.45600,-1.33200,79.26000,-0.25000
041225_04.37.27.850,-0.02200,0.00400,1.01100,-0.24500,0.05300,0.03500,0.58200,0.45900,-1.33500,79.07000,-0.19000
041225_04.37.27.862,-0.00900,-0.00400,1.01600,-0.28000,0.07000,0.05300,0.57700,0.46000,-1.33600,80.00000,0.93000
041225_04.37.27.873,-0.01000,-0.00200,1.01400,-0.29800,0.08700,0.05300,0.57700,0.46000,-1.33600,79.98000,-0.02000
041225_04.37.27.884,-0.01900,-0.00900,1.01800,-0.36800,0.12300,0.07000,0.58000,0.46300,-1.33300,79.80000,-0.18000
041225_04.37.27.895,-0.03500,-0.00200,0.99700,-0.33300,0.08700,0.07000,0.58000,0.45900,-1.33400,79.82000,0.02000
041225_04.37.27.907,-0.01800,0.00100,1.00000,-0.31500,0.03500,0.07000,0.57800,0.46300,-1.33100,78.89000,-0.93000
041225_04.37.27.918,-0.02100,-0.00900,0.99800,-0.33300,0.03500,0.07000,0.57700,0.46800,-1.33600,79.01000,0.12000
041225_04.37.27.930,-0.02000,-0.01300,1.01700,-0.26200,0.03500,0.05300,0.57700,0.46800,-1.33600,79.71000,0.70000
041225_04.37.27.942,-0.03500,-0.00800,1.01300,-0.26200,-0.05300,0.05300,0.57700,0.46600,-1.33200,80.19000,0.48000
041225_04.37.27.953,-0.02200,0.00000,0.99200,-0.31500,-0.08700,0.03500,0.58000,0.46300,-1.32700,79.54000,-0.65000
041225_04.37.27.965,-0.03200,-0.00100,0.98600,-0.26200,-0.12300,0.03500,0.57500,0.46600,-1.33000,79.41000,-0.13000
041225_04.37.27.976,-0.04200,-0.01400,0.98400,-0.24500,-0.17500,0.03500,0.57500,0.46500,-1.33000,79.32000,-0.09000
041225_04.37.27.988,-0.03100,-0.01600,0.99300,-0.15700,-0.22800,0.01800,0.57200,0.46500,-1.33000,79.17000,-0.15000
041225_04.37.28.000,-0.04100,-0.01700,0.99300,-0.12300,-0.26200,0.03500,0.57400,0.46400,-1.33000,80.01000,0.84000
041225_04.37.28.011,-0.03700,-0.01500,0.98500,-0.15700,-0.35000,0.00000,0.57700,0.46300,-1.32600,79.30000,-0.71000
041225_04.37.28.023,-0.01600,-0.00300,0.98600,-0.15700,-0.33300,0.00000,0.57700,0.46900,-1.32700,79.26000,-0.04000
041225_04.37.28.034,-0.04300,-0.00700,0.98100,-0.21000,-0.36800,-0.01800,0.57700,0.46900,-1.32700,79.15000,-0.11000
041225_04.37.28.045,-0.03800,-0.01200,0.98400,-0.15700,-0.42000,-0.01800,0.57800,0.46500,-1.33200,79.61000,0.46000
041225_04.37.28.057,-0.04100,-0.01700,0.98600,-0.07000,-0.33300,-0.01800,0.58400,0.46700,-1.33800,79.47000,-0.14000
041225_04.37.28.069,-0.03000,-0.00700,0.98900,-0.05300,-0.38500,-0.03500,0.58500,0.46600,-1.33100,78.95000,-0.52000
041225_04.37.28.081,-0.01600,-0.00500,0.98800,-0.10500,-0.33300,-0.05300,0.58900,0.46300,-1.33000,79.26000,0.31000
041225_04.37.28.092,-0.01800,-0.01100,0.97400,-0.17500,-0.24500,-0.03500,0.58900,0.46300,-1.33000,78.98000,-0.28000
