ax,ay,az,gx,gy,gz,mx,my,mz,pressure,temperature,altitude
-0.038,-0.036,1.000,0.002,-0.002,-0.000,0.091,0.450,-0.569,982.55,26.55,288.90
-0.038,-0.036,0.999,0.001,-0.002,-0.000,0.087,0.450,-0.562,982.48,26.55,289.52
-0.038,-0.035,0.999,0.001,-0.002,-0.000,0.087,0.450,-0.562,982.54,26.55,288.93
-0.038,-0.035,1.000,0.002,-0.002,-0.000,0.087,0.451,-0.561,982.53,26.55,289.07
-0.039,-0.036,0.999,0.002,-0.002,-0.000,0.085,0.455,-0.563,982.51,26.55,289.21
-0.038,-0.036,1.000,0.002,-0.002,-0.001,0.089,0.453,-0.564,982.54,26.55,289.00
-0.039,-0.035,1.000,0.002,-0.002,-0.001,0.091,0.453,-0.563,982.45,26.55,289.75
-0.038,-0.035,1.001,0.002,-0.002,-0.000,0.090,0.453,-0.561,982.54,26.55,288.98
-0.039,-0.035,0.998,0.001,-0.002,-0.000,0.088,0.452,-0.563,982.43,26.55,289.94
-0.039,-0.036,0.999,0.002,-0.002,-0.001,0.088,0.452,-0.563,982.50,26.55,289.31
-0.040,-0.036,0.999,0.002,-0.002,-0.001,0.091,0.455,-0.560,982.57,26.55,288.71
-0.038,-0.036,1.000,0.002,-0.002,-0.000,0.088,0.451,-0.562,982.62,26.55,288.33
-0.038,-0.036,0.999,0.002,-0.002,-0.001,0.090,0.451,-0.557,982.54,26.55,288.99
-0.039,-0.036,1.000,0.002,-0.002,-0.000,0.091,0.453,-0.566,982.51,26.56,289.19
-0.038,-0.036,0.999,0.002,-0.002,-0.000,0.087,0.455,-0.562,982.52,26.55,289.18
-0.038,-0.035,0.999,0.002,-0.002,-0.000,0.091,0.447,-0.558,982.50,26.55,289.31
-0.039,-0.035,0.999,0.002,-0.002,0.000,0.091,0.447,-0.558,982.49,26.55,289.41
-0.038,-0.036,0.999,0.002,-0.002,-0.000,0.088,0.449,-0.562,982.41,26.55,290.12
-0.038,-0.036,0.999,0.002,-0.002,0.000,0.085,0.449,-0.563,982.45,26.55,289.71
-0.038,-0.035,0.999,0.002,-0.002,-0.000,0.093,0.450,-0.560,982.52,26.55,289.16
-0.038,-0.036,0.998,0.002,-0.002,-0.000,0.090,0.449,-0.562,982.48,26.55,289.52
-0.038,-0.035,1.000,0.002,-0.002,-0.001,0.090,0.451,-0.563,982.49,26.55,289.39
-0.038,-0.036,0.999,0.002,-0.002,-0.000,0.090,0.448,-0.567,982.45,26.55,289.74
-0.039,-0.036,1.000,0.002,-0.002,0.000,0.090,0.448,-0.567,982.49,26.54,289.43
-0.039,-0.036,1.000,0.002,-0.002,-0.000,0.091,0.447,-0.564,982.49,26.55,289.38
-0.040,-0.036,1.000,0.002,-0.002,-0.001,0.087,0.451,-0.568,982.50,26.55,289.35
-0.039,-0.035,1.000,0.002,-0.002,-0.000,0.087,0.450,-0.562,982.54,26.55,288.98
-0.037,-0.035,0.999,0.001,-0.002,-0.000,0.090,0.449,-0.564,982.55,26.55,288.85
-0.038,-0.037,1.000,0.002,-0.002,0.000,0.088,0.450,-0.566,982.60,26.55,288.43
-0.039,-0.036,0.999,0.002,-0.002,-0.000,0.087,0.450,-0.562,982.48,26.55,289.46
-0.038,-0.036,1.000,0.002,-0.002,-0.000,0.087,0.450,-0.566,982.65,26.55,288.06
-0.039,-0.035,1.000,0.002,-0.002,-0.001,0.089,0.452,-0.566,982.49,26.55,289.39
-0.038,-0.035,1.000,0.002,-0.002,-0.000,0.085,0.455,-0.568,982.54,26.55,288.98
-0.038,-0.035,0.998,0.002,-0.002,-0.000,0.087,0.453,-0.559,982.45,26.55,289.78
-0.039,-0.035,1.000,0.002,-0.002,-0.000,0.089,0.452,-0.570,982.54,26.55,288.99
-0.038,-0.036,1.000,0.002,-0.002,-0.001,0.083,0.455,-0.566,982.51,26.55,289.19
-0.039,-0.036,1.001,0.002,-0.002,-0.000,0.089,0.449,-0.567,982.51,26.55,289.22
-0.038,-0.035,1.000,0.002,-0.002,-0.000,0.088,0.451,-0.568,982.54,26.54,288.99
-0.038,-0.035,0.998,0.002,-0.002,-0.000,0.088,0.451,-0.568,982.52,26.55,289.15
-0.039,-0.035,1.000,0.002,-0.002,-0.000,0.088,0.452,-0.567,982.49,26.54,289.40
-0.039,-0.035,0.999,0.002,-0.002,-0.001,0.086,0.454,-0.563,982.51,26.55,289.21
-0.039,-0.036,0.998,0.002,-0.002,-0.000,0.091,0.449,-0.566,982.51,26.55,289.27
-0.039,-0.035,0.999,0.002,-0.002,-0.000,0.090,0.453,-0.566,982.56,26.55,288.78
-0.038,-0.035,1.000,0.002,-0.002,-0.000,0.090,0.453,-0.567,982.52,26.56,289.12
-0.038,-0.035,1.000,0.002,-0.002,-0.000,0.086,0.449,-0.560,982.56,26.56,288.78
-0.038,-0.035,1.000,0.002,-0.002,-0.000,0.086,0.449,-0.560,982.56,26.55,288.82
-0.039,-0.036,1.000,0.002,-0.002,-0.001,0.089,0.448,-0.566,982.53,26.55,289.02
-0.038,-0.035,1.000,0.002,-0.002,-0.000,0.090,0.452,-0.565,982.55,26.55,288.87
-0.037,-0.036,0.999,0.002,-0.002,-0.001,0.089,0.453,-0.566,982.49,26.55,289.40
-0.038,-0.035,1.000,0.002,-0.002,-0.000,0.091,0.450,-0.568,982.55,26.55,288.90
-0.039,-0.035,1.000,0.002,-0.002,-0.000,0.086,0.452,-0.563,982.49,26.55,289.36
-0.039,-0.034,1.001,0.002,-0.002,0.000,0.091,0.450,-0.566,982.54,26.55,288.97
-0.039,-0.035,0.999,0.002,-0.002,-0.001,0.091,0.450,-0.566,982.47,26.55,289.56
-0.038,-0.036,0.999,0.002,-0.002,-0.000,0.091,0.450,-0.563,982.48,26.55,289.48
-0.039,-0.037,1.000,0.002,-0.002,-0.000,0.089,0.451,-0.568,982.51,26.55,289.23
-0.039,-0.035,1.000,0.002,-0.002,-0.000,0.083,0.451,-0.568,982.54,26.56,289.01
-0.037,-0.037,0.998,0.002,-0.002,-0.001,0.086,0.450,-0.569,982.56,26.55,288.79
-0.039,-0.036,0.999,0.002,-0.002,-0.001,0.089,0.449,-0.563,982.47,26.55,289.58
-0.039,-0.036,1.000,0.001,-0.002,-0.000,0.087,0.445,-0.568,982.46,26.55,289.66
-0.038,-0.035,0.999,0.001,-0.002,-0.000,0.087,0.445,-0.568,982.55,26.55,288.85
-0.038,-0.035,0.998,0.002,-0.002,-0.001,0.085,0.449,-0.566,982.48,26.55,289.50
-0.039,-0.035,1.001,0.002,-0.002,-0.000,0.087,0.454,-0.571,982.52,26.55,289.11
-0.038,-0.036,0.999,0.002,-0.002,-0.000,0.088,0.455,-0.566,982.53,26.55,289.09
-0.038,-0.036,1.000,0.002,-0.002,-0.000,0.086,0.453,-0.569,982.54,26.55,288.98
-0.038,-0.036,0.999,0.002,-0.002,-0.000,0.090,0.449,-0.572,982.50,26.55,289.31
-0.038,-0.035,1.000,0.002,-0.002,-0.000,0.088,0.451,-0.570,982.48,26.55,289.52
-0.039,-0.036,1.000,0.001,-0.002,-0.000,0.088,0.451,-0.570,982.51,26.55,289.21
-0.038,-0.036,1.000,0.002,-0.002,-0.001,0.091,0.449,-0.575,982.53,26.55,289.06
-0.039,-0.035,1.000,0.002,-0.002,-0.001,0.092,0.452,-0.571,982.54,26.55,288.96
-0.038,-0.036,0.999,0.001,-0.002,0.000,0.090,0.447,-0.567,982.55,26.55,288.88
-0.038,-0.036,1.000,0.001,-0.002,-0.000,0.090,0.448,-0.568,982.60,26.55,288.49
036,0.999,0.001,-0.002,-0.000,0.091,0.449,-0.568,982.5.568,982.52,26.55,289.13
-0.039,-0.036,1.000,0.002,-0.002,-0.001,0.087,0.449,-0.567,982.46,26.55,289.68
-0.038,-0.035,1.000,0.002,-0.002,-0.001,0.084,0.447,-0.568,982.54,26.55,288.99
-0.038,-0.036,1.000,0.001,-0.002,-0.000,0.087,0.450,-0.566,982.48,26.55,289.49
-0.038,-0.037,0.999,0.001,-0.002,-0.001,0.086,0.449,-0.568,982.45,26.55,289.70
-0.037,-0.036,0.999,0.002,-0.002,-0.000,0.090,0.448,-0.566,982.50,26.55,289.31
-0.038,-0.036,0.999,0.002,-0.002,-0.000,0.084,0.449,-0.566,982.51,26.55,289.26
-0.039,-0.035,0.999,0.002,-0.002,-0.001,0.084,0.449,-0.566,982.52,26.55,289.15
-0.038,-0.036,0.999,0.002,-0.002,-0.001,0.088,0.450,-0.567,982.50,26.56,289.32
-0.039,-0.037,1.000,0.002,-0.002,0.000,0.087,0.452,-0.569,982.46,26.55,289.62
-0.039,-0.036,0.999,0.002,-0.002,-0.000,0.088,0.451,-0.560,982.47,26.55,289.57
-0.038,-0.036,0.999,0.002,-0.002,-0.001,0.092,0.447,-0.562,982.46,26.56,289.66
-0.039,-0.035,0.999,0.001,-0.002,-0.000,0.089,0.451,-0.565,982.50,26.55,289.30
-0.038,-0.036,1.001,0.001,-0.002,-0.000,0.084,0.446,-0.559,982.46,26.55,289.63
-0.038,-0.036,1.000,0.002,-0.002,-0.000,0.084,0.446,-0.559,982.50,26.56,289.27
-0.038,-0.036,0.999,0.002,-0.002,-0.000,0.087,0.448,-0.559,982.48,26.55,289.52
-0.040,-0.036,0.999,0.002,-0.002,0.000,0.086,0.449,-0.566,982.48,26.55,289.50
-0.038,-0.036,1.000,0.002,-0.002,-0.000,0.091,0.453,-0.570,982.49,26.55,289.38
-0.038,-0.036,0.999,0.002,-0.002,-0.001,0.089,0.451,-0.570,982.52,26.55,289.16
-0.039,-0.035,1.000,0.001,-0.002,-0.000,0.087,0.454,-0.561,982.52,26.55,289.15
-0.039,-0.035,0.999,0.002,-0.002,-0.000,0.087,0.455,-0.566,982.49,26.55,289.38
-0.038,-0.036,0.999,0.002,-0.002,-0.000,0.087,0.455,-0.566,982.45,26.55,289.77
-0.038,-0.037,1.000,0.001,-0.002,-0.000,0.085,0.451,-0.565,982.51,26.55,289.22
-0.040,-0.035,0.999,0.002,-0.002,-0.001,0.090,0.455,-0.563,982.46,26.55,289.62
-0.037,-0.036,1.000,0.001,-0.002,0.000,0.091,0.453,-0.555,982.46,26.55,289.70
-0.039,-0.036,1.000,0.002,-0.002,-0.001,0.088,0.449,-0.562,982.49,26.56,289.41
-0.038,-0.035,0.999,0.002,-0.002,-0.001,0.086,0.457,-0.562,982.51,26.55,289.19
-0.039,-0.036,1.001,0.001,-0.002,-0.001,0.092,0.454,-0.563,982.48,26.55,289.50
-0.038,-0.036,0.998,0.002,-0.002,-0.000,0.092,0.454,-0.563,982.48,26.55,289.51
-0.038,-0.036,0.999,0.002,-0.002,-0.000,0.088,0.454,-0.562,982.43,26.55,289.88
-0.039,-0.036,1.001,0.002,-0.002,-0.000,0.089,0.452,-0.557,982.50,26.55,289.31
-0.038,-0.036,1.000,0.002,-0.002,0.000,0.088,0.451,-0.556,982.44,26.55,289.81
-0.039,-0.036,1.000,0.002,-0.002,-0.000,0.087,0.452,-0.562,982.48,26.55,289.50
-0.039,-0.036,0.998,0.001,-0.002,-0.001,0.089,0.455,-0.568,982.47,26.56,289.60
-0.038,-0.035,1.001,0.002,-0.002,-0.000,0.087,0.453,-0.559,982.48,26.55,289.48
-0.038,-0.036,0.999,0.002,-0.002,-0.000,0.087,0.453,-0.568,982.43,26.55,289.88
-0.038,-0.035,1.000,0.002,-0.002,-0.001,0.088,0.451,-0.568,982.45,26.56,289.70
-0.037,-0.036,0.999,0.002,-0.002,0.000,0.091,0.453,-0.565,982.40,26.55,290.18
-0.038,-0.036,1.001,0.002,-0.002,-0.000,0.088,0.453,-0.565,982.54,26.55,288.99
-0.039,-0.037,0.999,0.002,-0.002,-0.000,0.092,0.455,-0.556,982.45,26.55,289.76
-0.039,-0.036,1.000,0.002,-0.002,-0.000,0.089,0.455,-0.559,982.48,26.55,289.50
-0.038,-0.037,1.000,0.002,-0.002,-0.000,0.088,0.456,-0.562,982.52,26.55,289.13
-0.038,-0.036,1.000,0.002,-0.002,-0.000,0.088,0.457,-0.565,982.41,26.55,290.05
-0.039,-0.036,1.000,0.002,-0.002,0.000,0.092,0.457,-0.565,982.46,26.55,289.64
-0.038,-0.036,1.000,0.002,-0.002,-0.000,0.087,0.453,-0.561,982.53,26.55,289.06
-0.038,-0.036,1.000,0.001,-0.002,0.000,0.087,0.456,-0.567,982.49,26.55,289.36
-0.039,-0.035,1.000,0.001,-0.002,-0.000,0.087,0.455,-0.562,982.50,26.55,289.32
-0.040,-0.036,1.000,0.002,-0.002,-0.000,0.088,0.452,-0.562,982.55,26.56,288.89
-0.038,-0.036,1.000,0.002,-0.002,-0.001,0.092,0.457,-0.565,982.53,26.55,289.04
-0.038,-0.036,0.999,0.002,-0.002,-0.000,0.093,0.457,-0.561,982.53,26.55,289.09
-0.038,-0.036,0.998,0.002,-0.002,-0.000,0.093,0.457,-0.561,982.53,26.56,289.05
-0.039,-0.035,0.999,0.002,-0.002,-0.000,0.090,0.456,-0.559,982.53,26.55,289.02
-0.039,-0.035,1.001,0.002,-0.002,-0.000,0.090,0.455,-0.565,982.55,26.55,288.90
-0.039,-0.036,1.000,0.002,-0.002,-0.000,0.095,0.451,-0.560,982.53,26.55,289.05
-0.038,-0.035,1.000,0.002,-0.003,-0.000,0.093,0.453,-0.561,982.52,26.55,289.11
-0.038,-0.037,1.000,0.002,-0.003,-0.000,0.089,0.458,-0.562,982.54,26.55,288.94
-0.038,-0.036,1.000,0.002,-0.002,-0.001,0.092,0.454,-0.561,982.52,26.55,289.19
-0.039,-0.037,0.999,0.002,-0.002,-0.000,0.092,0.454,-0.561,982.44,26.56,289.85
-0.039,-0.036,0.999,0.002,-0.002,0.000,0.090,0.449,-0.560,982.50,26.56,289.34
-0.039,-0.035,0.999,0.002,-0.002,-0.000,0.087,0.454,-0.561,982.52,26.55,289.19
-0.038,-0.035,1.000,0.002,-0.002,0.000,0.085,0.450,-0.563,982.54,26.55,288.96
-0.037,-0.036,0.999,0.002,-0.002,-0.000,0.086,0.457,-0.558,982.44,26.55,289.84
-0.037,-0.037,1.000,0.002,-0.002,0.000,0.085,0.456,-0.563,982.49,26.56,289.43
-0.037,-0.036,1.001,0.002,-0.002,-0.000,0.088,0.455,-0.566,982.37,26.55,290.40
-0.039,-0.036,0.999,0.001,-0.002,-0.000,0.088,0.455,-0.566,982.52,26.55,289.19
-0.038,-0.036,0.999,0.002,-0.002,-0.000,0.091,0.459,-0.562,982.51,26.55,289.21
-0.038,-0.036,0.999,0.002,-0.002,0.000,0.091,0.454,-0.564,982.52,26.55,289.14
-0.039,-0.036,1.000,0.002,-0.002,-0.001,0.089,0.453,-0.555,982.51,26.55,289.22
-0.038,-0.036,0.999,0.002,-0.002,-0.001,0.087,0.451,-0.563,982.45,26.55,289.70
-0.038,-0.036,0.998,0.002,-0.002,-0.000,0.088,0.454,-0.562,982.42,26.55,290.02
-0.037,-0.037,1.001,0.001,-0.002,-0.000,0.086,0.451,-0.562,982.50,26.55,289.34
-0.037,-0.036,1.000,0.002,-0.002,-0.001,0.086,0.451,-0.562,982.48,26.55,289.52
-0.038,-0.036,1.001,0.002,-0.002,-0.001,0.085,0.450,-0.557,982.55,26.56,288.90
-0.039,-0.036,1.000,0.002,-0.002,-0.000,0.086,0.452,-0.567,982.53,26.56,289.03
-0.038,-0.034,0.999,0.002,-0.002,-0.000,0.085,0.455,-0.562,982.49,26.55,289.41
-0.038,-0.035,0.999,0.002,-0.002,-0.000,0.087,0.451,-0.568,982.52,26.56,289.11
-0.039,-0.036,0.999,0.002,-0.002,-0.001,0.088,0.455,-0.563,982.52,26.55,289.12
-0.039,-0.035,0.999,0.001,-0.002,-0.000,0.084,0.453,-0.565,982.39,26.55,290.26
-0.038,-0.036,1.000,0.001,-0.002,-0.000,0.084,0.453,-0.565,982.53,26.55,289.04
-0.038,-0.035,0.999,0.002,-0.002,-0.000,0.089,0.453,-0.566,982.47,26.55,289.56
-0.039,-0.037,0.999,0.002,-0.002,0.000,0.085,0.458,-0.566,982.49,26.55,289.43
-0.039,-0.035,1.000,0.002,-0.002,-0.000,0.085,0.458,-0.563,982.42,26.55,290.03
-0.038,-0.036,0.999,0.002,-0.002,-0.000,0.087,0.460,-0.562,982.48,26.56,289.51
-0.039,-0.035,0.998,0.002,-0.002,-0.000,0.088,0.453,-0.564,982.48,26.55,289.48
-0.038,-0.034,1.000,0.002,-0.002,-0.000,0.087,0.453,-0.562,982.49,26.56,289.41
-0.038,-0.036,1.001,0.002,-0.002,-0.001,0.087,0.453,-0.562,982.51,26.55,289.24
-0.039,-0.036,1.000,0.002,-0.002,-0.000,0.088,0.456,-0.563,982.53,26.55,289.05
-0.038,-0.036,0.999,0.002,-0.002,-0.000,0.086,0.452,-0.561,982.45,26.55,289.75
-0.037,-0.035,1.001,0.002,-0.002,-0.000,0.089,0.452,-0.559,982.42,26.55,290.00
-0.039,-0.036,0.999,0.002,-0.002,-0.000,0.087,0.453,-0.558,982.48,26.55,289.50
-0.038,-0.037,0.999,0.002,-0.002,-0.000,0.088,0.455,-0.568,982.51,26.55,289.27
-0.039,-0.036,1.000,0.002,-0.002,-0.000,0.089,0.451,-0.567,982.52,26.55,289.14
-0.039,-0.036,1.000,0.002,-0.002,-0.000,0.089,0.451,-0.567,982.43,26.56,289.92
-0.038,-0.036,1.000,0.002,-0.002,-0.000,0.086,0.453,-0.569,982.54,26.55,288.95
-0.038,-0.036,1.000,0.002,-0.002,-0.000,0.087,0.453,-0.566,982.53,26.55,289.10
-0.039,-0.036,0.999,0.002,-0.002,-0.000,0.086,0.448,-0.567,982.44,26.55,289.79
-0.038,-0.036,1.000,0.002,-0.002,-0.000,0.089,0.452,-0.568,982.43,26.56,289.90
-0.038,-0.035,0.999,0.002,-0.002,-0.000,0.088,0.452,-0.562,982.50,26.55,289.31
-0.038,-0.036,1.000,0.002,-0.002,-0.001,0.090,0.452,-0.559,982.46,26.55,289.67
-0.039,-0.037,0.999,0.002,-0.002,-0.000,0.090,0.452,-0.566,982.43,26.56,289.92
-0.039,-0.036,0.999,0.001,-0.002,0.000,0.090,0.452,-0.566,982.54,26.55,288.96
-0.038,-0.036,1.000,0.002,-0.002,0.000,0.087,0.454,-0.561,982.49,26.55,289.44
-0.039,-0.037,1.000,0.001,-0.002,-0.000,0.085,0.451,-0.562,982.46,26.55,289.64
-0.039,-0.035,1.000,0.002,-0.002,-0.001,0.088,0.451,-0.562,982.51,26.55,289.26
-0.039,-0.035,1.001,0.001,-0.003,-0.001,0.087,0.451,-0.564,982.55,26.55,288.89
-0.038,-0.036,1.001,0.002,-0.002,-0.001,0.085,0.458,-0.565,982.53,26.55,289.10
-0.038,-0.036,0.998,0.002,-0.002,-0.000,0.085,0.455,-0.573,982.45,26.55,289.73
-0.039,-0.035,1.000,0.002,-0.002,-0.000,0.084,0.455,-0.573,982.48,26.55,289.46
-0.038,-0.036,1.000,0.002,-0.002,-0.000,0.085,0.453,-0.567,982.44,26.55,289.87
-0.038,-0.036,1.000,0.002,-0.002,-0.001,0.086,0.450,-0.570,982.44,26.55,289.81
-0.039,-0.035,0.999,0.002,-0.002,-0.001,0.087,0.453,-0.567,982.48,26.55,289.49
-0.039,-0.035,1.000,0.002,-0.002,-0.000,0.088,0.452,-0.558,982.53,26.55,289.09
-0.040,-0.035,0.999,0.002,-0.002,-0.000,0.084,0.454,-0.562,982.52,26.55,289.12
-0.039,-0.035,1.000,0.002,-0.002,-0.000,0.087,0.452,-0.571,982.46,26.55,289.67
-0.036,-0.036,1.000,0.001,-0.002,-0.001,0.087,0.452,-0.571,982.46,26.55,289.69
-0.038,-0.036,1.000,0.002,-0.002,-0.001,0.086,0.451,-0.567,982.48,26.55,289.49
-0.037,-0.035,1.000,0.002,-0.002,0.000,0.086,0.451,-0.564,982.40,26.55,290.16
-0.038,-0.036,0.999,0.002,-0.002,0.000,0.088,0.451,-0.564,982.54,26.55,288.99
-0.039,-0.036,0.999,0.002,-0.002,-0.000,0.082,0.447,-0.566,982.50,26.55,289.35
-0.039,-0.036,0.999,0.002,-0.002,-0.000,0.082,0.452,-0.566,982.54,26.55,288.97
-0.038,-0.036,0.999,0.002,-0.002,-0.000,0.083,0.452,-0.567,982.45,26.55,289.75
-0.038,-0.036,1.000,0.002,-0.002,-0.000,0.083,0.452,-0.567,982.46,26.55,289.65
-0.038,-0.036,1.001,0.002,-0.002,0.000,0.086,0.451,-0.567,982.48,26.56,289.48
-0.038,-0.037,0.998,0.002,-0.002,-0.000,0.089,0.450,-0.568,982.41,26.55,290.08
-0.038,-0.037,1.000,0.002,-0.002,-0.000,0.088,0.453,-0.568,982.53,26.55,289.10
-0.038,-0.036,0.999,0.002,-0.002,0.000,0.090,0.452,-0.565,982.42,26.55,289.98
-0.039,-0.036,1.001,0.002,-0.002,0.000,0.087,0.450,-0.565,982.41,26.55,290.07
-0.039,-0.036,1.000,0.002,-0.002,-0.000,0.089,0.452,-0.564,982.50,26.56,289.30
-0.038,-0.035,0.999,0.002,-0.002,-0.000,0.089,0.452,-0.564,982.45,26.55,289.75
-0.037,-0.037,0.999,0.002,-0.002,-0.000,0.089,0.451,-0.560,982.43,26.55,289.92
-0.038,-0.036,1.000,0.001,-0.002,0.000,0.090,0.453,-0.569,982.42,26.55,290.00
-0.039,-0.036,0.999,0.002,-0.002,0.000,0.091,0.451,-0.568,982.49,26.55,289.43
-0.038,-0.036,0.999,0.002,-0.002,-0.000,0.090,0.450,-0.567,982.44,26.55,289.84
-0.038,-0.036,0.999,0.002,-0.002,-0.000,0.086,0.449,-0.561,982.43,26.55,289.90
-0.038,-0.036,1.000,0.002,-0.002,-0.000,0.088,0.449,-0.566,982.49,26.55,289.42
-0.037,-0.035,0.999,0.001,-0.002,-0.000,0.088,0.449,-0.566,982.46,26.56,289.62
-0.037,-0.036,0.999,0.002,-0.002,-0.000,0.086,0.456,-0.566,982.43,26.55,289.94
-0.038,-0.035,1.000,0.002,-0.002,0.000,0.088,0.449,-0.567,982.48,26.55,289.45
-0.038,-0.035,0.999,0.002,-0.002,-0.000,0.083,0.448,-0.565,982.54,26.55,288.95
-0.039,-0.035,0.999,0.002,-0.002,-0.000,0.083,0.449,-0.568,982.53,26.56,289.09
-0.040,-0.036,1.000,0.002,-0.002,-0.000,0.082,0.453,-0.567,982.45,26.56,289.76
-0.039,-0.035,0.999,0.002,-0.002,0.000,0.084,0.456,-0.561,982.50,26.56,289.32
-0.039,-0.036,0.999,0.002,-0.002,-0.001,0.084,0.456,-0.561,982.49,26.56,289.36
-0.038,-0.035,0.999,0.002,-0.002,-0.000,0.086,0.456,-0.560,982.44,26.55,289.85
-0.037,-0.036,0.999,0.002,-0.002,-0.000,0.089,0.455,-0.562,982.44,26.56,289.84
-0.038,-0.036,1.000,0.002,-0.002,-0.000,0.086,0.458,-0.563,982.49,26.56,289.43
-0.039,-0.036,1.000,0.001,-0.002,-0.000,0.089,0.452,-0.561,982.44,26.55,289.86
-0.037,-0.035,1.000,0.002,-0.002,0.000,0.089,0.452,-0.561,982.44,26.56,289.80
-0.039,-0.036,0.999,0.002,-0.002,0.000,0.089,0.451,-0.558,982.49,26.56,289.39
-0.038,-0.036,1.000,0.001,-0.002,-0.000,0.089,0.451,-0.558,982.46,26.55,289.66
-0.039,-0.036,0.998,0.001,-0.002,-0.001,0.083,0.456,-0.551,982.46,26.55,289.66
-0.037,-0.035,1.000,0.002,-0.002,-0.001,0.085,0.456,-0.554,982.46,26.56,289.62
-0.039,-0.035,0.999,0.002,-0.002,-0.000,0.090,0.457,-0.556,982.46,26.55,289.68
-0.038,-0.035,0.999,0.002,-0.002,0.000,0.087,0.453,-0.564,982.46,26.55,289.62
-0.039,-0.036,1.000,0.002,-0.002,-0.000,0.087,0.457,-0.559,982.50,26.55,289.34
-0.038,-0.036,1.000,0.002,-0.002,-0.000,0.087,0.454,-0.565,982.45,26.56,289.74
-0.039,-0.036,1.000,0.002,-0.002,-0.000,0.087,0.454,-0.556,982.45,26.55,289.70
-0.039,-0.036,0.999,0.002,-0.002,-0.000,0.087,0.453,-0.556,982.39,26.56,290.23
-0.038,-0.036,1.000,0.002,-0.002,-0.000,0.082,0.452,-0.558,982.51,26.56,289.21
-0.039,-0.035,1.000,0.002,-0.002,-0.000,0.088,0.453,-0.557,982.49,26.55,289.36
-0.039,-0.034,0.999,0.002,-0.002,-0.001,0.089,0.453,-0.556,982.48,26.56,289.46
-0.038,-0.036,0.999,0.002,-0.002,0.000,0.086,0.453,-0.557,982.46,26.55,289.62
-0.038,-0.036,0.999,0.002,-0.002,-0.000,0.086,0.456,-0.559,982.47,26.55,289.58
-0.039,-0.035,1.000,0.002,-0.002,-0.000,0.086,0.449,-0.563,982.56,26.56,288.84
-0.038,-0.035,1.000,0.002,-0.002,-0.000,0.088,0.449,-0.563,982.44,26.55,289.85
-0.038,-0.036,1.000,0.002,-0.002,-0.001,0.085,0.455,-0.559,982.40,26.55,290.17
-0.037,-0.035,1.000,0.002,-0.002,-0.000,0.089,0.453,-0.563,982.45,26.56,289.76
-0.038,-0.036,0.998,0.002,-0.002,-0.000,0.083,0.451,-0.556,982.44,26.55,289.86
-0.038,-0.036,0.999,0.001,-0.002,-0.000,0.088,0.452,-0.555,982.46,26.55,289.70
-0.038,-0.035,1.000,0.002,-0.002,-0.001,0.087,0.451,-0.558,982.39,26.55,290.26
-0.038,-0.035,1.001,0.002,-0.002,-0.001,0.087,0.453,-0.557,982.47,26.55,289.55
-0.038,-0.036,0.999,0.002,-0.002,-0.000,0.087,0.453,-0.557,982.55,26.56,288.90
-0.038,-0.035,1.000,0.002,-0.002,-0.000,0.091,0.452,-0.560,982.50,26.55,289.31
-0.039,-0.036,0.998,0.002,-0.002,-0.000,0.089,0.454,-0.556,982.47,26.56,289.54
-0.039,-0.036,1.000,0.002,-0.002,0.000,0.088,0.454,-0.552,982.50,26.55,289.33
-0.039,-0.036,0.998,0.002,-0.002,0.000,0.086,0.448,-0.557,982.46,26.55,289.65
-0.039,-0.035,0.999,0.002,-0.002,-0.000,0.083,0.453,-0.565,982.48,26.55,289.49
-0.038,-0.036,1.001,0.002,-0.002,0.000,0.086,0.453,-0.563,982.49,26.56,289.42
-0.037,-0.036,1.000,0.002,-0.002,0.000,0.086,0.453,-0.563,982.50,26.55,289.31
-0.039,-0.036,0.999,0.002,-0.002,-0.000,0.087,0.453,-0.555,982.49,26.55,289.43
-0.039,-0.036,0.999,0.002,-0.002,0.000,0.088,0.453,-0.554,982.37,26.55,290.42
-0.039,-0.036,1.000,0.001,-0.002,-0.000,0.090,0.452,-0.555,982.56,26.56,288.80
-0.038,-0.035,1.000,0.002,-0.002,-0.000,0.088,0.453,-0.564,982.39,26.55,290.24
-0.037,-0.036,1.000,0.001,-0.002,-0.001,0.084,0.451,-0.554,982.47,26.55,289.53
-0.038,-0.036,1.000,0.001,-0.002,-0.000,0.087,0.453,-0.562,982.45,26.55,289.72
-0.038,-0.037,1.000,0.002,-0.002,0.000,0.087,0.453,-0.562,982.42,26.56,290.03
-0.038,-0.035,0.999,0.002,-0.002,-0.000,0.083,0.449,-0.562,982.46,26.55,289.70
-0.039,-0.036,1.000,0.002,-0.002,-0.000,0.088,0.454,-0.556,982.42,26.55,290.03
