ax,ay,az,gx,gy,gz,mx,my,mz,pressure,temperature,altitude
-0.017,-0.011,1.002,0.002,-0.002,-0.002,-0.403,0.149,-0.582,982.53,26.92,289.08
-0.017,-0.011,1.002,0.002,-0.002,-0.002,-0.400,0.149,-0.582,982.58,26.92,288.66
-0.017,-0.011,1.002,0.002,-0.002,-0.002,-0.405,0.148,-0.579,982.51,26.92,289.24
-0.015,-0.010,1.002,0.001,-0.002,-0.002,-0.405,0.144,-0.574,982.51,26.92,289.25
-0.015,-0.011,1.001,0.002,-0.002,-0.002,-0.404,0.144,-0.574,982.58,26.92,288.66
-0.017,-0.011,1.001,0.002,-0.002,-0.001,-0.403,0.146,-0.577,982.53,26.92,289.07
-0.018,-0.010,1.001,0.002,-0.002,-0.002,-0.403,0.147,-0.572,982.51,26.92,289.22
-0.017,-0.010,1.002,0.001,-0.003,-0.002,-0.402,0.147,-0.575,982.60,26.92,288.44
-0.016,-0.010,1.001,0.002,-0.002,-0.002,-0.402,0.142,-0.577,982.49,26.92,289.40
-0.016,-0.010,1.001,0.002,-0.002,-0.002,-0.401,0.145,-0.577,982.46,26.92,289.67
-0.016,-0.011,1.000,0.002,-0.002,-0.002,-0.403,0.147,-0.575,982.55,26.92,288.90
-0.018,-0.012,1.001,0.002,-0.002,-0.002,-0.403,0.147,-0.575,982.49,26.92,289.41
-0.016,-0.010,1.000,0.002,-0.002,-0.002,-0.404,0.151,-0.583,982.57,26.92,288.69
-0.016,-0.010,1.001,0.002,-0.002,-0.002,-0.400,0.147,-0.583,982.50,26.92,289.30
-0.016,-0.011,1.001,0.002,-0.002,-0.002,-0.403,0.147,-0.580,982.55,26.92,288.86
-0.016,-0.010,1.001,0.002,-0.002,-0.002,-0.407,0.145,-0.580,982.61,26.92,288.41
-0.017,-0.010,1.002,0.002,-0.003,-0.002,-0.402,0.148,-0.582,982.59,26.92,288.57
-0.016,-0.011,1.001,0.002,-0.002,-0.002,-0.398,0.146,-0.577,982.48,26.92,289.53
-0.016,-0.010,1.001,0.002,-0.002,-0.002,-0.398,0.146,-0.577,982.54,26.92,288.99
-0.017,-0.010,1.001,0.002,-0.002,-0.002,-0.402,0.148,-0.571,982.49,26.92,289.36
-0.017,-0.011,1.001,0.002,-0.003,-0.002,-0.406,0.147,-0.571,982.49,26.93,289.36
-0.018,-0.011,1.001,0.002,-0.002,-0.002,-0.402,0.146,-0.575,982.55,26.92,288.87
-0.016,-0.011,1.002,0.002,-0.002,-0.002,-0.403,0.142,-0.577,982.49,26.93,289.41
-0.017,-0.011,1.001,0.002,-0.002,-0.002,-0.404,0.143,-0.575,982.52,26.92,289.15
-0.016,-0.010,1.000,0.001,-0.002,-0.002,-0.403,0.140,-0.575,982.55,26.92,288.86
-0.017,-0.011,1.000,0.002,-0.002,-0.002,-0.403,0.140,-0.575,982.54,26.92,288.96
-0.017,-0.010,1.000,0.001,-0.002,-0.002,-0.403,0.147,-0.581,982.51,26.92,289.20
-0.016,-0.011,1.001,0.001,-0.002,-0.002,-0.410,0.145,-0.575,982.48,26.92,289.48
-0.017,-0.011,1.001,0.002,-0.002,-0.002,-0.407,0.143,-0.573,982.56,26.92,288.83
-0.016,-0.011,1.000,0.002,-0.002,-0.002,-0.404,0.144,-0.575,982.55,26.92,288.88
-0.016,-0.011,1.000,0.002,-0.002,-0.002,-0.404,0.144,-0.576,982.62,26.93,288.25
-0.016,-0.011,1.001,0.002,-0.002,-0.002,-0.408,0.145,-0.577,982.50,26.92,289.32
-0.018,-0.011,1.000,0.001,-0.002,-0.002,-0.408,0.145,-0.577,982.53,26.92,289.09
-0.016,-0.010,1.001,0.002,-0.003,-0.002,-0.402,0.145,-0.574,982.54,26.92,288.98
-0.018,-0.011,1.002,0.002,-0.003,-0.002,-0.407,0.143,-0.572,982.61,26.92,288.40
-0.016,-0.010,1.001,0.002,-0.003,-0.002,-0.409,0.145,-0.580,982.58,26.92,288.60
-0.016,-0.011,0.999,0.002,-0.002,-0.002,-0.404,0.148,-0.579,982.56,26.92,288.83
-0.017,-0.011,1.001,0.002,-0.002,-0.001,-0.403,0.143,-0.577,982.56,26.92,288.82
-0.017,-0.011,1.001,0.001,-0.002,-0.002,-0.402,0.147,-0.575,982.51,26.92,289.20
-0.017,-0.011,1.002,0.002,-0.002,-0.002,-0.402,0.147,-0.575,982.51,26.92,289.24
-0.017,-0.012,1.000,0.001,-0.002,-0.002,-0.408,0.145,-0.573,982.58,26.93,288.65
-0.016,-0.011,1.001,0.001,-0.002,-0.002,-0.406,0.144,-0.580,982.60,26.92,288.49
-0.016,-0.011,1.000,0.001,-0.002,-0.002,-0.401,0.145,-0.579,982.53,26.92,289.10
-0.017,-0.011,1.001,0.002,-0.002,-0.002,-0.402,0.149,-0.575,982.53,26.92,289.06
-0.018,-0.010,1.000,0.001,-0.002,-0.002,-0.404,0.148,-0.579,982.53,26.92,289.05
-0.017,-0.011,1.001,0.001,-0.002,-0.002,-0.407,0.143,-0.580,982.58,26.92,288.65
-0.017,-0.010,1.003,0.002,-0.002,-0.002,-0.407,0.143,-0.580,982.55,26.92,288.90
-0.016,-0.011,1.001,0.002,-0.002,-0.002,-0.401,0.146,-0.581,982.51,26.92,289.24
-0.016,-0.010,1.002,0.002,-0.002,-0.002,-0.404,0.146,-0.575,982.56,26.92,288.84
-0.018,-0.011,1.001,0.001,-0.003,-0.002,-0.403,0.145,-0.580,982.57,26.92,288.71
-0.016,-0.010,1.002,0.002,-0.002,-0.002,-0.401,0.147,-0.578,982.56,26.92,288.82
-0.016,-0.011,1.001,0.002,-0.002,-0.001,-0.402,0.141,-0.575,982.53,26.92,289.09
-0.017,-0.010,1.002,0.002,-0.002,-0.002,-0.402,0.144,-0.576,982.56,26.92,288.77
-0.017,-0.011,1.001,0.002,-0.002,-0.002,-0.402,0.144,-0.579,982.47,26.92,289.55
-0.016,-0.010,1.000,0.001,-0.002,-0.002,-0.402,0.144,-0.579,982.51,26.92,289.22
-0.016,-0.011,1.001,0.001,-0.002,-0.002,-0.404,0.142,-0.578,982.59,26.92,288.57
-0.017,-0.011,1.002,0.002,-0.002,-0.002,-0.403,0.139,-0.577,982.51,26.92,289.26
-0.018,-0.012,1.000,0.002,-0.002,-0.002,-0.405,0.144,-0.578,982.58,26.92,288.61
-0.017,-0.010,1.000,0.001,-0.003,-0.002,-0.405,0.142,-0.579,982.58,26.93,288.60
-0.017,-0.011,1.000,0.002,-0.002,-0.002,-0.402,0.143,-0.577,982.60,26.92,288.48
-0.016,-0.010,1.001,0.002,-0.002,-0.002,-0.402,0.140,-0.573,982.56,26.92,288.84
-0.017,-0.011,1.004,0.002,-0.002,-0.002,-0.402,0.140,-0.573,982.58,26.92,288.60
-0.017,-0.011,1.003,0.002,-0.002,-0.002,-0.404,0.147,-0.574,982.60,26.92,288.43
-0.017,-0.011,1.000,0.002,-0.002,-0.002,-0.405,0.143,-0.571,982.55,26.92,288.87
-0.017,-0.011,0.999,0.001,-0.002,-0.002,-0.403,0.143,-0.573,982.55,26.92,288.88
-0.016,-0.011,1.001,0.001,-0.002,-0.002,-0.401,0.143,-0.577,982.48,26.92,289.45
-0.017,-0.011,1.002,0.001,-0.002,-0.001,-0.398,0.140,-0.577,982.54,26.92,288.95
-0.017,-0.012,1.000,0.001,-0.002,-0.001,-0.400,0.141,-0.575,982.58,26.92,288.60
-0.016,-0.011,1.001,0.002,-0.002,-0.002,-0.400,0.141,-0.575,982.52,26.92,289.13
-0.017,-0.011,1.003,0.002,-0.002,-0.002,-0.402,0.140,-0.577,982.62,26.92,288.29
-0.018,-0.011,1.001,0.002,-0.003,-0.002,-0.399,0.140,-0.576,982.47,26.92,289.59
-0.016,-0.011,1.003,0.002,-0.002,-0.002,-0.402,0.144,-0.574,982.48,26.92,289.46
-0.016,-0.011,1.002,0.002,-0.002,-0.001,-0.400,0.143,-0.577,982.53,26.92,289.07
-0.017,-0.011,1.001,0.002,-0.002,-0.002,-0.401,0.143,-0.576,982.62,26.92,288.26
-0.016,-0.011,1.001,0.002,-0.002,-0.002,-0.399,0.145,-0.577,982.54,26.92,289.00
-0.017,-0.010,1.001,0.002,-0.003,-0.002,-0.399,0.145,-0.577,982.57,26.92,288.69
-0.018,-0.011,1.004,0.002,-0.003,-0.002,-0.401,0.146,-0.574,982.49,26.92,289.41
-0.017,-0.011,1.000,0.001,-0.002,-0.002,-0.399,0.146,-0.578,982.44,26.92,289.84
-0.016,-0.012,1.000,0.002,-0.002,-0.002,-0.407,0.147,-0.575,982.51,26.92,289.19
-0.017,-0.010,1.003,0.001,-0.002,-0.002,-0.404,0.147,-0.577,982.51,26.92,289.19
-0.018,-0.010,1.003,0.001,-0.002,-0.002,-0.400,0.144,-0.577,982.60,26.92,288.46
-0.017,-0.012,0.999,0.001,-0.002,-0.002,-0.402,0.148,-0.579,982.57,26.92,288.68
-0.016,-0.011,0.999,0.002,-0.002,-0.002,-0.402,0.148,-0.579,982.52,26.92,289.11
-0.017,-0.012,1.001,0.002,-0.002,-0.002,-0.405,0.148,-0.575,982.51,26.92,289.24
-0.016,-0.011,1.002,0.002,-0.002,-0.002,-0.403,0.145,-0.583,982.57,26.92,288.68
-0.018,-0.011,1.003,0.002,-0.002,-0.002,-0.404,0.146,-0.582,982.56,26.92,288.81
-0.016,-0.010,1.004,0.002,-0.002,-0.002,-0.406,0.143,-0.580,982.52,26.92,289.13
-0.018,-0.011,1.004,0.002,-0.002,-0.002,-0.403,0.144,-0.579,982.62,26.92,288.27
-0.016,-0.010,1.001,0.001,-0.002,-0.002,-0.406,0.145,-0.578,982.54,26.92,288.96
-0.016,-0.012,0.997,0.001,-0.002,-0.002,-0.406,0.145,-0.578,982.61,26.92,288.36
-0.017,-0.010,1.000,0.001,-0.002,-0.002,-0.406,0.145,-0.576,982.54,26.92,288.95
-0.017,-0.011,1.002,0.002,-0.002,-0.002,-0.409,0.145,-0.572,982.53,26.92,289.05
-0.017,-0.010,1.000,0.002,-0.002,-0.002,-0.404,0.143,-0.577,982.55,26.92,288.89
-0.017,-0.011,1.000,0.002,-0.002,-0.002,-0.402,0.145,-0.578,982.49,26.92,289.37
-0.017,-0.011,1.001,0.002,-0.002,-0.002,-0.407,0.144,-0.582,982.62,26.92,288.29
-0.017,-0.011,1.001,0.002,-0.002,-0.002,-0.411,0.145,-0.580,982.53,26.92,289.04
-0.018,-0.011,1.001,0.002,-0.002,-0.002,-0.411,0.145,-0.580,982.55,26.92,288.89
-0.019,-0.010,1.001,0.002,-0.002,-0.001,-0.403,0.148,-0.578,982.48,26.92,289.49
-0.017,-0.012,1.002,0.002,-0.002,-0.002,-0.405,0.145,-0.577,982.55,26.92,288.88
-0.016,-0.011,1.002,0.002,-0.002,-0.002,-0.409,0.145,-0.583,982.56,26.92,288.78
-0.016,-0.011,1.001,0.001,-0.002,-0.002,-0.403,0.143,-0.585,982.55,26.92,288.92
-0.017,-0.011,1.000,0.002,-0.002,-0.002,-0.399,0.138,-0.582,982.55,26.92,288.89
-0.017,-0.012,1.001,0.002,-0.002,-0.002,-0.402,0.139,-0.577,982.60,26.92,288.42
-0.018,-0.012,1.002,0.002,-0.002,-0.002,-0.402,0.139,-0.577,982.51,26.92,289.25
-0.016,-0.011,1.002,0.002,-0.002,-0.002,-0.401,0.137,-0.575,982.51,26.92,289.27
-0.018,-0.010,1.002,0.002,-0.002,-0.002,-0.402,0.137,-0.576,982.56,26.92,288.77
-0.016,-0.011,1.001,0.002,-0.002,-0.002,-0.402,0.139,-0.572,982.49,26.92,289.40
-0.016,-0.011,1.001,0.002,-0.003,-0.002,-0.401,0.138,-0.566,982.49,26.92,289.44
-0.018,-0.012,1.002,0.002,-0.002,-0.002,-0.402,0.141,-0.576,982.50,26.92,289.33
-0.017,-0.010,1.001,0.002,-0.002,-0.001,-0.397,0.143,-0.575,982.42,26.92,289.97
-0.016,-0.012,1.000,0.002,-0.002,-0.002,-0.397,0.141,-0.572,982.53,26.92,289.02
-0.016,-0.011,1.002,0.002,-0.002,-0.002,-0.402,0.141,-0.572,982.54,26.92,288.98
-0.016,-0.010,1.001,0.002,-0.002,-0.002,-0.401,0.141,-0.574,982.55,26.92,288.90
-0.018,-0.010,1.002,0.001,-0.002,-0.002,-0.400,0.142,-0.580,982.58,26.92,288.66
-0.017,-0.011,1.002,0.002,-0.002,-0.002,-0.400,0.143,-0.583,982.53,26.92,289.06
-0.016,-0.011,1.001,0.002,-0.002,-0.002,-0.397,0.142,-0.575,982.59,26.92,288.56
-0.017,-0.010,1.001,0.002,-0.002,-0.002,-0.402,0.143,-0.580,982.50,26.92,289.27
-0.016,-0.012,1.001,0.002,-0.002,-0.002,-0.402,0.143,-0.573,982.62,26.92,288.30
-0.016,-0.011,1.001,0.002,-0.002,-0.002,-0.402,0.143,-0.573,982.57,26.92,288.70
-0.018,-0.011,1.001,0.002,-0.002,-0.002,-0.399,0.144,-0.573,982.48,26.92,289.49
-0.018,-0.011,1.000,0.001,-0.002,-0.002,-0.399,0.142,-0.580,982.49,26.92,289.37
-0.016,-0.011,1.000,0.002,-0.002,-0.002,-0.404,0.139,-0.580,982.54,26.92,289.00
-0.016,-0.011,1.000,0.002,-0.002,-0.002,-0.401,0.141,-0.583,982.63,26.92,288.20
-0.017,-0.011,1.002,0.002,-0.002,-0.002,-0.400,0.145,-0.581,982.51,26.92,289.21
-0.017,-0.011,1.001,0.002,-0.002,-0.002,-0.401,0.142,-0.578,982.54,26.92,289.01
-0.016,-0.011,1.001,0.002,-0.002,-0.002,-0.401,0.142,-0.578,982.49,26.92,289.43
-0.017,-0.010,1.001,0.002,-0.002,-0.002,-0.400,0.142,-0.579,982.54,26.92,288.97
-0.017,-0.010,1.002,0.002,-0.002,-0.002,-0.402,0.144,-0.579,982.56,26.92,288.81
-0.017,-0.011,1.000,0.002,-0.002,-0.002,-0.398,0.144,-0.577,982.57,26.92,288.69
-0.018,-0.011,1.001,0.002,-0.002,-0.002,-0.400,0.143,-0.574,982.57,26.92,288.73
-0.016,-0.010,1.002,0.002,-0.002,-0.002,-0.400,0.140,-0.575,982.61,26.92,288.37
-0.015,-0.011,1.002,0.002,-0.002,-0.002,-0.398,0.141,-0.574,982.53,26.92,289.07
-0.016,-0.012,1.001,0.002,-0.002,-0.002,-0.398,0.141,-0.574,982.55,26.92,288.92
-0.017,-0.011,1.001,0.002,-0.002,-0.002,-0.399,0.142,-0.574,982.48,26.92,289.47
-0.017,-0.010,1.001,0.002,-0.002,-0.002,-0.401,0.143,-0.575,982.59,26.92,288.51
-0.017,-0.011,1.002,0.002,-0.002,-0.002,-0.396,0.144,-0.582,982.57,26.92,288.72
-0.017,-0.011,1.001,0.002,-0.002,-0.001,-0.399,0.143,-0.575,982.51,26.92,289.25
-0.016,-0.011,1.001,0.002,-0.002,-0.002,-0.398,0.143,-0.575,982.49,26.92,289.37
-0.017,-0.011,1.001,0.001,-0.002,-0.002,-0.398,0.141,-0.567,982.54,26.92,288.95
-0.017,-0.010,1.002,0.002,-0.002,-0.002,-0.398,0.141,-0.567,982.62,26.92,288.29
-0.018,-0.011,1.001,0.002,-0.002,-0.002,-0.399,0.147,-0.576,982.61,26.92,288.42
-0.016,-0.011,1.001,0.002,-0.002,-0.002,-0.402,0.144,-0.581,982.61,26.92,288.40
-0.018,-0.010,1.001,0.002,-0.002,-0.002,-0.401,0.145,-0.581,982.65,26.92,288.02
-0.018,-0.011,1.002,0.002,-0.002,-0.001,-0.398,0.141,-0.574,982.58,26.92,288.61
-0.017,-0.010,1.000,0.001,-0.002,-0.002,-0.401,0.140,-0.578,982.57,26.92,288.74
-0.018,-0.010,1.002,0.001,-0.002,-0.002,-0.397,0.142,-0.577,982.55,26.92,288.87
-0.017,-0.011,1.002,0.002,-0.002,-0.002,-0.397,0.142,-0.577,982.50,26.92,289.31
-0.017,-0.010,1.000,0.002,-0.002,-0.002,-0.401,0.147,-0.573,982.52,26.92,289.17
-0.017,-0.012,1.000,0.001,-0.002,-0.002,-0.399,0.144,-0.580,982.58,26.92,288.67
-0.017,-0.011,1.001,0.002,-0.002,-0.002,-0.399,0.147,-0.578,982.52,26.92,289.17
-0.017,-0.011,1.001,0.002,-0.002,-0.001,-0.402,0.145,-0.578,982.49,26.93,289.39
-0.017,-0.011,1.002,0.002,-0.002,-0.002,-0.400,0.146,-0.576,982.52,26.92,289.18
-0.016,-0.011,1.002,0.002,-0.002,-0.002,-0.399,0.142,-0.578,982.59,26.92,288.51
-0.017,-0.010,1.000,0.002,-0.002,-0.002,-0.399,0.142,-0.578,982.51,26.92,289.23
-0.017,-0.012,1.001,0.002,-0.002,-0.002,-0.403,0.146,-0.568,982.54,26.92,288.98
-0.017,-0.011,1.001,0.001,-0.002,-0.002,-0.400,0.147,-0.575,982.54,26.92,288.96
-0.017,-0.010,1.002,0.001,-0.002,-0.002,-0.403,0.147,-0.570,982.63,26.92,288.18
-0.017,-0.010,1.001,0.002,-0.002,-0.002,-0.397,0.146,-0.570,982.53,26.92,289.09
-0.018,-0.010,1.001,0.002,-0.002,-0.002,-0.404,0.145,-0.578,982.53,26.92,289.05
-0.016,-0.011,1.001,0.002,-0.002,-0.001,-0.397,0.145,-0.574,982.60,26.92,288.48
-0.017,-0.012,1.002,0.002,-0.002,-0.002,-0.397,0.145,-0.576,982.54,26.92,289.01
-0.017,-0.011,1.001,0.002,-0.002,-0.002,-0.401,0.147,-0.576,982.54,26.92,288.99
-0.018,-0.010,1.001,0.001,-0.003,-0.001,-0.401,0.150,-0.574,982.54,26.92,288.94
-0.017,-0.010,1.001,0.001,-0.002,-0.002,-0.398,0.147,-0.579,982.51,26.92,289.19
-0.017,-0.011,1.000,0.002,-0.003,-0.002,-0.395,0.144,-0.578,982.60,26.92,288.46
-0.017,-0.011,1.001,0.002,-0.002,-0.002,-0.399,0.143,-0.579,982.52,26.92,289.18
-0.017,-0.011,1.001,0.002,-0.002,-0.002,-0.402,0.145,-0.579,982.56,26.92,288.77
-0.018,-0.011,1.002,0.002,-0.002,-0.002,-0.402,0.146,-0.582,982.53,26.92,289.09
-0.017,-0.012,1.001,0.002,-0.002,-0.002,-0.397,0.146,-0.582,982.58,26.92,288.61
-0.017,-0.011,1.000,0.002,-0.002,-0.002,-0.401,0.144,-0.578,982.54,26.92,289.01
-0.017,-0.011,1.001,0.002,-0.002,-0.001,-0.401,0.147,-0.574,982.58,26.92,288.60
-0.016,-0.011,1.002,0.002,-0.002,-0.002,-0.401,0.145,-0.573,982.57,26.92,288.71
-0.018,-0.012,1.001,0.002,-0.002,-0.002,-0.403,0.145,-0.577,982.53,26.92,289.02
-0.016,-0.011,1.001,0.002,-0.002,-0.002,-0.402,0.142,-0.578,982.59,26.92,288.51
-0.016,-0.011,1.001,0.002,-0.002,-0.001,-0.403,0.145,-0.574,982.52,26.92,289.11
-0.016,-0.011,1.002,0.002,-0.002,-0.002,-0.403,0.145,-0.574,982.48,26.92,289.48
-0.017,-0.010,1.001,0.002,-0.002,-0.002,-0.400,0.143,-0.576,982.54,26.92,288.95
-0.019,-0.011,1.001,0.002,-0.002,-0.002,-0.401,0.148,-0.576,982.57,26.92,288.73
-0.016,-0.011,1.000,0.001,-0.002,-0.002,-0.402,0.140,-0.572,982.58,26.92,288.59
-0.016,-0.011,1.000,0.002,-0.002,-0.002,-0.401,0.145,-0.569,982.49,26.92,289.40
-0.016,-0.012,1.001,0.002,-0.002,-0.002,-0.397,0.145,-0.573,982.62,26.92,288.30
-0.017,-0.012,1.001,0.002,-0.002,-0.002,-0.397,0.141,-0.578,982.56,26.92,288.83
-0.018,-0.011,1.001,0.002,-0.002,-0.002,-0.397,0.141,-0.578,982.59,26.92,288.52
-0.018,-0.011,1.001,0.002,-0.002,-0.002,-0.400,0.142,-0.574,982.55,26.92,288.86
-0.017,-0.010,1.001,0.002,-0.002,-0.002,-0.395,0.140,-0.572,982.56,26.92,288.77
-0.017,-0.012,1.001,0.002,-0.002,-0.002,-0.397,0.147,-0.570,982.54,26.92,289.00
-0.017,-0.011,1.002,0.002,-0.002,-0.002,-0.397,0.146,-0.568,982.58,26.92,288.62
-0.015,-0.011,1.000,0.002,-0.002,-0.002,-0.397,0.144,-0.574,982.52,26.92,289.15
-0.018,-0.011,1.001,0.002,-0.002,-0.002,-0.399,0.142,-0.576,982.57,26.92,288.69
-0.016,-0.012,1.001,0.002,-0.002,-0.002,-0.399,0.142,-0.576,982.55,26.92,288.90
-0.018,-0.011,1.001,0.002,-0.002,-0.002,-0.400,0.144,-0.573,982.56,26.92,288.77
-0.017,-0.011,1.000,0.002,-0.002,-0.002,-0.397,0.140,-0.570,982.54,26.92,288.99
-0.017,-0.011,1.002,0.002,-0.002,-0.002,-0.401,0.141,-0.573,982.60,26.92,288.43
-0.017,-0.011,1.001,0.002,-0.002,-0.002,-0.403,0.141,-0.581,982.57,26.92,288.71
-0.016,-0.010,1.002,0.002,-0.003,-0.002,-0.401,0.144,-0.589,982.61,26.92,288.35
-0.016,-0.012,1.002,0.001,-0.002,-0.002,-0.399,0.143,-0.582,982.62,26.92,288.29
-0.016,-0.011,1.000,0.002,-0.002,-0.002,-0.399,0.143,-0.582,982.57,26.92,288.68
-0.017,-0.010,1.001,0.002,-0.002,-0.002,-0.397,0.148,-0.578,982.57,26.92,288.71
-0.018,-0.010,1.002,0.002,-0.002,-0.002,-0.403,0.144,-0.577,982.59,26.92,288.54
-0.016,-0.011,1.000,0.002,-0.002,-0.002,-0.402,0.143,-0.577,982.54,26.92,288.95
-0.018,-0.010,1.001,0.002,-0.002,-0.002,-0.398,0.146,-0.582,982.57,26.92,288.73
-0.017,-0.010,1.001,0.002,-0.002,-0.002,-0.400,0.153,-0.578,982.53,26.92,289.05
-0.016,-0.011,1.001,0.002,-0.002,-0.002,-0.399,0.143,-0.584,982.56,26.92,288.78
-0.015,-0.011,1.002,0.002,-0.002,-0.002,-0.399,0.143,-0.584,982.53,26.92,289.09
-0.017,-0.011,1.002,0.002,-0.002,-0.002,-0.404,0.146,-0.576,982.51,26.92,289.26
-0.018,-0.010,1.002,0.002,-0.002,-0.002,-0.401,0.145,-0.576,982.57,26.92,288.71
-0.017,-0.011,1.000,0.002,-0.002,-0.002,-0.403,0.145,-0.573,982.58,26.92,288.65
-0.017,-0.012,1.001,0.002,-0.002,-0.002,-0.402,0.141,-0.573,982.61,26.92,288.36
-0.017,-0.011,1.002,0.002,-0.002,-0.002,-0.403,0.145,-0.571,982.56,26.92,288.84
-0.017,-0.011,1.001,0.002,-0.002,-0.002,-0.402,0.143,-0.578,982.56,26.92,288.84
-0.016,-0.011,1.001,0.002,-0.002,-0.002,-0.402,0.143,-0.578,982.51,26.92,289.22
-0.016,-0.010,1.001,0.001,-0.002,-0.002,-0.399,0.141,-0.575,982.61,26.92,288.34
-0.017,-0.010,1.001,0.002,-0.002,-0.002,-0.403,0.145,-0.580,982.56,26.92,288.78
-0.017,-0.010,1.000,0.002,-0.002,-0.002,-0.399,0.148,-0.576,982.59,26.92,288.51
-0.017,-0.010,1.001,0.002,-0.002,-0.002,-0.402,0.146,-0.571,982.44,26.92,289.85
-0.017,-0.011,1.001,0.002,-0.002,-0.002,-0.400,0.144,-0.577,982.52,26.92,289.13
-0.016,-0.010,1.002,0.002,-0.002,-0.002,-0.403,0.140,-0.578,982.58,26.92,288.66
-0.017,-0.011,1.000,0.001,-0.002,-0.002,-0.403,0.140,-0.578,982.66,26.92,287.98
-0.016,-0.010,1.001,0.002,-0.002,-0.002,-0.403,0.144,-0.577,982.53,26.92,289.03
-0.016,-0.010,1.001,0.002,-0.002,-0.002,-0.400,0.141,-0.573,982.50,26.92,289.34
-0.016,-0.010,1.002,0.001,-0.002,-0.002,-0.399,0.144,-0.573,982.55,26.92,288.93
-0.016,-0.011,1.002,0.002,-0.002,-0.002,-0.398,0.143,-0.577,982.60,26.93,288.48
-0.017,-0.011,1.002,0.002,-0.002,-0.002,-0.398,0.146,-0.573,982.55,26.92,288.93
-0.015,-0.011,1.002,0.002,-0.002,-0.001,-0.398,0.142,-0.574,982.63,26.92,288.22
-0.017,-0.010,1.002,0.002,-0.002,-0.002,-0.398,0.142,-0.575,982.52,26.92,289.11
-0.019,-0.010,1.001,0.001,-0.002,-0.002,-0.398,0.142,-0.575,982.62,26.92,288.30
-0.017,-0.011,1.001,0.002,-0.002,-0.001,-0.396,0.143,-0.571,982.57,26.92,288.68
-0.018,-0.011,1.002,0.002,-0.002,-0.002,-0.399,0.144,-0.573,982.64,26.92,288.12
-0.016,-0.012,1.002,0.002,-0.002,-0.002,-0.398,0.142,-0.579,982.59,26.92,288.56
-0.017,-0.011,1.002,0.002,-0.003,-0.002,-0.398,0.145,-0.573,982.57,26.92,288.75
-0.016,-0.012,1.002,0.002,-0.002,-0.002,-0.398,0.143,-0.573,982.59,26.92,288.51
-0.018,-0.011,1.002,0.002,-0.002,-0.002,-0.401,0.142,-0.575,982.48,26.92,289.46
-0.019,-0.011,1.000,0.001,-0.002,-0.002,-0.401,0.142,-0.575,982.48,26.92,289.50
-0.017,-0.011,1.001,0.002,-0.002,-0.002,-0.401,0.139,-0.573,982.49,26.92,289.36
-0.018,-0.011,1.002,0.001,-0.002,-0.002,-0.402,0.144,-0.573,982.50,26.92,289.29
-0.017,-0.010,1.001,0.002,-0.002,-0.002,-0.400,0.141,-0.575,982.51,26.92,289.25
-0.017,-0.011,1.001,0.001,-0.002,-0.002,-0.399,0.138,-0.577,982.59,26.92,288.57
-0.017,-0.010,1.002,0.001,-0.002,-0.002,-0.398,0.144,-0.577,982.61,26.92,288.36
-0.016,-0.011,1.000,0.002,-0.002,-0.002,-0.398,0.140,-0.580,982.58,26.92,288.61
-0.016,-0.009,1.001,0.002,-0.002,-0.002,-0.398,0.140,-0.580,982.47,26.92,289.60
-0.017,-0.010,1.000,0.001,-0.003,-0.002,-0.401,0.143,-0.574,982.56,26.92,288.78
-0.018,-0.011,1.002,0.002,-0.002,-0.002,-0.398,0.140,-0.580,982.53,26.92,289.05
-0.017,-0.011,1.001,0.002,-0.002,-0.002,-0.401,0.144,-0.579,982.55,26.92,288.90
-0.017,-0.010,1.001,0.002,-0.002,-0.002,-0.400,0.147,-0.573,982.59,26.92,288.56
-0.017,-0.011,1.000,0.002,-0.002,-0.002,-0.397,0.146,-0.572,982.62,26.92,288.32
-0.018,-0.011,1.000,0.001,-0.002,-0.001,-0.397,0.149,-0.576,982.51,26.92,289.21
-0.017,-0.011,1.002,0.002,-0.002,-0.002,-0.397,0.149,-0.576,982.50,26.92,289.29
-0.017,-0.010,1.002,0.001,-0.002,-0.002,-0.399,0.147,-0.580,982.58,26.92,288.63
-0.016,-0.010,1.003,0.002,-0.002,-0.002,-0.398,0.143,-0.577,982.53,26.92,289.07
-0.017,-0.010,0.998,0.001,-0.002,-0.002,-0.399,0.148,-0.575,982.65,26.92,288.04
-0.017,-0.010,0.997,0.002,-0.002,-0.002,-0.398,0.148,-0.572,982.61,26.92,288.40
-0.018,-0.010,1.007,0.002,-0.002,-0.002,-0.399,0.145,-0.576,982.59,26.92,288.55
-0.017,-0.010,1.005,0.001,-0.002,-0.002,-0.401,0.149,-0.581,982.58,26.92,288.67
-0.017,-0.010,0.997,0.001,-0.002,-0.002,-0.401,0.149,-0.581,982.50,26.92,289.31
-0.017,-0.012,1.002,0.002,-0.002,-0.002,-0.397,0.150,-0.581,982.52,26.92,289.13
-0.017,-0.010,1.004,0.001,-0.002,-0.002,-0.399,0.147,-0.581,982.52,26.92,289.13
-0.016,-0.011,1.001,0.001,-0.002,-0.002,-0.401,0.147,-0.577,982.60,26.93,288.43
-0.017,-0.012,1.000,0.001,-0.002,-0.002,-0.402,0.151,-0.577,982.53,26.92,289.03
-0.017,-0.012,1.002,0.002,-0.002,-0.002,-0.402,0.149,-0.576,982.55,26.92,288.93
-0.016,-0.011,1.001,0.002,-0.002,-0.002,-0.400,0.147,-0.576,982.55,26.92,288.85
-0.017,-0.010,1.002,0.002,-0.002,-0.002,-0.400,0.147,-0.576,982.63,26.92,288.24
-0.017,-0.011,1.002,0.002,-0.002,-0.002,-0.400,0.144,-0.575,982.58,26.92,288.63
-0.018,-0.011,1.002,0.002,-0.002,-0.002,-0.399,0.143,-0.569,982.53,26.92,289.09
-0.017,-0.011,1.001,0.002,-0.002,-0.002,-0.397,0.146,-0.573,982.57,26.92,288.68
-0.017,-0.010,1.002,0.001,-0.002,-0.002,-0.400,0.151,-0.575,982.51,26.92,289.23
-0.018,-0.010,1.000,0.001,-0.002,-0.002,-0.397,0.151,-0.573,982.55,26.92,288.87
-0.017,-0.011,1.002,0.002,-0.002,-0.002,-0.399,0.148,-0.572,982.56,26.92,288.84
-0.017,-0.011,1.002,0.001,-0.003,-0.002,-0.399,0.148,-0.572,982.57,26.92,288.73
-0.017,-0.011,1.001,0.002,-0.002,-0.002,-0.405,0.149,-0.572,982.54,26.92,288.94
-0.015,-0.011,1.001,0.002,-0.002,-0.002,-0.402,0.148,-0.574,982.52,26.92,289.11
-0.018,-0.010,1.001,0.001,-0.002,-0.002,-0.399,0.146,-0.575,982.49,26.92,289.39
-0.017,-0.011,1.001,0.002,-0.002,-0.002,-0.397,0.146,-0.577,982.55,26.92,288.86
-0.016,-0.011,1.001,0.001,-0.003,-0.002,-0.405,0.149,-0.583,982.59,26.92,288.54
-0.017,-0.010,1.002,0.002,-0.002,-0.002,-0.402,0.143,-0.579,982.56,26.92,288.80
-0.017,-0.011,1.001,0.002,-0.002,-0.002,-0.402,0.143,-0.573,982.49,26.92,289.36
-0.017,-0.011,1.000,0.002,-0.003,-0.001,-0.403,0.146,-0.573,982.54,26.92,289.00
-0.017,-0.011,1.001,0.002,-0.002,-0.002,-0.404,0.148,-0.575,982.54,26.92,288.96
-0.017,-0.011,1.002,0.002,-0.002,-0.002,-0.402,0.145,-0.582,982.51,26.92,289.27
-0.018,-0.011,0.996,0.002,-0.002,-0.002,-0.401,0.148,-0.581,982.60,26.92,288.50
-0.018,-0.011,1.004,0.002,-0.002,-0.002,-0.403,0.142,-0.572,982.57,26.92,288.73
-0.017,-0.010,1.005,0.002,-0.002,-0.002,-0.404,0.147,-0.573,982.50,26.92,289.33
-0.016,-0.011,1.000,0.001,-0.002,-0.002,-0.404,0.144,-0.573,982.51,26.92,289.22
-0.017,-0.010,1.000,0.001,-0.002,-0.002,-0.400,0.144,-0.573,982.55,26.92,288.87
-0.017,-0.010,1.002,0.002,-0.003,-0.002,-0.401,0.148,-0.574,982.58,26.92,288.63
-0.016,-0.011,1.000,0.002,-0.003,-0.002,-0.401,0.148,-0.574,982.56,26.92,288.82
-0.017,-0.010,1.002,0.002,-0.002,-0.002,-0.405,0.146,-0.568,982.56,26.92,288.76
-0.017,-0.012,1.001,0.002,-0.002,-0.002,-0.402,0.146,-0.572,982.57,26.92,288.74
-0.017,-0.011,1.002,0.002,-0.002,-0.002,-0.403,0.145,-0.568,982.62,26.92,288.31
-0.016,-0.011,1.000,0.002,-0.002,-0.002,-0.407,0.149,-0.572,982.50,26.92,289.29
-0.016,-0.011,1.002,0.002,-0.002,-0.002,-0.407,0.149,-0.572,982.63,26.92,288.22
-0.017,-0.011,1.001,0.001,-0.002,-0.002,-0.403,0.145,-0.576,982.57,26.92,288.72
-0.016,-0.011,1.001,0.001,-0.002,-0.002,-0.403,0.141,-0.567,982.59,26.92,288.56
-0.018,-0.012,1.000,0.002,-0.002,-0.002,-0.405,0.143,-0.571,982.55,26.92,288.86
-0.018,-0.011,1.003,0.001,-0.002,-0.002,-0.406,0.143,-0.576,982.66,26.92,287.98
-0.017,-0.011,1.003,0.001,-0.002,-0.002,-0.404,0.141,-0.569,982.55,26.92,288.88
-0.016,-0.011,1.001,0.001,-0.002,-0.002,-0.400,0.140,-0.574,982.58,26.92,288.67
-0.017,-0.010,1.000,0.002,-0.002,-0.002,-0.400,0.140,-0.574,982.60,26.92,288.48
-0.016,-0.012,1.001,0.002,-0.002,-0.002,-0.404,0.142,-0.569,982.60,26.92,288.46
-0.016,-0.012,1.000,0.001,-0.002,-0.002,-0.401,0.142,-0.573,982.62,26.92,288.32
-0.017,-0.011,1.000,0.002,-0.002,-0.001,-0.401,0.142,-0.572,982.56,26.92,288.82
-0.017,-0.011,1.003,0.002,-0.002,-0.001,-0.399,0.144,-0.577,982.66,26.92,287.95
-0.016,-0.011,1.002,0.002,-0.002,-0.002,-0.405,0.142,-0.574,982.53,26.92,289.07
-0.017,-0.010,1.001,0.002,-0.002,-0.002,-0.403,0.140,-0.575,982.49,26.92,289.39
-0.018,-0.011,1.001,0.001,-0.003,-0.001,-0.403,0.140,-0.575,982.62,26.92,288.32
-0.018,-0.011,1.000,0.002,-0.002,-0.002,-0.396,0.141,-0.574,982.56,26.92,288.83
-0.016,-0.010,1.002,0.002,-0.002,-0.002,-0.399,0.146,-0.576,982.55,26.92,288.93
-0.017,-0.010,1.002,0.002,-0.002,-0.001,-0.402,0.148,-0.577,982.52,26.93,289.10
-0.016,-0.010,1.001,0.002,-0.002,-0.002,-0.400,0.149,-0.575,982.58,26.92,288.61
-0.018,-0.011,1.001,0.002,-0.002,-0.002,-0.399,0.150,-0.571,982.58,26.92,288.67
-0.016,-0.011,1.001,0.002,-0.002,-0.002,-0.400,0.150,-0.573,982.50,26.92,289.31
-0.017,-0.012,1.001,0.002,-0.002,-0.002,-0.400,0.150,-0.573,982.57,26.92,288.73
-0.016,-0.011,1.002,0.002,-0.002,-0.002,-0.402,0.151,-0.574,982.53,26.92,289.05
-0.017,-0.010,1.001,0.002,-0.002,-0.002,-0.401,0.150,-0.569,982.56,26.93,288.79
-0.017,-0.011,1.001,0.002,-0.002,-0.001,-0.400,0.147,-0.572,982.55,26.92,288.91
-0.017,-0.011,1.002,0.002,-0.002,-0.001,-0.404,0.147,-0.573,982.53,26.92,289.10
-0.017,-0.011,1.001,0.002,-0.002,-0.002,-0.403,0.144,-0.571,982.57,26.92,288.70
-0.017,-0.011,1.001,0.002,-0.002,-0.002,-0.401,0.142,-0.573,982.53,26.92,289.09
-0.017,-0.010,1.001,0.002,-0.002,-0.002,-0.401,0.142,-0.573,982.60,26.92,288.49
-0.016,-0.011,1.001,0.002,-0.002,-0.002,-0.402,0.151,-0.570,982.53,26.92,289.05
-0.017,-0.011,1.000,0.002,-0.002,-0.002,-0.400,0.142,-0.576,982.63,26.92,288.18
-0.017,-0.011,1.001,0.002,-0.002,-0.002,-0.402,0.141,-0.570,982.59,26.92,288.52
-0.017,-0.011,1.002,0.001,-0.002,-0.002,-0.399,0.142,-0.573,982.58,26.92,288.61
-0.016,-0.010,1.001,0.002,-0.003,-0.002,-0.399,0.144,-0.574,982.56,26.92,288.78
-0.017,-0.010,1.000,0.002,-0.002,-0.002,-0.401,0.146,-0.574,982.60,26.92,288.44
-0.017,-0.010,1.001,0.002,-0.003,-0.002,-0.401,0.146,-0.576,982.61,26.92,288.35
-0.016,-0.010,1.002,0.002,-0.002,-0.002,-0.400,0.147,-0.576,982.55,26.92,288.87
-0.017,-0.011,1.002,0.002,-0.002,-0.002,-0.403,0.148,-0.573,982.64,26.92,288.08
-0.015,-0.011,1.001,0.002,-0.002,-0.002,-0.399,0.144,-0.576,982.55,26.92,288.93
-0.018,-0.010,1.001,0.002,-0.002,-0.002,-0.400,0.144,-0.570,982.57,26.92,288.72
-0.017,-0.010,1.001,0.002,-0.002,-0.002,-0.397,0.142,-0.573,982.59,26.92,288.54
-0.017,-0.011,1.002,0.001,-0.002,-0.002,-0.400,0.143,-0.568,982.60,26.92,288.43
-0.017,-0.011,1.001,0.002,-0.002,-0.002,-0.400,0.146,-0.568,982.64,26.92,288.16
-0.017,-0.010,1.001,0.001,-0.002,-0.002,-0.398,0.146,-0.568,982.54,26.92,289.02
-0.016,-0.010,1.001,0.002,-0.002,-0.002,-0.402,0.146,-0.570,982.56,26.92,288.79
-0.016,-0.011,1.001,0.002,-0.002,-0.002,-0.399,0.145,-0.575,982.55,26.92,288.88
-0.016,-0.011,1.002,0.002,-0.002,-0.002,-0.401,0.150,-0.572,982.57,26.92,288.69
-0.017,-0.011,1.001,0.001,-0.002,-0.002,-0.403,0.148,-0.577,982.55,26.92,288.89
-0.016,-0.010,1.001,0.002,-0.002,-0.002,-0.400,0.147,-0.577,982.55,26.92,288.92
-0.016,-0.010,1.002,0.002,-0.002,-0.002,-0.399,0.148,-0.570,982.52,26.92,289.14
-0.017,-0.010,1.001,0.002,-0.002,-0.002,-0.399,0.148,-0.570,982.51,26.92,289.19
-0.017,-0.011,1.001,0.002,-0.002,-0.002,-0.405,0.144,-0.575,982.60,26.92,288.49
-0.017,-0.011,1.001,0.001,-0.002,-0.002,-0.402,0.148,-0.574,982.61,26.92,288.34
-0.016,-0.011,1.001,0.001,-0.002,-0.002,-0.402,0.146,-0.574,982.56,26.92,288.83
-0.017,-0.011,1.001,0.001,-0.002,-0.002,-0.406,0.147,-0.571,982.57,26.92,288.73
-0.018,-0.012,1.002,0.002,-0.002,-0.002,-0.403,0.144,-0.575,982.55,26.92,288.88
-0.017,-0.010,1.001,0.002,-0.002,-0.002,-0.400,0.149,-0.575,982.60,26.93,288.45
-0.018,-0.011,1.001,0.002,-0.002,-0.002,-0.400,0.149,-0.575,982.59,26.92,288.54
-0.017,-0.011,1.000,0.002,-0.002,-0.002,-0.399,0.151,-0.575,982.54,26.92,289.01
-0.015,-0.010,1.002,0.002,-0.002,-0.002,-0.402,0.147,-0.575,982.57,26.92,288.71
-0.016,-0.011,1.000,0.002,-0.002,-0.002,-0.401,0.151,-0.574,982.57,26.92,288.69
-0.017,-0.010,1.001,0.002,-0.002,-0.002,-0.404,0.149,-0.575,982.58,26.92,288.63
-0.016,-0.011,1.001,0.002,-0.002,-0.002,-0.404,0.147,-0.568,982.57,26.92,288.74
-0.017,-0.010,1.001,0.002,-0.002,-0.002,-0.403,0.149,-0.570,982.58,26.92,288.66
-0.017,-0.012,1.001,0.001,-0.002,-0.002,-0.403,0.149,-0.570,982.58,26.92,288.64
-0.018,-0.011,1.002,0.002,-0.002,-0.002,-0.404,0.150,-0.564,982.57,26.92,288.72
-0.017,-0.012,1.001,0.001,-0.002,-0.002,-0.399,0.146,-0.575,982.59,26.92,288.58
-0.017,-0.011,1.002,0.001,-0.002,-0.001,-0.400,0.148,-0.578,982.53,26.92,289.04
-0.017,-0.012,1.001,0.002,-0.002,-0.002,-0.401,0.149,-0.583,982.59,26.93,288.54
-0.016,-0.011,1.002,0.002,-0.002,-0.002,-0.401,0.147,-0.572,982.54,26.92,288.98
-0.016,-0.011,1.001,0.001,-0.002,-0.002,-0.401,0.147,-0.579,982.53,26.92,289.03
-0.017,-0.010,1.000,0.001,-0.002,-0.002,-0.401,0.147,-0.579,982.60,26.92,288.48
-0.017,-0.011,1.001,0.002,-0.002,-0.002,-0.399,0.143,-0.573,982.57,26.92,288.72
-0.018,-0.010,1.001,0.002,-0.002,-0.002,-0.407,0.147,-0.573,982.62,26.92,288.33
-0.016,-0.011,1.001,0.001,-0.002,-0.002,-0.402,0.147,-0.577,982.55,26.92,288.87
-0.016,-0.010,1.001,0.002,-0.002,-0.002,-0.403,0.149,-0.570,982.58,26.92,288.65
-0.016,-0.010,1.001,0.002,-0.002,-0.002,-0.402,0.144,-0.580,982.58,26.92,288.63
-0.016,-0.010,1.001,0.002,-0.002,-0.002,-0.403,0.147,-0.577,982.50,26.92,289.31
-0.016,-0.010,1.003,0.002,-0.002,-0.002,-0.403,0.147,-0.577,982.62,26.92,288.31
-0.018,-0.011,1.001,0.002,-0.002,-0.002,-0.403,0.146,-0.581,982.64,26.92,288.09
-0.016,-0.010,1.001,0.002,-0.002,-0.002,-0.403,0.146,-0.574,982.52,26.92,289.13
-0.017,-0.012,1.002,0.002,-0.002,-0.002,-0.405,0.146,-0.579,982.64,26.92,288.15
-0.017,-0.011,1.001,0.002,-0.002,-0.002,-0.402,0.150,-0.573,982.48,26.92,289.45
-0.017,-0.010,1.001,0.002,-0.002,-0.002,-0.403,0.144,-0.571,982.62,26.92,288.29
-0.018,-0.011,1.002,0.002,-0.002,-0.002,-0.401,0.146,-0.570,982.60,26.92,288.49
-0.017,-0.012,1.000,0.002,-0.002,-0.002,-0.401,0.146,-0.570,982.57,26.92,288.71
-0.017,-0.011,1.001,0.002,-0.002,-0.001,-0.397,0.146,-0.567,982.57,26.92,288.70
-0.016,-0.011,1.002,0.002,-0.002,-0.001,-0.404,0.142,-0.575,982.59,26.92,288.51
-0.017,-0.011,1.001,0.001,-0.002,-0.002,-0.402,0.149,-0.575,982.55,26.92,288.90
-0.018,-0.010,1.002,0.001,-0.002,-0.002,-0.398,0.142,-0.571,982.61,26.92,288.34
-0.018,-0.010,1.000,0.002,-0.002,-0.002,-0.401,0.144,-0.575,982.62,26.92,288.31
-0.016,-0.010,1.002,0.001,-0.002,-0.002,-0.404,0.146,-0.572,982.57,26.92,288.74
-0.017,-0.012,1.001,0.002,-0.002,-0.002,-0.404,0.146,-0.567,982.53,26.92,289.03
-0.017,-0.011,1.001,0.002,-0.002,-0.002,-0.404,0.145,-0.567,982.58,26.92,288.61
-0.017,-0.011,1.002,0.002,-0.002,-0.002,-0.399,0.148,-0.573,982.58,26.92,288.64
-0.017,-0.011,1.003,0.002,-0.002,-0.002,-0.398,0.148,-0.569,982.56,26.92,288.80
-0.017,-0.010,1.002,0.002,-0.002,-0.002,-0.403,0.143,-0.575,982.57,26.92,288.71
-0.016,-0.010,1.001,0.002,-0.002,-0.002,-0.402,0.144,-0.574,982.62,26.92,288.26
-0.016,-0.011,1.000,0.002,-0.002,-0.002,-0.400,0.142,-0.577,982.59,26.92,288.53
-0.017,-0.012,1.000,0.002,-0.002,-0.001,-0.400,0.143,-0.580,982.56,26.92,288.81
-0.017,-0.012,1.000,0.002,-0.002,-0.002,-0.397,0.143,-0.580,982.52,26.92,289.11
-0.017,-0.011,1.001,0.002,-0.002,-0.002,-0.403,0.147,-0.582,982.57,26.92,288.71
-0.016,-0.011,1.003,0.002,-0.002,-0.002,-0.399,0.145,-0.575,982.56,26.92,288.80
-0.015,-0.011,0.998,0.002,-0.002,-0.002,-0.401,0.141,-0.575,982.61,26.92,288.37
-0.017,-0.010,1.001,0.002,-0.002,-0.002,-0.397,0.141,-0.577,982.50,26.92,289.31
-0.018,-0.011,1.001,0.002,-0.002,-0.002,-0.398,0.143,-0.576,982.63,26.92,288.24
-0.017,-0.011,1.001,0.002,-0.002,-0.002,-0.396,0.143,-0.579,982.62,26.92,288.28
-0.017,-0.011,1.001,0.002,-0.002,-0.002,-0.396,0.143,-0.579,982.59,26.92,288.54
-0.017,-0.011,1.002,0.002,-0.002,-0.002,-0.399,0.146,-0.578,982.55,26.92,288.88
-0.016,-0.011,1.000,0.002,-0.002,-0.002,-0.401,0.143,-0.575,982.58,26.92,288.59
-0.017,-0.010,1.001,0.001,-0.002,-0.002,-0.401,0.146,-0.579,982.56,26.92,288.76
-0.016,-0.010,1.001,0.002,-0.002,-0.002,-0.403,0.144,-0.578,982.57,26.92,288.69
-0.016,-0.011,1.001,0.002,-0.002,-0.002,-0.407,0.141,-0.572,982.60,26.92,288.44
-0.017,-0.011,0.999,0.002,-0.002,-0.001,-0.401,0.146,-0.574,982.59,26.92,288.53
-0.016,-0.011,1.002,0.001,-0.002,-0.002,-0.401,0.146,-0.574,982.61,26.92,288.34
-0.016,-0.010,1.001,0.002,-0.002,-0.002,-0.402,0.142,-0.575,982.62,26.92,288.33
-0.017,-0.010,1.001,0.002,-0.002,-0.002,-0.398,0.141,-0.577,982.55,26.92,288.90
-0.018,-0.011,1.000,0.002,-0.002,-0.002,-0.400,0.143,-0.576,982.65,26.92,288.08
-0.016,-0.011,1.001,0.002,-0.002,-0.002,-0.397,0.140,-0.575,982.56,26.92,288.81
-0.017,-0.011,1.002,0.002,-0.002,-0.002,-0.401,0.146,-0.576,982.64,26.92,288.09
-0.016,-0.010,1.001,0.001,-0.002,-0.002,-0.403,0.143,-0.574,982.54,26.92,288.99
-0.016,-0.011,1.002,0.001,-0.002,-0.002,-0.403,0.143,-0.574,982.59,26.92,288.58
-0.017,-0.010,1.001,0.001,-0.002,-0.002,-0.405,0.140,-0.574,982.59,26.92,288.51
-0.016,-0.011,1.000,0.002,-0.002,-0.002,-0.406,0.147,-0.573,982.60,26.92,288.47
-0.017,-0.013,1.000,0.002,-0.002,-0.002,-0.405,0.145,-0.574,982.63,26.92,288.20
-0.017,-0.011,1.001,0.002,-0.002,-0.002,-0.403,0.145,-0.578,982.59,26.93,288.54
-0.017,-0.010,1.000,0.002,-0.002,-0.002,-0.403,0.145,-0.577,982.64,26.92,288.10
-0.017,-0.012,1.002,0.002,-0.002,-0.002,-0.402,0.143,-0.575,982.61,26.92,288.41
-0.017,-0.011,1.002,0.002,-0.002,-0.002,-0.402,0.143,-0.575,982.58,26.92,288.61
-0.017,-0.010,1.002,0.002,-0.002,-0.002,-0.402,0.147,-0.572,982.67,26.92,287.88
-0.017,-0.012,1.000,0.002,-0.002,-0.002,-0.403,0.144,-0.571,982.64,26.92,288.11
-0.016,-0.012,1.002,0.002,-0.002,-0.002,-0.402,0.147,-0.575,982.57,26.92,288.72
-0.017,-0.010,1.002,0.001,-0.002,-0.002,-0.405,0.147,-0.571,982.67,26.92,287.88
-0.017,-0.011,1.002,0.002,-0.002,-0.002,-0.401,0.143,-0.575,982.59,26.92,288.54
-0.017,-0.011,1.000,0.002,-0.002,-0.002,-0.400,0.142,-0.571,982.70,26.92,287.63
-0.017,-0.011,1.001,0.002,-0.003,-0.002,-0.400,0.142,-0.571,982.58,26.92,288.63
-0.017,-0.010,1.001,0.002,-0.002,-0.001,-0.399,0.141,-0.573,982.57,26.93,288.75
-0.017,-0.011,1.002,0.002,-0.002,-0.002,-0.403,0.143,-0.577,982.62,26.92,288.28
-0.016,-0.011,1.002,0.002,-0.002,-0.002,-0.398,0.142,-0.572,982.61,26.92,288.36
-0.017,-0.011,1.001,0.001,-0.002,-0.002,-0.401,0.145,-0.578,982.60,26.92,288.43
-0.016,-0.010,1.000,0.002,-0.002,-0.002,-0.398,0.147,-0.576,982.62,26.92,288.25
-0.017,-0.010,1.001,0.002,-0.002,-0.002,-0.401,0.145,-0.574,982.71,26.93,287.54
-0.016,-0.012,1.001,0.002,-0.002,-0.002,-0.401,0.145,-0.574,982.60,26.92,288.48
-0.018,-0.011,1.000,0.001,-0.002,-0.002,-0.402,0.147,-0.579,982.63,26.92,288.20
-0.016,-0.011,1.000,0.001,-0.002,-0.002,-0.403,0.141,-0.571,982.53,26.92,289.04
-0.016,-0.011,1.001,0.001,-0.002,-0.002,-0.401,0.139,-0.572,982.58,26.92,288.60
-0.016,-0.010,1.003,0.001,-0.002,-0.002,-0.400,0.141,-0.577,982.61,26.92,288.38
-0.016,-0.011,1.001,0.001,-0.002,-0.002,-0.403,0.146,-0.579,982.58,26.92,288.60
-0.018,-0.011,1.001,0.002,-0.002,-0.002,-0.403,0.149,-0.578,982.55,26.92,288.88
-0.016,-0.011,1.003,0.002,-0.002,-0.002,-0.403,0.149,-0.578,982.63,26.92,288.19
-0.016,-0.011,1.002,0.002,-0.002,-0.002,-0.404,0.144,-0.578,982.57,26.92,288.70
-0.017,-0.011,1.003,0.002,-0.002,-0.001,-0.403,0.144,-0.574,982.64,26.92,288.08
-0.018,-0.010,1.001,0.002,-0.002,-0.002,-0.401,0.143,-0.571,982.56,26.92,288.80
-0.017,-0.011,1.001,0.001,-0.002,-0.002,-0.401,0.146,-0.569,982.60,26.92,288.50
-0.018,-0.010,1.003,0.002,-0.002,-0.002,-0.403,0.147,-0.570,982.59,26.92,288.53
-0.016,-0.011,1.002,0.002,-0.002,-0.002,-0.405,0.148,-0.577,982.64,26.92,288.14
-0.016,-0.011,1.000,0.002,-0.002,-0.002,-0.405,0.148,-0.580,982.68,26.92,287.76
-0.016,-0.011,1.000,0.002,-0.002,-0.002,-0.407,0.148,-0.580,982.60,26.93,288.43
-0.018,-0.012,1.002,0.002,-0.002,-0.002,-0.402,0.147,-0.578,982.57,26.92,288.68
-0.018,-0.011,1.002,0.001,-0.002,-0.001,-0.409,0.148,-0.570,982.57,26.92,288.74
-0.016,-0.011,1.002,0.002,-0.002,-0.002,-0.405,0.144,-0.571,982.60,26.92,288.43
-0.017,-0.011,1.001,0.002,-0.002,-0.002,-0.404,0.146,-0.570,982.53,26.92,289.08
-0.016,-0.011,1.001,0.002,-0.002,-0.002,-0.404,0.145,-0.569,982.66,26.92,287.93
-0.018,-0.011,1.001,0.002,-0.002,-0.002,-0.401,0.148,-0.569,982.60,26.92,288.47
-0.017,-0.011,1.000,0.002,-0.002,-0.002,-0.401,0.148,-0.569,982.61,26.92,288.42
-0.018,-0.012,1.001,0.002,-0.002,-0.002,-0.401,0.148,-0.578,982.62,26.92,288.31
-0.017,-0.011,1.002,0.002,-0.002,-0.002,-0.401,0.143,-0.572,982.64,26.92,288.14
-0.017,-0.010,1.001,0.002,-0.002,-0.002,-0.405,0.146,-0.573,982.63,26.92,288.19
-0.016,-0.011,1.001,0.002,-0.002,-0.002,-0.404,0.149,-0.572,982.67,26.92,287.85
-0.017,-0.010,1.001,0.002,-0.002,-0.002,-0.402,0.144,-0.566,982.62,26.92,288.32
-0.017,-0.011,1.000,0.002,-0.002,-0.002,-0.402,0.144,-0.575,982.59,26.92,288.51
-0.017,-0.011,1.000,0.002,-0.002,-0.002,-0.402,0.144,-0.575,982.60,26.92,288.47
-0.017,-0.010,1.002,0.002,-0.002,-0.002,-0.406,0.145,-0.574,982.61,26.92,288.35
-0.017,-0.011,1.002,0.002,-0.002,-0.002,-0.405,0.146,-0.568,982.63,26.92,288.19
-0.016,-0.011,1.003,0.001,-0.002,-0.002,-0.403,0.145,-0.570,982.62,26.92,288.33
-0.017,-0.011,1.000,0.002,-0.002,-0.002,-0.402,0.143,-0.567,982.55,26.92,288.88
-0.016,-0.011,1.002,0.002,-0.002,-0.002,-0.402,0.147,-0.571,982.57,26.92,288.74
-0.016,-0.012,1.000,0.002,-0.002,-0.002,-0.400,0.144,-0.571,982.68,26.92,287.77
-0.017,-0.011,1.003,0.002,-0.002,-0.002,-0.400,0.144,-0.571,982.64,26.92,288.13
-0.017,-0.011,0.999,0.002,-0.003,-0.002,-0.401,0.145,-0.573,982.72,26.92,287.48
-0.016,-0.011,1.004,0.001,-0.002,-0.002,-0.399,0.147,-0.575,982.62,26.92,288.26
-0.018,-0.012,1.001,0.002,-0.002,-0.002,-0.400,0.145,-0.575,982.65,26.92,288.04
-0.017,-0.011,1.002,0.002,-0.002,-0.001,-0.402,0.145,-0.571,982.58,26.92,288.65
-0.017,-0.012,1.001,0.002,-0.002,-0.001,-0.401,0.147,-0.573,982.61,26.92,288.39
-0.016,-0.010,1.001,0.002,-0.002,-0.001,-0.403,0.149,-0.575,982.53,26.92,289.08
-0.016,-0.011,1.000,0.002,-0.002,-0.002,-0.403,0.149,-0.575,982.57,26.92,288.74
-0.016,-0.011,1.002,0.002,-0.002,-0.002,-0.404,0.148,-0.576,982.65,26.92,288.06
-0.017,-0.011,1.001,0.002,-0.002,-0.002,-0.403,0.146,-0.577,982.59,26.92,288.53
-0.016,-0.011,1.002,0.002,-0.002,-0.001,-0.404,0.149,-0.574,982.61,26.92,288.39
-0.017,-0.010,1.000,0.001,-0.002,-0.002,-0.403,0.147,-0.575,982.57,26.92,288.76
-0.018,-0.011,1.000,0.001,-0.002,-0.002,-0.403,0.144,-0.576,982.64,26.92,288.11
-0.017,-0.011,1.002,0.002,-0.002,-0.002,-0.401,0.151,-0.575,982.60,26.92,288.44
-0.016,-0.011,1.001,0.002,-0.002,-0.002,-0.401,0.151,-0.575,982.60,26.92,288.44
-0.015,-0.011,1.001,0.002,-0.002,-0.002,-0.401,0.145,-0.573,982.56,26.92,288.79
-0.017,-0.010,1.001,0.002,-0.003,-0.002,-0.404,0.147,-0.583,982.65,26.92,288.05
-0.017,-0.010,1.001,0.002,-0.002,-0.002,-0.401,0.146,-0.578,982.62,26.92,288.32
-0.017,-0.011,1.000,0.002,-0.002,-0.002,-0.403,0.148,-0.583,982.62,26.92,288.27
-0.017,-0.012,1.001,0.002,-0.002,-0.002,-0.405,0.149,-0.580,982.56,26.92,288.82
-0.017,-0.012,1.001,0.002,-0.003,-0.002,-0.402,0.146,-0.581,982.64,26.92,288.15
-0.016,-0.011,1.002,0.002,-0.002,-0.002,-0.402,0.146,-0.581,982.58,26.92,288.66
-0.017,-0.010,1.001,0.002,-0.002,-0.002,-0.400,0.148,-0.574,982.61,26.92,288.42
-0.017,-0.012,1.001,0.002,-0.002,-0.002,-0.403,0.148,-0.581,982.59,26.92,288.55
-0.016,-0.011,1.002,0.002,-0.002,-0.002,-0.399,0.147,-0.577,982.63,26.92,288.22
-0.018,-0.010,1.001,0.002,-0.002,-0.002,-0.402,0.148,-0.573,982.53,26.92,289.02
-0.016,-0.011,1.001,0.002,-0.002,-0.001,-0.403,0.147,-0.579,982.65,26.92,288.03
-0.018,-0.010,1.000,0.002,-0.002,-0.002,-0.400,0.146,-0.582,982.62,26.92,288.28
-0.017,-0.012,1.002,0.002,-0.002,-0.002,-0.400,0.146,-0.578,982.63,26.92,288.22
-0.017,-0.011,1.001,0.002,-0.002,-0.002,-0.406,0.147,-0.578,982.63,26.93,288.17
-0.016,-0.011,1.001,0.002,-0.002,-0.002,-0.404,0.149,-0.579,982.66,26.92,287.98
-0.018,-0.011,1.001,0.002,-0.002,-0.002,-0.404,0.146,-0.578,982.65,26.92,288.00
-0.017,-0.011,1.001,0.001,-0.003,-0.002,-0.403,0.141,-0.576,982.61,26.92,288.39
-0.018,-0.011,1.000,0.002,-0.002,-0.002,-0.403,0.145,-0.581,982.62,26.92,288.33
-0.016,-0.010,1.002,0.002,-0.002,-0.002,-0.401,0.143,-0.577,982.59,26.92,288.55
-0.017,-0.011,1.001,0.002,-0.002,-0.002,-0.401,0.146,-0.577,982.56,26.92,288.77
-0.017,-0.011,1.000,0.002,-0.002,-0.002,-0.403,0.146,-0.577,982.63,26.92,288.17
-0.017,-0.011,1.001,0.002,-0.002,-0.002,-0.404,0.145,-0.572,982.59,26.92,288.55
-0.017,-0.010,1.002,0.002,-0.002,-0.002,-0.404,0.144,-0.575,982.62,26.92,288.32
-0.016,-0.010,1.001,0.002,-0.002,-0.002,-0.404,0.145,-0.575,982.57,26.92,288.74
-0.017,-0.011,1.003,0.002,-0.002,-0.002,-0.406,0.147,-0.576,982.63,26.92,288.21
-0.017,-0.011,1.001,0.001,-0.002,-0.002,-0.405,0.140,-0.573,982.60,26.92,288.42
-0.016,-0.011,1.000,0.002,-0.002,-0.002,-0.405,0.150,-0.574,982.60,26.92,288.48
-0.017,-0.010,1.000,0.002,-0.002,-0.002,-0.405,0.150,-0.574,982.60,26.92,288.48
-0.016,-0.012,1.000,0.002,-0.003,-0.002,-0.403,0.148,-0.572,982.69,26.92,287.67
-0.016,-0.010,1.002,0.002,-0.002,-0.002,-0.403,0.145,-0.568,982.63,26.92,288.17
-0.016,-0.010,1.002,0.002,-0.002,-0.002,-0.404,0.147,-0.575,982.57,26.92,288.69
-0.016,-0.010,1.001,0.002,-0.002,-0.002,-0.400,0.147,-0.579,982.64,26.92,288.12
-0.016,-0.010,1.003,0.001,-0.002,-0.002,-0.401,0.144,-0.577,982.61,26.92,288.40
-0.016,-0.011,1.000,0.001,-0.002,-0.002,-0.403,0.149,-0.570,982.60,26.92,288.46
-0.018,-0.011,1.000,0.002,-0.002,-0.002,-0.403,0.149,-0.570,982.58,26.92,288.63
-0.017,-0.011,1.000,0.002,-0.002,-0.002,-0.402,0.148,-0.576,982.63,26.92,288.21
-0.017,-0.011,0.999,0.002,-0.003,-0.001,-0.404,0.149,-0.574,982.58,26.92,288.63
-0.016,-0.010,0.994,0.002,-0.002,-0.002,-0.406,0.146,-0.570,982.61,26.92,288.34
-0.018,-0.010,1.015,0.002,-0.002,-0.002,-0.404,0.146,-0.572,982.56,26.92,288.84
-0.016,-0.011,1.015,0.001,-0.002,-0.002,-0.406,0.147,-0.573,982.66,26.92,287.95
-0.016,-0.011,0.993,-0.000,-0.002,-0.002,-0.402,0.148,-0.577,982.55,26.92,288.93
-0.017,-0.011,1.001,0.002,-0.002,-0.002,-0.402,0.148,-0.577,982.57,26.92,288.74
-0.017,-0.011,1.011,0.002,-0.002,-0.002,-0.405,0.148,-0.579,982.64,26.92,288.09
-0.015,-0.010,1.005,0.001,-0.002,-0.002,-0.407,0.149,-0.577,982.58,26.93,288.62
-0.017,-0.011,0.995,0.001,-0.002,-0.002,-0.403,0.148,-0.578,982.63,26.92,288.20
-0.018,-0.012,0.998,0.002,-0.002,-0.001,-0.406,0.146,-0.577,982.66,26.93,287.94
-0.018,-0.011,1.005,0.002,-0.002,-0.002,-0.400,0.146,-0.576,982.64,26.93,288.16
-0.017,-0.011,1.000,0.001,-0.002,-0.002,-0.402,0.146,-0.574,982.62,26.93,288.25
-0.017,-0.010,1.000,0.002,-0.002,-0.002,-0.402,0.146,-0.574,982.65,26.92,288.06
-0.017,-0.011,1.004,0.002,-0.002,-0.002,-0.406,0.147,-0.574,982.61,26.92,288.39
-0.017,-0.011,1.002,0.002,-0.002,-0.002,-0.405,0.145,-0.576,982.60,26.92,288.48
-0.016,-0.012,1.000,0.001,-0.002,-0.002,-0.407,0.148,-0.579,982.67,26.92,287.84
-0.016,-0.012,1.000,0.002,-0.002,-0.002,-0.403,0.148,-0.579,982.53,26.92,289.07
-0.016,-0.011,1.002,0.002,-0.002,-0.002,-0.405,0.142,-0.574,982.64,26.93,288.09
-0.016,-0.011,1.000,0.002,-0.002,-0.002,-0.403,0.150,-0.577,982.51,26.92,289.22
-0.017,-0.011,1.002,0.002,-0.002,-0.002,-0.403,0.150,-0.577,982.73,26.92,287.34
-0.017,-0.009,1.003,0.001,-0.002,-0.002,-0.406,0.146,-0.580,982.66,26.92,287.97
-0.015,-0.010,1.001,0.001,-0.002,-0.002,-0.403,0.146,-0.571,982.59,26.92,288.59
-0.017,-0.010,1.000,0.001,-0.002,-0.002,-0.403,0.149,-0.575,982.64,26.92,288.11
-0.016,-0.011,1.001,0.002,-0.002,-0.002,-0.401,0.149,-0.576,982.70,26.93,287.58
-0.016,-0.011,1.002,0.002,-0.002,-0.002,-0.401,0.146,-0.578,982.66,26.93,287.94
-0.018,-0.010,1.002,0.002,-0.002,-0.002,-0.399,0.146,-0.575,982.66,26.92,287.94
-0.017,-0.011,1.000,0.002,-0.002,-0.002,-0.399,0.146,-0.575,982.69,26.93,287.73
-0.017,-0.011,1.001,0.002,-0.002,-0.002,-0.400,0.144,-0.577,982.58,26.92,288.63
-0.018,-0.010,1.000,0.001,-0.002,-0.002,-0.404,0.143,-0.576,982.63,26.93,288.24
-0.017,-0.010,1.000,0.001,-0.002,-0.002,-0.403,0.144,-0.571,982.59,26.93,288.52
-0.016,-0.011,0.999,0.001,-0.002,-0.002,-0.402,0.145,-0.574,982.68,26.92,287.79
-0.016,-0.010,1.001,0.002,-0.002,-0.002,-0.403,0.142,-0.571,982.58,26.92,288.59
-0.016,-0.010,1.001,0.002,-0.002,-0.002,-0.398,0.147,-0.571,982.56,26.92,288.76
-0.016,-0.010,1.001,0.002,-0.002,-0.002,-0.398,0.147,-0.576,982.64,26.93,288.09
-0.017,-0.011,1.000,0.002,-0.002,-0.002,-0.405,0.147,-0.576,982.58,26.92,288.65
-0.016,-0.011,1.001,0.002,-0.002,-0.002,-0.402,0.146,-0.576,982.65,26.92,288.00
-0.016,-0.011,1.003,0.002,-0.002,-0.002,-0.400,0.148,-0.576,982.72,26.92,287.40
-0.016,-0.011,1.001,0.002,-0.002,-0.002,-0.404,0.142,-0.574,982.61,26.92,288.34
-0.016,-0.012,1.001,0.002,-0.002,-0.002,-0.402,0.144,-0.577,982.58,26.92,288.62
-0.017,-0.011,1.001,0.002,-0.002,-0.002,-0.403,0.144,-0.577,982.67,26.92,287.90
-0.017,-0.010,1.001,0.002,-0.002,-0.002,-0.403,0.149,-0.581,982.66,26.92,287.92
-0.017,-0.010,1.001,0.002,-0.002,-0.002,-0.405,0.149,-0.581,982.61,26.92,288.39
-0.017,-0.011,1.001,0.002,-0.002,-0.002,-0.408,0.148,-0.582,982.57,26.92,288.73
-0.017,-0.010,1.001,0.002,-0.002,-0.002,-0.408,0.143,-0.577,982.63,26.92,288.24
-0.017,-0.011,1.001,0.002,-0.002,-0.002,-0.404,0.145,-0.579,982.63,26.92,288.17
-0.016,-0.010,1.000,0.002,-0.002,-0.002,-0.403,0.146,-0.575,982.59,26.92,288.57
-0.016,-0.011,1.002,0.002,-0.002,-0.002,-0.404,0.146,-0.577,982.66,26.93,287.99
-0.016,-0.009,1.001,0.002,-0.002,-0.002,-0.406,0.147,-0.575,982.60,26.92,288.49
-0.016,-0.011,1.001,0.002,-0.002,-0.002,-0.406,0.147,-0.575,982.62,26.92,288.33
-0.017,-0.011,1.000,0.002,-0.002,-0.002,-0.406,0.146,-0.582,982.62,26.92,288.26
-0.016,-0.010,1.001,0.002,-0.002,-0.002,-0.404,0.144,-0.576,982.65,26.92,288.05
-0.015,-0.010,1.002,0.001,-0.002,-0.002,-0.407,0.146,-0.575,982.61,26.92,288.38
-0.017,-0.011,1.003,0.002,-0.003,-0.002,-0.406,0.152,-0.581,982.57,26.92,288.70
-0.017,-0.011,1.001,0.002,-0.002,-0.002,-0.402,0.147,-0.577,982.65,26.92,288.06
-0.017,-0.010,1.000,0.002,-0.002,-0.002,-0.401,0.146,-0.579,982.62,26.92,288.27
-0.016,-0.010,1.001,0.002,-0.002,-0.002,-0.401,0.146,-0.579,982.56,26.92,288.76
-0.017,-0.010,1.001,0.002,-0.002,-0.002,-0.407,0.145,-0.582,982.64,26.92,288.09
-0.017,-0.011,1.002,0.002,-0.002,-0.002,-0.404,0.146,-0.577,982.60,26.92,288.46
-0.017,-0.011,1.001,0.002,-0.002,-0.002,-0.410,0.144,-0.577,982.59,26.93,288.52
-0.017,-0.011,1.002,0.002,-0.002,-0.002,-0.410,0.144,-0.573,982.55,26.93,288.85
-0.017,-0.011,1.001,0.002,-0.002,-0.002,-0.408,0.144,-0.580,982.57,26.92,288.68
-0.016,-0.011,1.001,0.002,-0.002,-0.002,-0.408,0.144,-0.574,982.59,26.92,288.57
-0.017,-0.011,1.001,0.001,-0.002,-0.002,-0.408,0.144,-0.574,982.60,26.92,288.47
-0.017,-0.012,1.001,0.001,-0.002,-0.002,-0.406,0.145,-0.576,982.55,26.93,288.90
-0.016,-0.011,1.000,0.002,-0.003,-0.002,-0.400,0.149,-0.580,982.62,26.92,288.33
-0.017,-0.011,1.001,0.002,-0.002,-0.002,-0.404,0.149,-0.575,982.60,26.92,288.46
-0.017,-0.010,1.001,0.002,-0.002,-0.002,-0.405,0.143,-0.572,982.60,26.92,288.50
-0.017,-0.010,1.002,0.001,-0.002,-0.002,-0.411,0.147,-0.575,982.61,26.92,288.37
-0.017,-0.011,1.001,0.001,-0.002,-0.001,-0.405,0.143,-0.579,982.65,26.93,288.05
-0.018,-0.011,1.002,0.001,-0.002,-0.002,-0.405,0.143,-0.579,982.66,26.92,287.99
-0.016,-0.011,1.001,0.002,-0.002,-0.002,-0.412,0.145,-0.577,982.62,26.92,288.28
-0.017,-0.010,1.000,0.002,-0.002,-0.002,-0.401,0.146,-0.577,982.58,26.92,288.66
-0.017,-0.010,1.002,0.002,-0.002,-0.002,-0.405,0.146,-0.580,982.69,26.92,287.69
-0.017,-0.011,1.002,0.002,-0.002,-0.002,-0.406,0.146,-0.577,982.60,26.92,288.44
-0.016,-0.011,1.000,0.002,-0.002,-0.002,-0.412,0.147,-0.573,982.60,26.92,288.42
-0.017,-0.012,1.001,0.002,-0.002,-0.002,-0.406,0.147,-0.577,982.64,26.92,288.09
-0.017,-0.011,1.001,0.002,-0.003,-0.002,-0.406,0.147,-0.577,982.71,26.92,287.57
-0.017,-0.011,1.001,0.001,-0.002,-0.002,-0.408,0.147,-0.580,982.61,26.92,288.36
-0.016,-0.011,1.002,0.002,-0.002,-0.002,-0.405,0.143,-0.581,982.64,26.92,288.10
-0.016,-0.010,1.001,0.002,-0.002,-0.002,-0.410,0.146,-0.575,982.58,26.92,288.65
-0.017,-0.011,1.002,0.002,-0.002,-0.002,-0.406,0.147,-0.576,982.62,26.92,288.31
-0.016,-0.011,1.000,0.001,-0.002,-0.002,-0.405,0.149,-0.578,982.62,26.92,288.29
-0.017,-0.010,1.001,0.002,-0.002,-0.002,-0.408,0.152,-0.585,982.65,26.93,288.06
-0.016,-0.010,1.001,0.002,-0.002,-0.002,-0.408,0.152,-0.585,982.68,26.92,287.79
-0.015,-0.010,1.002,0.002,-0.002,-0.002,-0.404,0.147,-0.580,982.64,26.93,288.12
-0.016,-0.011,1.000,0.002,-0.002,-0.002,-0.403,0.146,-0.582,982.64,26.92,288.08
-0.018,-0.011,1.000,0.002,-0.002,-0.002,-0.404,0.148,-0.573,982.58,26.92,288.67
-0.017,-0.011,1.001,0.002,-0.002,-0.002,-0.405,0.143,-0.575,982.67,26.93,287.84
-0.017,-0.010,1.001,0.002,-0.002,-0.002,-0.406,0.149,-0.576,982.60,26.92,288.44
-0.017,-0.011,1.002,0.001,-0.002,-0.002,-0.405,0.148,-0.578,982.62,26.93,288.27
-0.017,-0.009,1.001,0.001,-0.002,-0.002,-0.405,0.148,-0.578,982.64,26.92,288.12
-0.017,-0.011,1.002,0.002,-0.002,-0.002,-0.408,0.147,-0.575,982.65,26.92,288.03
-0.017,-0.011,1.001,0.002,-0.002,-0.002,-0.410,0.147,-0.577,982.60,26.92,288.46
-0.016,-0.011,1.001,0.001,-0.002,-0.002,-0.407,0.153,-0.572,982.62,26.92,288.31
-0.017,-0.011,1.001,0.001,-0.002,-0.002,-0.411,0.151,-0.579,982.63,26.92,288.21
-0.017,-0.011,1.002,0.002,-0.002,-0.002,-0.406,0.151,-0.575,982.56,26.93,288.80
-0.017,-0.010,1.001,0.002,-0.002,-0.002,-0.407,0.144,-0.575,982.63,26.92,288.19
-0.017,-0.010,1.001,0.002,-0.002,-0.002,-0.407,0.144,-0.575,982.61,26.93,288.40
-0.017,-0.011,1.001,0.002,-0.002,-0.002,-0.408,0.147,-0.575,982.61,26.92,288.41
-0.017,-0.010,1.002,0.002,-0.002,-0.002,-0.408,0.144,-0.576,982.60,26.92,288.46
-0.017,-0.011,1.001,0.002,-0.002,-0.002,-0.408,0.145,-0.576,982.59,26.92,288.57
-0.016,-0.011,1.001,0.002,-0.002,-0.002,-0.409,0.144,-0.578,982.60,26.92,288.44
-0.017,-0.010,1.001,0.002,-0.002,-0.002,-0.406,0.144,-0.574,982.56,26.92,288.83
-0.017,-0.011,1.001,0.001,-0.002,-0.002,-0.407,0.150,-0.578,982.65,26.92,288.01
-0.016,-0.011,1.001,0.001,-0.002,-0.002,-0.409,0.149,-0.577,982.62,26.92,288.33
-0.017,-0.010,1.002,0.002,-0.002,-0.002,-0.409,0.149,-0.577,982.68,26.92,287.76
-0.015,-0.011,1.001,0.002,-0.002,-0.002,-0.408,0.147,-0.581,982.57,26.92,288.73
-0.017,-0.011,1.000,0.002,-0.002,-0.002,-0.405,0.144,-0.580,982.65,26.92,288.02
-0.016,-0.012,1.001,0.002,-0.002,-0.002,-0.405,0.144,-0.581,982.65,26.92,288.07
-0.018,-0.010,1.001,0.002,-0.002,-0.002,-0.403,0.148,-0.577,982.56,26.92,288.79
-0.017,-0.012,1.001,0.002,-0.002,-0.002,-0.407,0.148,-0.575,982.64,26.92,288.12
-0.018,-0.010,1.001,0.002,-0.002,-0.002,-0.407,0.150,-0.580,982.72,26.92,287.48
-0.016,-0.010,1.002,0.002,-0.002,-0.002,-0.407,0.150,-0.580,982.64,26.92,288.09
-0.017,-0.011,1.001,0.002,-0.002,-0.002,-0.406,0.148,-0.580,982.65,26.92,288.07
-0.016,-0.011,1.001,0.002,-0.002,-0.002,-0.404,0.144,-0.582,982.67,26.92,287.87
-0.017,-0.011,1.001,0.002,-0.002,-0.002,-0.403,0.147,-0.584,982.64,26.92,288.11
-0.016,-0.012,1.002,0.002,-0.002,-0.002,-0.403,0.146,-0.580,982.64,26.93,288.12
-0.017,-0.011,1.001,0.002,-0.002,-0.002,-0.411,0.146,-0.583,982.66,26.92,287.92
-0.017,-0.011,1.002,0.002,-0.002,-0.002,-0.410,0.144,-0.578,982.65,26.93,288.03
-0.016,-0.011,1.001,0.002,-0.002,-0.002,-0.410,0.144,-0.578,982.67,26.92,287.86
-0.018,-0.011,1.002,0.002,-0.002,-0.002,-0.407,0.147,-0.577,982.57,26.92,288.73
-0.017,-0.011,1.000,0.002,-0.002,-0.002,-0.405,0.145,-0.583,982.65,26.92,288.07
-0.017,-0.010,1.000,0.002,-0.002,-0.002,-0.407,0.144,-0.581,982.63,26.92,288.24
-0.016,-0.011,1.000,0.002,-0.002,-0.002,-0.404,0.146,-0.580,982.69,26.92,287.72
-0.017,-0.010,1.001,0.002,-0.002,-0.002,-0.405,0.141,-0.583,982.60,26.92,288.43
-0.017,-0.010,1.002,0.001,-0.002,-0.002,-0.403,0.145,-0.580,982.74,26.92,287.26
-0.017,-0.010,1.001,0.002,-0.002,-0.002,-0.403,0.145,-0.580,982.66,26.93,287.94
-0.016,-0.011,1.000,0.001,-0.002,-0.002,-0.403,0.147,-0.579,982.63,26.92,288.17
-0.016,-0.012,1.000,0.002,-0.003,-0.002,-0.406,0.145,-0.572,982.63,26.92,288.17
-0.016,-0.010,1.001,0.002,-0.002,-0.002,-0.404,0.148,-0.576,982.70,26.93,287.63
-0.015,-0.012,1.001,0.002,-0.002,-0.002,-0.402,0.148,-0.573,982.68,26.92,287.76
-0.016,-0.010,1.001,0.002,-0.002,-0.002,-0.400,0.146,-0.567,982.67,26.92,287.83
-0.016,-0.011,1.002,0.002,-0.002,-0.002,-0.400,0.148,-0.578,982.65,26.93,288.02
-0.016,-0.010,1.001,0.002,-0.002,-0.002,-0.400,0.148,-0.578,982.64,26.93,288.08
-0.017,-0.012,1.001,0.002,-0.002,-0.002,-0.404,0.150,-0.585,982.72,26.92,287.47
-0.017,-0.011,1.001,0.002,-0.002,-0.002,-0.403,0.149,-0.579,982.68,26.92,287.81
-0.017,-0.011,1.001,0.001,-0.002,-0.002,-0.404,0.146,-0.573,982.65,26.92,288.02
-0.015,-0.011,1.001,0.001,-0.002,-0.002,-0.405,0.146,-0.580,982.62,26.92,288.27
-0.017,-0.011,1.002,0.001,-0.002,-0.002,-0.407,0.146,-0.581,982.67,26.92,287.90
-0.017,-0.010,0.999,0.002,-0.002,-0.002,-0.405,0.150,-0.577,982.52,26.92,289.16
-0.016,-0.010,1.000,0.002,-0.002,-0.002,-0.405,0.150,-0.577,982.66,26.92,287.91
-0.017,-0.010,1.001,0.002,-0.002,-0.002,-0.407,0.147,-0.580,982.64,26.92,288.15
-0.017,-0.011,1.002,0.002,-0.002,-0.002,-0.405,0.150,-0.581,982.62,26.92,288.31
-0.016,-0.011,1.001,0.001,-0.002,-0.002,-0.404,0.150,-0.577,982.57,26.92,288.73
-0.016,-0.010,1.001,0.002,-0.002,-0.002,-0.403,0.150,-0.576,982.65,26.92,288.04
-0.016,-0.010,1.001,0.002,-0.002,-0.001,-0.401,0.152,-0.575,982.62,26.92,288.28
-0.017,-0.011,1.001,0.002,-0.002,-0.002,-0.401,0.146,-0.577,982.61,26.92,288.41
-0.018,-0.011,1.001,0.002,-0.002,-0.002,-0.401,0.146,-0.574,982.59,26.92,288.57
-0.016,-0.010,1.002,0.002,-0.002,-0.002,-0.405,0.150,-0.574,982.67,26.92,287.86
-0.016,-0.010,1.001,0.002,-0.002,-0.002,-0.403,0.146,-0.575,982.64,26.93,288.12
-0.015,-0.010,1.001,0.002,-0.002,-0.002,-0.403,0.150,-0.580,982.68,26.92,287.79
-0.016,-0.010,1.002,0.002,-0.002,-0.002,-0.400,0.148,-0.578,982.66,26.92,287.97
-0.018,-0.010,1.001,0.002,-0.002,-0.002,-0.405,0.149,-0.581,982.63,26.92,288.24
-0.017,-0.011,1.001,0.002,-0.002,-0.002,-0.406,0.150,-0.582,982.62,26.92,288.27
-0.017,-0.011,1.001,0.002,-0.002,-0.002,-0.406,0.148,-0.579,982.58,26.92,288.61
-0.017,-0.009,1.002,0.002,-0.002,-0.002,-0.406,0.148,-0.579,982.66,26.92,287.95
-0.016,-0.010,1.002,0.002,-0.002,-0.002,-0.407,0.144,-0.583,982.62,26.92,288.25
-0.017,-0.010,1.002,0.002,-0.002,-0.002,-0.407,0.147,-0.584,982.63,26.93,288.22
-0.017,-0.010,1.001,0.002,-0.002,-0.002,-0.407,0.151,-0.581,982.62,26.92,288.27
-0.017,-0.010,1.001,0.002,-0.002,-0.002,-0.408,0.150,-0.576,982.66,26.92,287.97
-0.016,-0.011,1.001,0.002,-0.002,-0.002,-0.410,0.146,-0.576,982.66,26.92,287.91
-0.017,-0.011,1.002,0.002,-0.002,-0.002,-0.407,0.146,-0.573,982.56,26.92,288.83
-0.018,-0.011,1.002,0.001,-0.002,-0.002,-0.407,0.146,-0.573,982.56,26.92,288.78
-0.017,-0.010,1.002,0.001,-0.002,-0.002,-0.410,0.144,-0.578,982.63,26.92,288.19
-0.017,-0.010,1.000,0.002,-0.002,-0.002,-0.407,0.147,-0.580,982.66,26.93,287.94
-0.016,-0.010,1.001,0.002,-0.002,-0.002,-0.407,0.145,-0.578,982.62,26.93,288.27
-0.017,-0.011,1.001,0.001,-0.002,-0.002,-0.408,0.145,-0.575,982.66,26.93,287.93
-0.017,-0.011,1.000,0.002,-0.002,-0.002,-0.409,0.146,-0.584,982.64,26.93,288.14
-0.018,-0.011,1.001,0.001,-0.002,-0.002,-0.400,0.147,-0.575,982.58,26.92,288.67
-0.017,-0.011,1.002,0.002,-0.002,-0.002,-0.400,0.147,-0.575,982.65,26.92,288.06
-0.017,-0.010,1.001,0.002,-0.002,-0.002,-0.403,0.146,-0.576,982.64,26.92,288.12
-0.015,-0.011,1.001,0.002,-0.002,-0.002,-0.400,0.147,-0.580,982.73,26.92,287.39
-0.018,-0.010,1.000,0.001,-0.002,-0.002,-0.401,0.148,-0.575,982.69,26.92,287.70
-0.016,-0.010,1.000,0.001,-0.002,-0.002,-0.403,0.144,-0.578,982.62,26.92,288.27
-0.017,-0.011,1.001,0.002,-0.002,-0.001,-0.405,0.143,-0.577,982.68,26.93,287.79
-0.018,-0.011,1.002,0.002,-0.002,-0.002,-0.406,0.144,-0.573,982.60,26.92,288.46
-0.017,-0.010,1.001,0.001,-0.002,-0.002,-0.406,0.144,-0.573,982.70,26.92,287.58
-0.017,-0.010,1.000,0.001,-0.003,-0.002,-0.409,0.143,-0.573,982.71,26.93,287.48
-0.017,-0.010,1.001,0.002,-0.002,-0.002,-0.406,0.144,-0.575,982.63,26.92,288.22
-0.018,-0.010,1.000,0.001,-0.002,-0.002,-0.408,0.146,-0.575,982.68,26.92,287.77
-0.017,-0.011,1.001,0.002,-0.002,-0.002,-0.408,0.149,-0.575,982.61,26.92,288.37
-0.017,-0.010,1.001,0.002,-0.002,-0.002,-0.405,0.147,-0.572,982.67,26.92,287.84
-0.017,-0.011,1.001,0.002,-0.002,-0.002,-0.406,0.148,-0.580,982.62,26.92,288.27
-0.017,-0.011,1.000,0.002,-0.002,-0.002,-0.406,0.148,-0.580,982.64,26.92,288.15
-0.015,-0.011,1.001,0.002,-0.002,-0.002,-0.406,0.146,-0.575,982.57,26.92,288.69
-0.017,-0.012,1.001,0.002,-0.002,-0.002,-0.411,0.150,-0.577,982.68,26.92,287.79
-0.017,-0.012,1.001,0.002,-0.003,-0.002,-0.403,0.146,-0.574,982.63,26.92,288.21
-0.017,-0.011,1.001,0.002,-0.003,-0.002,-0.407,0.149,-0.576,982.68,26.92,287.82
-0.016,-0.011,1.000,0.001,-0.002,-0.002,-0.403,0.148,-0.578,982.67,26.92,287.89
-0.017,-0.012,1.002,0.002,-0.002,-0.002,-0.403,0.149,-0.580,982.67,26.92,287.83
-0.017,-0.012,1.001,0.002,-0.002,-0.002,-0.403,0.149,-0.580,982.61,26.92,288.37
-0.017,-0.010,1.001,0.002,-0.002,-0.002,-0.403,0.150,-0.580,982.61,26.92,288.39
-0.016,-0.012,1.001,0.001,-0.002,-0.002,-0.403,0.144,-0.571,982.67,26.93,287.88
-0.016,-0.010,1.000,0.002,-0.002,-0.002,-0.408,0.148,-0.578,982.67,26.92,287.86
-0.017,-0.009,1.001,0.002,-0.002,-0.002,-0.404,0.150,-0.571,982.67,26.92,287.83
-0.017,-0.011,1.001,0.002,-0.002,-0.002,-0.405,0.148,-0.574,982.57,26.92,288.70
-0.017,-0.010,1.001,0.002,-0.002,-0.002,-0.408,0.150,-0.569,982.69,26.92,287.67
-0.016,-0.011,1.000,0.001,-0.002,-0.002,-0.408,0.150,-0.569,982.66,26.92,287.93
-0.016,-0.010,1.000,0.002,-0.002,-0.002,-0.406,0.147,-0.569,982.75,26.92,287.19
-0.017,-0.010,1.001,0.002,-0.002,-0.002,-0.406,0.146,-0.572,982.71,26.93,287.52
-0.017,-0.010,1.001,0.002,-0.002,-0.002,-0.407,0.144,-0.567,982.63,26.93,288.24
-0.016,-0.010,1.001,0.002,-0.002,-0.002,-0.404,0.149,-0.575,982.63,26.92,288.23
-0.016,-0.011,1.000,0.002,-0.002,-0.002,-0.402,0.147,-0.578,982.64,26.92,288.12
-0.017,-0.011,1.001,0.002,-0.002,-0.002,-0.407,0.146,-0.574,982.65,26.92,288.06
-0.017,-0.010,1.001,0.002,-0.002,-0.002,-0.407,0.146,-0.576,982.66,26.92,287.98
-0.017,-0.011,1.000,0.002,-0.002,-0.002,-0.401,0.147,-0.576,982.61,26.93,288.35
-0.017,-0.011,1.002,0.002,-0.002,-0.002,-0.405,0.148,-0.576,982.60,26.92,288.43
-0.017,-0.010,1.002,0.002,-0.002,-0.001,-0.401,0.143,-0.581,982.67,26.93,287.84
-0.018,-0.009,1.001,0.001,-0.002,-0.002,-0.403,0.144,-0.576,982.64,26.92,288.15
-0.016,-0.011,1.001,0.001,-0.002,-0.002,-0.402,0.146,-0.576,982.65,26.92,288.02
-0.017,-0.011,1.001,0.002,-0.002,-0.002,-0.404,0.147,-0.576,982.67,26.92,287.87
-0.017,-0.010,1.001,0.001,-0.002,-0.002,-0.404,0.148,-0.573,982.62,26.92,288.27
-0.016,-0.011,1.001,0.002,-0.002,-0.002,-0.403,0.148,-0.573,982.67,26.92,287.88
-0.017,-0.010,1.000,0.002,-0.002,-0.001,-0.405,0.147,-0.569,982.62,26.92,288.29
-0.017,-0.011,1.001,0.002,-0.002,-0.002,-0.404,0.149,-0.570,982.65,26.93,288.01
-0.016,-0.011,1.001,0.002,-0.002,-0.002,-0.401,0.150,-0.571,982.67,26.93,287.88
-0.017,-0.012,1.001,0.002,-0.002,-0.002,-0.404,0.150,-0.578,982.68,26.93,287.80
-0.017,-0.011,1.001,0.002,-0.003,-0.002,-0.406,0.149,-0.570,982.71,26.92,287.53
-0.017,-0.011,1.002,0.002,-0.002,-0.002,-0.406,0.149,-0.579,982.64,26.92,288.16
-0.017,-0.011,1.001,0.002,-0.003,-0.002,-0.406,0.149,-0.579,982.57,26.92,288.73
-0.017,-0.010,1.001,0.002,-0.002,-0.002,-0.408,0.151,-0.578,982.60,26.92,288.44
-0.017,-0.012,1.002,0.002,-0.002,-0.002,-0.406,0.147,-0.577,982.68,26.93,287.75
-0.017,-0.011,1.002,0.002,-0.002,-0.002,-0.406,0.152,-0.577,982.66,26.92,287.93
-0.017,-0.010,1.001,0.002,-0.002,-0.002,-0.402,0.145,-0.578,982.67,26.92,287.84
-0.016,-0.011,1.001,0.002,-0.002,-0.002,-0.407,0.147,-0.572,982.59,26.92,288.57
-0.017,-0.011,1.001,0.002,-0.002,-0.002,-0.407,0.149,-0.574,982.71,26.92,287.53
-0.017,-0.010,1.001,0.002,-0.002,-0.002,-0.407,0.149,-0.574,982.60,26.92,288.45
-0.017,-0.011,1.003,0.002,-0.003,-0.002,-0.406,0.146,-0.575,982.61,26.92,288.38
-0.018,-0.010,1.001,0.002,-0.002,-0.002,-0.407,0.152,-0.580,982.63,26.92,288.23
-0.016,-0.010,1.001,0.002,-0.002,-0.002,-0.405,0.147,-0.576,982.65,26.92,288.07
-0.016,-0.011,1.002,0.001,-0.002,-0.002,-0.402,0.149,-0.573,982.68,26.92,287.78
-0.017,-0.012,1.001,0.002,-0.002,-0.002,-0.404,0.145,-0.577,982.66,26.92,287.97
-0.016,-0.011,1.002,0.002,-0.002,-0.002,-0.404,0.147,-0.575,982.68,26.92,287.75
-0.017,-0.011,1.002,0.002,-0.002,-0.001,-0.404,0.147,-0.575,982.67,26.92,287.88
-0.017,-0.011,1.002,0.002,-0.002,-0.002,-0.405,0.149,-0.572,982.63,26.92,288.24
-0.016,-0.010,1.001,0.001,-0.002,-0.002,-0.403,0.148,-0.576,982.74,26.92,287.26
-0.017,-0.011,1.000,0.002,-0.003,-0.002,-0.409,0.145,-0.572,982.68,26.92,287.77
-0.017,-0.011,1.001,0.002,-0.002,-0.002,-0.405,0.150,-0.576,982.71,26.92,287.49
-0.017,-0.010,1.001,0.002,-0.002,-0.002,-0.408,0.145,-0.573,982.69,26.92,287.72
-0.016,-0.011,1.002,0.001,-0.002,-0.002,-0.408,0.145,-0.570,982.66,26.93,287.94
-0.017,-0.011,1.001,0.001,-0.002,-0.002,-0.408,0.145,-0.570,982.61,26.92,288.41
-0.017,-0.012,1.001,0.002,-0.002,-0.002,-0.404,0.146,-0.574,982.59,26.92,288.58
-0.016,-0.010,1.002,0.002,-0.002,-0.002,-0.410,0.146,-0.575,982.64,26.92,288.14
-0.018,-0.011,1.002,0.002,-0.002,-0.002,-0.406,0.149,-0.577,982.72,26.92,287.42
-0.017,-0.010,1.002,0.002,-0.002,-0.002,-0.408,0.149,-0.576,982.67,26.92,287.91
-0.017,-0.012,1.002,0.001,-0.002,-0.002,-0.411,0.142,-0.578,982.64,26.92,288.10
-0.017,-0.010,1.001,0.001,-0.002,-0.002,-0.408,0.149,-0.578,982.61,26.92,288.35
-0.017,-0.011,1.001,0.001,-0.002,-0.002,-0.408,0.149,-0.578,982.66,26.92,287.91
-0.016,-0.010,1.002,0.001,-0.002,-0.002,-0.410,0.147,-0.578,982.65,26.93,288.06
-0.017,-0.011,1.001,0.002,-0.002,-0.002,-0.410,0.150,-0.571,982.63,26.92,288.23
-0.016,-0.011,1.000,0.002,-0.002,-0.002,-0.404,0.149,-0.572,982.61,26.92,288.37
-0.016,-0.011,1.001,0.002,-0.002,-0.002,-0.406,0.147,-0.577,982.64,26.92,288.12
-0.017,-0.011,1.001,0.001,-0.002,-0.002,-0.406,0.144,-0.576,982.64,26.92,288.15
-0.016,-0.011,1.001,0.002,-0.002,-0.002,-0.406,0.146,-0.581,982.64,26.92,288.13
-0.018,-0.010,1.002,0.002,-0.002,-0.002,-0.406,0.146,-0.581,982.62,26.92,288.32
-0.017,-0.012,1.001,0.002,-0.002,-0.002,-0.405,0.148,-0.582,982.65,26.92,288.05
-0.015,-0.011,0.999,0.002,-0.002,-0.002,-0.403,0.146,-0.579,982.64,26.92,288.14
-0.017,-0.011,1.001,0.002,-0.002,-0.002,-0.402,0.144,-0.580,982.55,26.92,288.91
-0.016,-0.011,1.000,0.002,-0.002,-0.002,-0.403,0.145,-0.583,982.69,26.92,287.68
-0.017,-0.011,1.000,0.002,-0.002,-0.002,-0.406,0.146,-0.580,982.74,26.92,287.27
-0.017,-0.011,1.001,0.002,-0.002,-0.002,-0.406,0.150,-0.579,982.65,26.92,288.05
-0.016,-0.010,1.002,0.002,-0.002,-0.002,-0.406,0.150,-0.579,982.66,26.93,287.97
-0.016,-0.011,1.000,0.002,-0.002,-0.002,-0.403,0.148,-0.578,982.64,26.92,288.13
-0.016,-0.011,1.000,0.002,-0.002,-0.001,-0.406,0.148,-0.577,982.65,26.92,288.01
-0.017,-0.011,1.001,0.002,-0.003,-0.002,-0.407,0.147,-0.577,982.62,26.92,288.31
-0.016,-0.011,1.002,0.002,-0.002,-0.002,-0.404,0.150,-0.580,982.65,26.92,288.02
-0.016,-0.011,1.001,0.002,-0.002,-0.002,-0.405,0.151,-0.577,982.59,26.92,288.50
-0.017,-0.011,1.001,0.002,-0.002,-0.002,-0.408,0.153,-0.574,982.66,26.92,287.93
-0.016,-0.010,1.001,0.002,-0.002,-0.002,-0.408,0.153,-0.575,982.75,26.92,287.17
-0.015,-0.010,1.001,0.002,-0.002,-0.002,-0.408,0.152,-0.575,982.59,26.92,288.55
-0.016,-0.011,1.001,0.002,-0.002,-0.002,-0.408,0.150,-0.568,982.62,26.92,288.28
-0.017,-0.011,1.001,0.002,-0.002,-0.002,-0.410,0.150,-0.575,982.73,26.92,287.33
-0.018,-0.011,1.000,0.002,-0.002,-0.002,-0.407,0.150,-0.576,982.63,26.92,288.22
-0.016,-0.010,1.000,0.002,-0.002,-0.002,-0.406,0.149,-0.576,982.66,26.92,287.96
-0.015,-0.011,1.001,0.002,-0.002,-0.002,-0.408,0.148,-0.576,982.63,26.92,288.19
-0.016,-0.010,1.001,0.002,-0.002,-0.002,-0.408,0.151,-0.570,982.70,26.92,287.61
-0.017,-0.011,1.001,0.002,-0.002,-0.002,-0.408,0.151,-0.570,982.59,26.92,288.54
-0.016,-0.011,1.000,0.001,-0.002,-0.002,-0.407,0.148,-0.578,982.64,26.93,288.15
-0.016,-0.010,1.001,0.002,-0.002,-0.002,-0.404,0.146,-0.581,982.64,26.92,288.11
-0.016,-0.012,1.001,0.002,-0.002,-0.001,-0.405,0.149,-0.576,982.63,26.93,288.18
-0.017,-0.011,1.001,0.002,-0.002,-0.002,-0.405,0.146,-0.581,982.66,26.92,287.95
-0.018,-0.011,1.002,0.002,-0.002,-0.002,-0.411,0.143,-0.577,982.60,26.92,288.48
-0.016,-0.011,1.001,0.002,-0.002,-0.002,-0.408,0.148,-0.573,982.65,26.92,288.06
-0.016,-0.011,1.001,0.001,-0.002,-0.002,-0.408,0.148,-0.573,982.60,26.93,288.50
-0.017,-0.010,1.000,0.002,-0.002,-0.002,-0.401,0.147,-0.574,982.66,26.92,287.94
-0.017,-0.011,1.002,0.002,-0.002,-0.001,-0.402,0.146,-0.574,982.66,26.92,287.94
-0.016,-0.011,1.002,0.002,-0.002,-0.002,-0.403,0.144,-0.578,982.68,26.93,287.79
-0.017,-0.011,1.001,0.002,-0.002,-0.002,-0.404,0.147,-0.577,982.68,26.93,287.78
-0.018,-0.011,1.001,0.002,-0.002,-0.002,-0.402,0.147,-0.579,982.73,26.92,287.38
-0.017,-0.011,1.000,0.002,-0.002,-0.002,-0.405,0.148,-0.576,982.70,26.92,287.64
-0.016,-0.011,1.000,0.002,-0.002,-0.001,-0.405,0.148,-0.576,982.67,26.92,287.86
-0.016,-0.011,1.002,0.002,-0.002,-0.002,-0.406,0.144,-0.577,982.67,26.92,287.84
-0.017,-0.011,1.002,0.002,-0.002,-0.002,-0.403,0.148,-0.574,982.65,26.92,288.01
-0.017,-0.011,1.001,0.001,-0.003,-0.002,-0.407,0.149,-0.570,982.72,26.92,287.43
-0.016,-0.010,1.002,0.002,-0.002,-0.002,-0.405,0.151,-0.579,982.58,26.92,288.64
-0.017,-0.011,1.001,0.002,-0.002,-0.001,-0.405,0.151,-0.578,982.61,26.92,288.35
-0.016,-0.011,1.001,0.002,-0.002,-0.001,-0.404,0.149,-0.579,982.62,26.93,288.30
-0.017,-0.010,1.002,0.002,-0.002,-0.002,-0.404,0.149,-0.579,982.63,26.92,288.21
-0.017,-0.011,1.001,0.002,-0.002,-0.002,-0.405,0.148,-0.583,982.63,26.93,288.22
-0.017,-0.011,1.001,0.002,-0.002,-0.002,-0.401,0.149,-0.574,982.63,26.92,288.17
-0.016,-0.009,1.002,0.002,-0.002,-0.002,-0.403,0.144,-0.574,982.61,26.93,288.41
-0.018,-0.010,1.002,0.002,-0.002,-0.002,-0.403,0.148,-0.577,982.62,26.92,288.28
-0.017,-0.010,1.002,0.002,-0.002,-0.002,-0.403,0.149,-0.572,982.64,26.92,288.14
-0.016,-0.010,1.001,0.002,-0.002,-0.002,-0.406,0.148,-0.577,982.65,26.92,288.05
-0.015,-0.011,1.001,0.002,-0.002,-0.002,-0.406,0.148,-0.577,982.70,26.92,287.61
-0.017,-0.010,1.001,0.002,-0.002,-0.002,-0.404,0.145,-0.577,982.65,26.92,288.05
-0.016,-0.012,1.002,0.002,-0.002,-0.002,-0.405,0.145,-0.581,982.66,26.93,287.97
-0.016,-0.011,1.002,0.002,-0.002,-0.002,-0.403,0.150,-0.582,982.67,26.92,287.84
-0.017,-0.011,1.002,0.002,-0.002,-0.002,-0.401,0.150,-0.578,982.69,26.93,287.70
-0.016,-0.010,1.001,0.002,-0.002,-0.002,-0.404,0.148,-0.578,982.69,26.93,287.72
-0.016,-0.012,1.001,0.001,-0.002,-0.002,-0.405,0.146,-0.574,982.62,26.92,288.29
-0.017,-0.011,1.002,0.002,-0.002,-0.002,-0.405,0.146,-0.574,982.66,26.92,287.94
-0.018,-0.010,1.002,0.001,-0.002,-0.002,-0.403,0.151,-0.575,982.66,26.92,287.93
-0.017,-0.010,1.002,0.002,-0.002,-0.002,-0.402,0.147,-0.578,982.70,26.92,287.59
-0.017,-0.010,1.001,0.002,-0.002,-0.002,-0.404,0.143,-0.572,982.66,26.92,287.93
-0.016,-0.011,1.000,0.002,-0.002,-0.002,-0.403,0.150,-0.572,982.69,26.92,287.72
-0.017,-0.010,1.000,0.002,-0.002,-0.002,-0.403,0.146,-0.581,982.72,26.92,287.44
-0.017,-0.011,1.001,0.002,-0.002,-0.002,-0.406,0.144,-0.582,982.61,26.92,288.41
-0.016,-0.011,1.001,0.001,-0.002,-0.002,-0.406,0.144,-0.582,982.61,26.92,288.42
-0.017,-0.011,1.001,0.002,-0.002,-0.002,-0.401,0.148,-0.583,982.60,26.92,288.43
-0.016,-0.011,1.001,0.002,-0.002,-0.002,-0.400,0.151,-0.580,982.63,26.92,288.17
-0.016,-0.011,1.001,0.001,-0.003,-0.002,-0.402,0.148,-0.575,982.68,26.92,287.80
-0.017,-0.011,1.001,0.002,-0.002,-0.002,-0.402,0.149,-0.576,982.66,26.92,287.91
-0.016,-0.010,1.001,0.001,-0.002,-0.001,-0.402,0.148,-0.578,982.65,26.93,288.08
-0.018,-0.011,1.000,0.001,-0.002,-0.001,-0.405,0.150,-0.579,982.59,26.92,288.52
-0.016,-0.011,1.001,0.002,-0.002,-0.002,-0.405,0.147,-0.582,982.56,26.92,288.77
-0.017,-0.011,1.001,0.002,-0.002,-0.002,-0.401,0.147,-0.582,982.61,26.92,288.35
-0.017,-0.011,1.001,0.002,-0.002,-0.002,-0.404,0.154,-0.579,982.69,26.92,287.67
-0.018,-0.011,1.001,0.002,-0.002,-0.002,-0.407,0.152,-0.575,982.63,26.92,288.24
-0.016,-0.011,1.002,0.002,-0.003,-0.002,-0.410,0.148,-0.581,982.59,26.92,288.53
-0.016,-0.011,1.000,0.002,-0.003,-0.002,-0.409,0.148,-0.581,982.70,26.92,287.60
-0.016,-0.010,1.001,0.002,-0.002,-0.002,-0.408,0.153,-0.585,982.67,26.92,287.85
-0.015,-0.010,1.001,0.002,-0.002,-0.002,-0.406,0.149,-0.580,982.62,26.92,288.27
-0.017,-0.011,1.002,0.002,-0.002,-0.002,-0.406,0.149,-0.580,982.64,26.92,288.13
-0.018,-0.011,1.000,0.002,-0.002,-0.002,-0.404,0.152,-0.579,982.66,26.92,287.99
-0.015,-0.011,1.001,0.002,-0.002,-0.002,-0.403,0.154,-0.581,982.67,26.92,287.83
-0.017,-0.010,1.001,0.002,-0.002,-0.002,-0.409,0.148,-0.577,982.71,26.92,287.56
-0.017,-0.011,1.000,0.002,-0.002,-0.002,-0.407,0.154,-0.580,982.63,26.92,288.17
-0.018,-0.010,1.001,0.002,-0.002,-0.002,-0.410,0.149,-0.580,982.63,26.92,288.21
-0.016,-0.010,1.001,0.002,-0.002,-0.002,-0.405,0.150,-0.585,982.62,26.93,288.28
-0.016,-0.012,1.001,0.001,-0.002,-0.002,-0.405,0.150,-0.585,982.61,26.92,288.39
-0.017,-0.011,1.001,0.001,-0.002,-0.002,-0.404,0.150,-0.585,982.64,26.92,288.14
-0.016,-0.010,1.001,0.001,-0.002,-0.002,-0.409,0.144,-0.586,982.61,26.92,288.42
-0.016,-0.010,1.000,0.002,-0.002,-0.002,-0.403,0.148,-0.580,982.63,26.92,288.17
-0.017,-0.011,1.000,0.002,-0.002,-0.002,-0.403,0.148,-0.580,982.67,26.92,287.91
-0.015,-0.011,1.001,0.002,-0.002,-0.001,-0.399,0.147,-0.578,982.66,26.92,287.94
-0.017,-0.010,1.002,0.002,-0.002,-0.002,-0.402,0.151,-0.578,982.54,26.92,288.94
-0.017,-0.011,1.000,0.002,-0.002,-0.002,-0.402,0.151,-0.578,982.66,26.92,287.94
-0.016,-0.010,1.001,0.002,-0.002,-0.002,-0.397,0.152,-0.577,982.72,26.92,287.41
-0.017,-0.011,1.001,0.002,-0.002,-0.002,-0.400,0.152,-0.580,982.66,26.92,287.98
-0.018,-0.010,1.001,0.002,-0.002,-0.002,-0.404,0.146,-0.577,982.68,26.92,287.76
-0.016,-0.011,1.002,0.002,-0.002,-0.002,-0.404,0.148,-0.574,982.53,26.92,289.02
-0.017,-0.010,1.001,0.002,-0.002,-0.002,-0.404,0.148,-0.582,982.59,26.93,288.52
-0.016,-0.011,1.001,0.002,-0.002,-0.001,-0.403,0.150,-0.582,982.66,26.92,287.98
-0.017,-0.011,1.001,0.002,-0.002,-0.002,-0.403,0.150,-0.582,982.67,26.93,287.87
-0.016,-0.011,1.001,0.001,-0.002,-0.002,-0.402,0.152,-0.576,982.68,26.93,287.78
-0.017,-0.011,1.001,0.001,-0.002,-0.002,-0.405,0.145,-0.583,982.62,26.93,288.31
-0.017,-0.011,1.001,0.002,-0.002,-0.002,-0.402,0.144,-0.581,982.67,26.92,287.89
-0.017,-0.012,1.001,0.001,-0.002,-0.002,-0.403,0.148,-0.581,982.63,26.92,288.19
-0.017,-0.010,1.002,0.001,-0.002,-0.002,-0.405,0.149,-0.584,982.66,26.92,287.97
-0.016,-0.010,1.001,0.001,-0.002,-0.002,-0.406,0.151,-0.584,982.71,26.92,287.51
-0.017,-0.011,1.002,0.002,-0.002,-0.002,-0.406,0.151,-0.584,982.63,26.92,288.17
-0.017,-0.012,1.000,0.002,-0.002,-0.001,-0.401,0.149,-0.577,982.65,26.92,288.07
-0.017,-0.011,1.001,0.001,-0.002,-0.002,-0.409,0.147,-0.583,982.68,26.92,287.80
-0.017,-0.012,1.001,0.002,-0.002,-0.002,-0.408,0.145,-0.580,982.64,26.93,288.12
-0.017,-0.009,1.002,0.002,-0.002,-0.002,-0.409,0.149,-0.581,982.66,26.92,287.99
-0.017,-0.011,1.001,0.002,-0.002,-0.002,-0.405,0.149,-0.587,982.66,26.93,287.96
-0.017,-0.011,1.001,0.002,-0.003,-0.002,-0.403,0.144,-0.578,982.64,26.92,288.13
-0.017,-0.011,1.000,0.002,-0.002,-0.002,-0.403,0.144,-0.578,982.69,26.92,287.71
-0.017,-0.011,1.001,0.002,-0.002,-0.002,-0.404,0.148,-0.580,982.65,26.92,288.06
-0.017,-0.011,1.002,0.002,-0.003,-0.002,-0.407,0.144,-0.575,982.61,26.92,288.36
-0.016,-0.011,1.002,0.002,-0.002,-0.002,-0.403,0.148,-0.574,982.70,26.92,287.63
-0.016,-0.010,1.001,0.002,-0.002,-0.002,-0.403,0.147,-0.576,982.67,26.92,287.85
-0.017,-0.010,1.001,0.002,-0.002,-0.002,-0.404,0.144,-0.572,982.64,26.92,288.16
-0.018,-0.011,1.002,0.002,-0.002,-0.002,-0.402,0.144,-0.577,982.71,26.93,287.53
-0.017,-0.013,1.002,0.002,-0.002,-0.002,-0.402,0.144,-0.581,982.68,26.92,287.82
-0.017,-0.011,1.003,0.001,-0.002,-0.002,-0.402,0.142,-0.581,982.67,26.93,287.89
-0.017,-0.011,1.001,0.002,-0.002,-0.002,-0.400,0.145,-0.580,982.65,26.92,288.06
-0.017,-0.011,1.002,0.002,-0.002,-0.002,-0.399,0.147,-0.577,982.73,26.92,287.31
-0.016,-0.010,1.001,0.002,-0.002,-0.002,-0.400,0.148,-0.575,982.62,26.92,288.32
-0.017,-0.010,1.001,0.001,-0.002,-0.002,-0.403,0.142,-0.576,982.66,26.93,287.93
-0.018,-0.012,1.002,0.002,-0.003,-0.002,-0.397,0.148,-0.576,982.62,26.92,288.27
-0.017,-0.012,1.003,0.002,-0.002,-0.002,-0.397,0.146,-0.578,982.65,26.92,288.03
-0.017,-0.012,1.001,0.002,-0.002,-0.002,-0.400,0.146,-0.578,982.67,26.93,287.90
-0.017,-0.010,1.001,0.002,-0.002,-0.001,-0.402,0.147,-0.579,982.62,26.92,288.25
-0.017,-0.010,1.002,0.002,-0.002,-0.002,-0.405,0.145,-0.577,982.74,26.92,287.30
-0.017,-0.011,1.002,0.002,-0.002,-0.001,-0.401,0.148,-0.574,982.66,26.93,287.94
-0.017,-0.012,1.002,0.002,-0.002,-0.002,-0.404,0.147,-0.578,982.62,26.92,288.28
-0.017,-0.011,1.000,0.002,-0.002,-0.001,-0.403,0.148,-0.576,982.63,26.93,288.23
-0.016,-0.010,1.001,0.002,-0.002,-0.002,-0.401,0.144,-0.579,982.69,26.92,287.69
-0.017,-0.011,1.002,0.001,-0.002,-0.002,-0.401,0.144,-0.579,982.66,26.93,287.96
-0.017,-0.011,1.002,0.002,-0.002,-0.002,-0.401,0.146,-0.573,982.65,26.92,288.02
-0.017,-0.011,1.001,0.002,-0.002,-0.002,-0.401,0.149,-0.574,982.70,26.92,287.60
-0.016,-0.010,1.002,0.002,-0.002,-0.002,-0.403,0.146,-0.578,982.65,26.92,288.05
-0.016,-0.010,1.001,0.001,-0.002,-0.002,-0.406,0.146,-0.583,982.68,26.92,287.79
-0.018,-0.011,1.001,0.002,-0.002,-0.002,-0.403,0.150,-0.575,982.73,26.92,287.40
-0.016,-0.011,1.001,0.002,-0.002,-0.002,-0.408,0.146,-0.577,982.66,26.92,287.95
-0.017,-0.010,1.001,0.001,-0.002,-0.002,-0.408,0.146,-0.577,982.66,26.92,287.95
-0.017,-0.011,1.001,0.002,-0.002,-0.002,-0.408,0.144,-0.578,982.61,26.93,288.36
-0.016,-0.011,1.000,0.002,-0.002,-0.002,-0.408,0.150,-0.577,982.67,26.92,287.88
-0.016,-0.011,1.001,0.002,-0.002,-0.002,-0.407,0.151,-0.582,982.55,26.92,288.88
-0.016,-0.011,1.001,0.001,-0.002,-0.002,-0.405,0.151,-0.579,982.70,26.92,287.64
-0.017,-0.012,1.002,0.001,-0.002,-0.002,-0.405,0.145,-0.573,982.64,26.92,288.16
-0.017,-0.011,1.001,0.002,-0.002,-0.002,-0.405,0.145,-0.573,982.70,26.92,287.65
-0.016,-0.011,1.002,0.002,-0.002,-0.002,-0.405,0.145,-0.573,982.70,26.92,287.63
-0.016,-0.010,1.000,0.002,-0.002,-0.002,-0.404,0.148,-0.574,982.60,26.93,288.46
-0.017,-0.011,1.000,0.001,-0.002,-0.002,-0.406,0.145,-0.573,982.66,26.92,287.98
-0.019,-0.011,1.001,0.002,-0.002,-0.002,-0.408,0.147,-0.579,982.62,26.92,288.31
-0.016,-0.011,1.001,0.002,-0.002,-0.002,-0.405,0.148,-0.580,982.70,26.93,287.61
-0.016,-0.012,1.000,0.002,-0.002,-0.002,-0.408,0.147,-0.575,982.68,26.92,287.77
-0.017,-0.010,1.001,0.002,-0.002,-0.002,-0.408,0.147,-0.576,982.73,26.92,287.37
-0.018,-0.011,1.000,0.002,-0.002,-0.002,-0.408,0.147,-0.576,982.62,26.93,288.28
-0.018,-0.011,1.001,0.002,-0.002,-0.002,-0.404,0.145,-0.579,982.59,26.93,288.59
-0.018,-0.011,1.001,0.002,-0.002,-0.002,-0.402,0.144,-0.578,982.70,26.92,287.58
-0.017,-0.012,1.001,0.002,-0.002,-0.002,-0.408,0.145,-0.570,982.67,26.93,287.89
-0.015,-0.010,1.001,0.002,-0.002,-0.001,-0.406,0.146,-0.575,982.60,26.92,288.44
-0.016,-0.010,1.002,0.002,-0.002,-0.002,-0.405,0.144,-0.576,982.61,26.92,288.40
-0.015,-0.010,1.001,0.002,-0.002,-0.002,-0.408,0.147,-0.574,982.60,26.93,288.50
-0.017,-0.012,1.001,0.002,-0.002,-0.002,-0.408,0.147,-0.574,982.61,26.93,288.41
-0.018,-0.012,1.001,0.002,-0.002,-0.002,-0.403,0.148,-0.571,982.69,26.93,287.66
-0.016,-0.012,1.000,0.001,-0.002,-0.002,-0.403,0.146,-0.567,982.58,26.93,288.61
-0.016,-0.011,1.001,0.001,-0.002,-0.001,-0.398,0.147,-0.571,982.62,26.92,288.29
-0.017,-0.011,1.001,0.002,-0.002,-0.002,-0.400,0.149,-0.575,982.68,26.92,287.77
-0.015,-0.011,1.001,0.002,-0.002,-0.002,-0.404,0.146,-0.578,982.63,26.92,288.20
-0.017,-0.011,1.000,0.002,-0.002,-0.002,-0.403,0.147,-0.580,982.64,26.92,288.14
-0.016,-0.011,1.001,0.001,-0.002,-0.002,-0.403,0.147,-0.580,982.75,26.92,287.22
-0.016,-0.011,1.000,0.002,-0.003,-0.002,-0.403,0.150,-0.569,982.72,26.92,287.46
-0.016,-0.012,1.000,0.002,-0.002,-0.002,-0.403,0.150,-0.572,982.63,26.92,288.22
-0.016,-0.011,1.001,0.002,-0.002,-0.002,-0.403,0.147,-0.569,982.60,26.93,288.42
-0.017,-0.011,1.001,0.002,-0.002,-0.002,-0.403,0.146,-0.574,982.69,26.92,287.70
-0.016,-0.011,1.001,0.002,-0.002,-0.002,-0.403,0.147,-0.574,982.65,26.92,288.07
-0.017,-0.010,1.002,0.002,-0.002,-0.002,-0.408,0.150,-0.574,982.67,26.92,287.83
-0.017,-0.011,1.000,0.002,-0.002,-0.002,-0.408,0.150,-0.575,982.70,26.92,287.60
-0.017,-0.012,1.001,0.001,-0.002,-0.002,-0.406,0.148,-0.575,982.69,26.92,287.71
-0.016,-0.011,1.002,0.001,-0.002,-0.002,-0.408,0.144,-0.573,982.66,26.92,287.97
-0.016,-0.011,1.001,0.001,-0.002,-0.001,-0.403,0.145,-0.572,982.72,26.93,287.40
-0.017,-0.011,1.000,0.001,-0.002,-0.001,-0.405,0.145,-0.577,982.60,26.92,288.48
-0.017,-0.011,1.000,0.002,-0.002,-0.002,-0.406,0.144,-0.572,982.64,26.93,288.13
-0.017,-0.011,1.001,0.002,-0.002,-0.002,-0.404,0.147,-0.574,982.68,26.93,287.82
-0.017,-0.011,1.000,0.002,-0.002,-0.002,-0.406,0.145,-0.573,982.62,26.93,288.28
-0.016,-0.010,1.001,0.002,-0.002,-0.002,-0.406,0.145,-0.573,982.66,26.92,287.93
-0.015,-0.011,1.001,0.002,-0.002,-0.002,-0.405,0.142,-0.572,982.63,26.93,288.23
-0.017,-0.011,1.001,0.001,-0.002,-0.002,-0.406,0.143,-0.578,982.62,26.92,288.33
-0.017,-0.010,1.001,0.002,-0.002,-0.002,-0.403,0.143,-0.571,982.68,26.93,287.78
-0.017,-0.010,1.001,0.002,-0.002,-0.002,-0.405,0.147,-0.577,982.57,26.93,288.75
-0.018,-0.011,1.001,0.002,-0.002,-0.002,-0.401,0.141,-0.572,982.60,26.93,288.42
-0.017,-0.011,1.001,0.002,-0.002,-0.002,-0.404,0.143,-0.583,982.68,26.92,287.75
-0.017,-0.010,1.001,0.002,-0.002,-0.001,-0.404,0.143,-0.583,982.60,26.92,288.47
-0.016,-0.011,1.000,0.002,-0.002,-0.002,-0.404,0.144,-0.583,982.68,26.92,287.79
-0.017,-0.010,1.000,0.002,-0.002,-0.002,-0.398,0.147,-0.577,982.71,26.92,287.53
-0.017,-0.010,1.002,0.001,-0.002,-0.002,-0.404,0.147,-0.577,982.62,26.92,288.32
-0.016,-0.011,1.001,0.002,-0.002,-0.002,-0.405,0.144,-0.576,982.63,26.92,288.17
-0.017,-0.011,1.001,0.002,-0.002,-0.002,-0.402,0.147,-0.578,982.67,26.93,287.85
-0.018,-0.012,1.001,0.002,-0.002,-0.002,-0.405,0.152,-0.572,982.65,26.92,288.02
-0.017,-0.011,1.001,0.002,-0.002,-0.002,-0.405,0.152,-0.572,982.62,26.92,288.31
-0.016,-0.010,1.002,0.002,-0.002,-0.002,-0.406,0.150,-0.580,982.66,26.92,287.99
-0.017,-0.011,1.002,0.002,-0.002,-0.001,-0.404,0.150,-0.578,982.69,26.92,287.69
-0.016,-0.011,1.001,0.002,-0.002,-0.002,-0.407,0.149,-0.582,982.68,26.92,287.81
-0.018,-0.011,1.000,0.002,-0.002,-0.001,-0.403,0.147,-0.581,982.68,26.93,287.76
-0.017,-0.012,1.001,0.001,-0.002,-0.002,-0.403,0.144,-0.580,982.70,26.92,287.60
-0.017,-0.011,1.001,0.002,-0.002,-0.002,-0.402,0.148,-0.583,982.67,26.92,287.86
-0.016,-0.010,1.002,0.001,-0.002,-0.002,-0.402,0.148,-0.583,982.58,26.92,288.61
-0.017,-0.011,1.002,0.002,-0.002,-0.002,-0.404,0.152,-0.584,982.61,26.92,288.39
-0.017,-0.011,1.001,0.001,-0.002,-0.002,-0.402,0.151,-0.578,982.67,26.92,287.91
-0.017,-0.010,1.001,0.002,-0.002,-0.002,-0.402,0.148,-0.581,982.66,26.92,287.95
-0.017,-0.011,1.001,0.001,-0.002,-0.002,-0.403,0.149,-0.585,982.63,26.92,288.23
-0.019,-0.011,1.001,0.002,-0.002,-0.002,-0.405,0.151,-0.583,982.70,26.92,287.58
-0.018,-0.011,1.002,0.002,-0.002,-0.002,-0.406,0.150,-0.576,982.61,26.93,288.34
-0.015,-0.010,1.002,0.002,-0.002,-0.002,-0.406,0.150,-0.576,982.65,26.92,288.01
-0.016,-0.010,1.000,0.002,-0.002,-0.002,-0.406,0.149,-0.580,982.68,26.92,287.79
-0.016,-0.010,1.001,0.002,-0.002,-0.002,-0.401,0.149,-0.578,982.61,26.92,288.41
-0.017,-0.011,1.001,0.001,-0.002,-0.002,-0.400,0.149,-0.578,982.60,26.92,288.43
-0.017,-0.010,1.001,0.001,-0.002,-0.002,-0.405,0.148,-0.582,982.66,26.92,287.96
-0.017,-0.011,1.001,0.002,-0.002,-0.002,-0.402,0.150,-0.574,982.66,26.93,287.92
-0.016,-0.011,1.002,0.002,-0.002,-0.002,-0.404,0.145,-0.579,982.71,26.92,287.52
-0.018,-0.011,1.002,0.002,-0.002,-0.002,-0.404,0.145,-0.579,982.60,26.92,288.45
-0.016,-0.010,1.001,0.002,-0.002,-0.002,-0.401,0.145,-0.577,982.70,26.92,287.62
-0.017,-0.011,1.001,0.002,-0.002,-0.002,-0.402,0.143,-0.578,982.62,26.93,288.28
-0.017,-0.012,1.001,0.002,-0.002,-0.002,-0.404,0.149,-0.571,982.65,26.93,288.07
-0.016,-0.011,1.000,0.002,-0.002,-0.002,-0.404,0.148,-0.577,982.62,26.93,288.31
-0.016,-0.012,1.001,0.001,-0.002,-0.002,-0.402,0.151,-0.577,982.58,26.92,288.65
-0.018,-0.010,1.001,0.001,-0.002,-0.002,-0.405,0.148,-0.578,982.62,26.92,288.25
-0.017,-0.010,1.001,0.002,-0.002,-0.002,-0.405,0.148,-0.578,982.72,26.93,287.40
-0.017,-0.011,1.001,0.002,-0.002,-0.002,-0.405,0.148,-0.572,982.62,26.92,288.25
-0.017,-0.011,1.002,0.002,-0.002,-0.002,-0.403,0.153,-0.569,982.67,26.93,287.89
-0.017,-0.010,1.000,0.002,-0.002,-0.002,-0.404,0.146,-0.569,982.62,26.92,288.33
-0.017,-0.011,1.001,0.002,-0.002,-0.002,-0.407,0.147,-0.574,982.62,26.93,288.27
-0.018,-0.011,1.001,0.002,-0.002,-0.002,-0.405,0.148,-0.572,982.69,26.92,287.67
-0.017,-0.011,1.002,0.002,-0.002,-0.002,-0.406,0.147,-0.577,982.63,26.93,288.19
-0.017,-0.010,1.002,0.001,-0.002,-0.002,-0.406,0.147,-0.574,982.63,26.93,288.17
-0.017,-0.011,0.999,0.002,-0.002,-0.002,-0.405,0.146,-0.574,982.67,26.92,287.85
-0.017,-0.011,1.000,0.002,-0.002,-0.002,-0.407,0.145,-0.577,982.71,26.92,287.53
-0.017,-0.011,1.001,0.002,-0.002,-0.002,-0.406,0.143,-0.572,982.60,26.92,288.46
-0.017,-0.011,1.001,0.002,-0.002,-0.002,-0.408,0.142,-0.576,982.65,26.92,288.01
-0.017,-0.011,1.000,0.002,-0.002,-0.002,-0.406,0.147,-0.572,982.65,26.93,288.06
-0.016,-0.011,1.001,0.001,-0.002,-0.002,-0.409,0.148,-0.568,982.64,26.92,288.16
-0.016,-0.011,1.001,0.001,-0.002,-0.002,-0.409,0.149,-0.577,982.64,26.92,288.12
-0.016,-0.010,1.001,0.002,-0.002,-0.002,-0.408,0.149,-0.577,982.56,26.93,288.80
-0.017,-0.010,1.001,0.002,-0.002,-0.002,-0.406,0.151,-0.571,982.63,26.92,288.18
-0.016,-0.011,1.001,0.002,-0.002,-0.002,-0.406,0.146,-0.570,982.66,26.93,287.95
-0.016,-0.011,1.001,0.002,-0.002,-0.001,-0.406,0.145,-0.576,982.58,26.92,288.59
-0.016,-0.010,1.001,0.001,-0.002,-0.001,-0.404,0.146,-0.570,982.69,26.92,287.69
-0.017,-0.010,1.001,0.001,-0.002,-0.002,-0.405,0.143,-0.567,982.63,26.92,288.20
-0.018,-0.010,1.001,0.001,-0.002,-0.002,-0.406,0.145,-0.567,982.65,26.92,288.01
-0.016,-0.010,1.001,0.001,-0.002,-0.002,-0.406,0.145,-0.567,982.60,26.92,288.44
-0.016,-0.010,1.000,0.001,-0.002,-0.002,-0.404,0.146,-0.573,982.63,26.92,288.17
-0.016,-0.011,1.002,0.002,-0.002,-0.002,-0.403,0.142,-0.577,982.67,26.92,287.86
-0.016,-0.010,1.001,0.002,-0.002,-0.002,-0.400,0.143,-0.575,982.65,26.92,288.05
-0.016,-0.011,1.002,0.002,-0.002,-0.002,-0.403,0.147,-0.575,982.64,26.93,288.13
-0.017,-0.011,1.001,0.002,-0.002,-0.002,-0.400,0.147,-0.574,982.61,26.92,288.39
-0.018,-0.010,1.001,0.002,-0.002,-0.002,-0.402,0.143,-0.579,982.62,26.93,288.29
-0.017,-0.011,1.000,0.001,-0.002,-0.002,-0.402,0.143,-0.579,982.66,26.93,287.96
-0.016,-0.010,1.002,0.002,-0.002,-0.002,-0.403,0.146,-0.580,982.64,26.93,288.13
-0.018,-0.011,1.001,0.001,-0.002,-0.002,-0.404,0.143,-0.574,982.68,26.92,287.80
-0.017,-0.011,1.002,0.002,-0.002,-0.002,-0.405,0.147,-0.575,982.66,26.93,287.92
-0.017,-0.011,1.001,0.002,-0.002,-0.002,-0.406,0.144,-0.572,982.56,26.92,288.81
-0.016,-0.011,1.001,0.002,-0.002,-0.002,-0.406,0.146,-0.576,982.69,26.93,287.68
-0.016,-0.010,1.001,0.002,-0.002,-0.002,-0.404,0.147,-0.570,982.61,26.92,288.41
-0.017,-0.011,1.000,0.002,-0.002,-0.002,-0.404,0.147,-0.570,982.65,26.93,288.06
-0.017,-0.011,1.002,0.002,-0.002,-0.002,-0.399,0.147,-0.581,982.60,26.92,288.47
-0.017,-0.012,1.001,0.002,-0.002,-0.002,-0.402,0.147,-0.578,982.64,26.92,288.15
-0.017,-0.011,1.001,0.002,-0.002,-0.002,-0.402,0.143,-0.571,982.66,26.92,287.99
-0.017,-0.011,1.001,0.002,-0.002,-0.002,-0.403,0.149,-0.575,982.72,26.92,287.44
-0.016,-0.010,1.002,0.002,-0.002,-0.001,-0.406,0.150,-0.578,982.66,26.92,287.98
-0.017,-0.011,1.001,0.001,-0.002,-0.002,-0.404,0.143,-0.576,982.69,26.93,287.72
-0.017,-0.011,1.002,0.001,-0.002,-0.002,-0.404,0.143,-0.576,982.63,26.92,288.24
-0.016,-0.011,1.001,0.001,-0.002,-0.002,-0.404,0.147,-0.571,982.68,26.93,287.79
-0.017,-0.011,1.001,0.002,-0.003,-0.002,-0.406,0.144,-0.579,982.66,26.93,287.99
-0.016,-0.010,1.001,0.002,-0.002,-0.002,-0.404,0.150,-0.574,982.60,26.92,288.47
-0.017,-0.010,1.001,0.002,-0.002,-0.002,-0.404,0.147,-0.580,982.65,26.92,288.00
-0.016,-0.011,1.001,0.002,-0.002,-0.002,-0.402,0.147,-0.574,982.59,26.92,288.54
-0.017,-0.010,1.000,0.002,-0.002,-0.002,-0.402,0.149,-0.578,982.69,26.93,287.68
-0.016,-0.011,1.001,0.002,-0.002,-0.002,-0.402,0.149,-0.578,982.62,26.93,288.28
-0.017,-0.012,1.001,0.002,-0.002,-0.002,-0.402,0.151,-0.575,982.63,26.92,288.18
-0.016,-0.011,1.001,0.002,-0.002,-0.002,-0.405,0.147,-0.572,982.56,26.93,288.77
-0.017,-0.010,1.001,0.002,-0.002,-0.002,-0.401,0.144,-0.572,982.67,26.93,287.84
-0.018,-0.011,1.002,0.002,-0.002,-0.002,-0.408,0.145,-0.572,982.66,26.93,287.93
-0.017,-0.010,1.000,0.002,-0.002,-0.002,-0.403,0.140,-0.578,982.69,26.92,287.67
-0.016,-0.011,1.001,0.002,-0.002,-0.002,-0.400,0.147,-0.572,982.64,26.93,288.13
-0.016,-0.011,1.001,0.002,-0.002,-0.002,-0.400,0.147,-0.572,982.61,26.92,288.37
-0.017,-0.011,1.001,0.001,-0.002,-0.002,-0.404,0.146,-0.573,982.63,26.93,288.17
-0.017,-0.011,1.001,0.001,-0.002,-0.002,-0.401,0.145,-0.572,982.68,26.93,287.79
-0.017,-0.011,1.001,0.002,-0.002,-0.002,-0.404,0.141,-0.580,982.69,26.93,287.71
-0.016,-0.011,1.000,0.002,-0.002,-0.002,-0.403,0.141,-0.575,982.62,26.92,288.28
-0.017,-0.011,1.001,0.001,-0.002,-0.002,-0.405,0.145,-0.575,982.74,26.92,287.29
-0.017,-0.010,1.001,0.001,-0.002,-0.002,-0.403,0.142,-0.579,982.62,26.92,288.32
-0.016,-0.010,1.001,0.002,-0.002,-0.002,-0.403,0.144,-0.577,982.65,26.92,288.03
-0.017,-0.011,1.001,0.002,-0.002,-0.002,-0.403,0.144,-0.577,982.62,26.93,288.27
-0.016,-0.011,1.001,0.002,-0.002,-0.002,-0.401,0.145,-0.579,982.64,26.93,288.13
-0.015,-0.011,1.000,0.002,-0.002,-0.002,-0.402,0.146,-0.580,982.61,26.93,288.40
-0.017,-0.011,1.000,0.001,-0.002,-0.002,-0.401,0.144,-0.583,982.62,26.93,288.28
-0.017,-0.010,1.001,0.001,-0.002,-0.002,-0.400,0.143,-0.581,982.62,26.93,288.30
-0.017,-0.011,1.001,0.002,-0.002,-0.002,-0.401,0.144,-0.574,982.60,26.92,288.42
-0.016,-0.010,1.001,0.002,-0.002,-0.002,-0.405,0.142,-0.574,982.69,26.92,287.69
-0.017,-0.011,1.000,0.002,-0.002,-0.002,-0.405,0.142,-0.574,982.70,26.93,287.61
-0.017,-0.010,1.000,0.002,-0.003,-0.001,-0.402,0.145,-0.580,982.66,26.93,287.93
-0.018,-0.011,1.001,0.002,-0.003,-0.002,-0.404,0.145,-0.571,982.72,26.93,287.40
-0.015,-0.010,1.001,0.002,-0.002,-0.002,-0.405,0.146,-0.574,982.65,26.93,288.07
-0.018,-0.011,1.001,0.002,-0.002,-0.002,-0.403,0.145,-0.573,982.69,26.92,287.71
-0.016,-0.010,1.001,0.002,-0.002,-0.002,-0.405,0.139,-0.577,982.63,26.92,288.17
-0.017,-0.010,1.001,0.002,-0.002,-0.002,-0.404,0.146,-0.577,982.65,26.92,288.06
-0.016,-0.012,1.001,0.002,-0.003,-0.002,-0.404,0.146,-0.577,982.61,26.93,288.41
-0.016,-0.010,1.001,0.002,-0.003,-0.002,-0.405,0.146,-0.575,982.59,26.93,288.54
-0.016,-0.012,1.000,0.002,-0.002,-0.002,-0.403,0.147,-0.570,982.63,26.93,288.24
-0.016,-0.011,1.001,0.002,-0.003,-0.002,-0.403,0.147,-0.571,982.71,26.93,287.52
-0.016,-0.011,1.001,0.002,-0.002,-0.002,-0.405,0.149,-0.570,982.67,26.92,287.88
-0.016,-0.011,1.001,0.002,-0.002,-0.002,-0.402,0.150,-0.571,982.61,26.92,288.40
-0.016,-0.011,1.001,0.002,-0.002,-0.002,-0.404,0.149,-0.569,982.65,26.92,288.07
-0.016,-0.011,1.000,0.002,-0.002,-0.002,-0.404,0.149,-0.569,982.65,26.93,288.07
-0.016,-0.011,1.001,0.001,-0.003,-0.002,-0.401,0.150,-0.572,982.68,26.93,287.80
-0.017,-0.011,1.001,0.002,-0.002,-0.002,-0.404,0.149,-0.569,982.70,26.92,287.61
-0.016,-0.011,1.000,0.001,-0.002,-0.002,-0.402,0.145,-0.570,982.66,26.93,287.94
-0.016,-0.012,1.001,0.001,-0.002,-0.002,-0.403,0.145,-0.566,982.72,26.92,287.42
-0.016,-0.011,1.001,0.002,-0.002,-0.002,-0.402,0.148,-0.569,982.66,26.92,287.95
-0.016,-0.010,1.001,0.002,-0.002,-0.002,-0.397,0.149,-0.570,982.67,26.92,287.90
-0.017,-0.010,1.001,0.002,-0.002,-0.002,-0.397,0.149,-0.570,982.70,26.93,287.60
-0.017,-0.010,1.001,0.002,-0.002,-0.002,-0.400,0.150,-0.569,982.56,26.92,288.83
-0.017,-0.011,1.000,0.002,-0.002,-0.002,-0.402,0.144,-0.571,982.67,26.92,287.85
-0.017,-0.011,1.001,0.002,-0.002,-0.002,-0.394,0.147,-0.568,982.67,26.92,287.89
-0.016,-0.010,1.001,0.001,-0.002,-0.001,-0.398,0.143,-0.573,982.58,26.92,288.66
-0.017,-0.011,1.001,0.002,-0.002,-0.002,-0.400,0.146,-0.575,982.64,26.92,288.16
-0.016,-0.011,1.000,0.002,-0.002,-0.002,-0.398,0.148,-0.565,982.64,26.93,288.16
-0.017,-0.011,1.001,0.001,-0.002,-0.002,-0.398,0.148,-0.565,982.63,26.93,288.17
-0.016,-0.010,1.001,0.001,-0.002,-0.002,-0.401,0.151,-0.568,982.58,26.92,288.60
-0.017,-0.010,1.001,0.002,-0.002,-0.001,-0.400,0.147,-0.573,982.66,26.93,287.93
-0.016,-0.010,1.002,0.002,-0.002,-0.002,-0.401,0.146,-0.572,982.60,26.92,288.47
-0.017,-0.010,1.001,0.002,-0.002,-0.002,-0.397,0.148,-0.565,982.61,26.92,288.34
-0.016,-0.010,1.001,0.002,-0.002,-0.002,-0.399,0.143,-0.570,982.66,26.92,287.98
-0.017,-0.011,1.001,0.002,-0.002,-0.002,-0.403,0.141,-0.570,982.60,26.92,288.43
-0.017,-0.010,1.001,0.002,-0.002,-0.002,-0.403,0.141,-0.570,982.66,26.92,287.97
-0.016,-0.010,1.000,0.002,-0.002,-0.002,-0.401,0.139,-0.567,982.59,26.93,288.57
-0.016,-0.011,1.002,0.002,-0.002,-0.002,-0.397,0.145,-0.567,982.64,26.93,288.11
-0.015,-0.011,1.002,0.002,-0.002,-0.002,-0.399,0.143,-0.566,982.63,26.92,288.25
-0.016,-0.012,1.002,0.002,-0.002,-0.001,-0.396,0.147,-0.571,982.63,26.92,288.21
-0.017,-0.012,1.002,0.002,-0.002,-0.002,-0.397,0.144,-0.577,982.62,26.93,288.26
-0.016,-0.012,1.001,0.001,-0.002,-0.002,-0.403,0.147,-0.578,982.71,26.92,287.57
-0.016,-0.010,1.002,0.002,-0.002,-0.002,-0.403,0.147,-0.578,982.60,26.92,288.49
-0.017,-0.011,1.001,0.002,-0.002,-0.002,-0.398,0.146,-0.575,982.63,26.92,288.18
-0.017,-0.011,1.002,0.002,-0.002,-0.002,-0.399,0.145,-0.570,982.58,26.92,288.67
-0.017,-0.011,1.002,0.002,-0.002,-0.002,-0.402,0.144,-0.571,982.60,26.93,288.43
-0.017,-0.012,1.001,0.002,-0.002,-0.002,-0.399,0.149,-0.567,982.66,26.93,287.95
-0.017,-0.010,1.001,0.002,-0.002,-0.002,-0.400,0.144,-0.574,982.59,26.93,288.54
-0.015,-0.011,1.001,0.001,-0.002,-0.002,-0.400,0.148,-0.566,982.64,26.92,288.14
-0.016,-0.010,1.002,0.002,-0.002,-0.002,-0.400,0.146,-0.568,982.60,26.93,288.49
-0.017,-0.010,1.002,0.002,-0.003,-0.002,-0.398,0.146,-0.568,982.69,26.92,287.70
-0.018,-0.010,1.002,0.002,-0.002,-0.002,-0.399,0.147,-0.566,982.63,26.93,288.23
-0.016,-0.010,1.002,0.002,-0.002,-0.002,-0.403,0.147,-0.576,982.71,26.93,287.48
-0.017,-0.011,1.000,0.002,-0.002,-0.002,-0.400,0.149,-0.574,982.64,26.92,288.11
-0.018,-0.012,1.002,0.002,-0.002,-0.002,-0.407,0.148,-0.569,982.64,26.92,288.12
-0.016,-0.011,1.001,0.002,-0.002,-0.002,-0.402,0.146,-0.569,982.64,26.92,288.10
-0.017,-0.011,1.002,0.002,-0.002,-0.002,-0.399,0.149,-0.563,982.68,26.93,287.75
-0.018,-0.010,1.000,0.002,-0.002,-0.002,-0.399,0.149,-0.563,982.68,26.92,287.80
-0.017,-0.010,1.001,0.002,-0.002,-0.001,-0.399,0.144,-0.570,982.69,26.93,287.72
-0.017,-0.010,1.001,0.002,-0.002,-0.001,-0.405,0.144,-0.572,982.63,26.92,288.18
-0.018,-0.011,1.001,0.002,-0.002,-0.001,-0.403,0.146,-0.566,982.66,26.93,287.92
-0.016,-0.010,1.002,0.001,-0.002,-0.002,-0.405,0.147,-0.569,982.67,26.92,287.88
-0.018,-0.011,1.001,0.001,-0.002,-0.002,-0.405,0.143,-0.568,982.67,26.93,287.88
-0.016,-0.010,1.001,0.001,-0.002,-0.002,-0.393,0.144,-0.570,982.63,26.93,288.18
-0.017,-0.010,1.001,0.001,-0.002,-0.002,-0.393,0.144,-0.570,982.63,26.93,288.21
-0.017,-0.010,1.002,0.002,-0.002,-0.001,-0.399,0.144,-0.571,982.74,26.92,287.25
-0.017,-0.011,1.001,0.002,-0.002,-0.001,-0.397,0.143,-0.573,982.69,26.93,287.68
-0.017,-0.012,1.002,0.002,-0.002,-0.002,-0.397,0.147,-0.573,982.63,26.92,288.20
-0.017,-0.012,1.002,0.002,-0.002,-0.002,-0.399,0.142,-0.577,982.65,26.93,288.04
-0.017,-0.011,1.001,0.001,-0.002,-0.002,-0.401,0.143,-0.571,982.60,26.92,288.42
-0.017,-0.010,1.000,0.001,-0.002,-0.002,-0.403,0.145,-0.569,982.64,26.92,288.11
-0.017,-0.010,1.002,0.001,-0.002,-0.002,-0.403,0.145,-0.569,982.63,26.92,288.19
-0.016,-0.011,1.002,0.001,-0.002,-0.002,-0.401,0.144,-0.568,982.59,26.93,288.56
-0.017,-0.011,1.001,0.002,-0.002,-0.002,-0.401,0.144,-0.563,982.65,26.92,288.07
-0.017,-0.011,1.001,0.002,-0.002,-0.002,-0.402,0.146,-0.572,982.60,26.93,288.43
-0.016,-0.012,1.001,0.002,-0.002,-0.002,-0.399,0.144,-0.564,982.63,26.92,288.18
-0.015,-0.011,1.000,0.002,-0.002,-0.002,-0.401,0.146,-0.568,982.64,26.93,288.15
-0.016,-0.011,1.001,0.001,-0.002,-0.002,-0.399,0.145,-0.568,982.63,26.93,288.24
-0.015,-0.011,1.001,0.002,-0.002,-0.002,-0.399,0.145,-0.568,982.56,26.93,288.83
-0.017,-0.010,1.000,0.002,-0.002,-0.002,-0.400,0.144,-0.569,982.72,26.93,287.44
-0.016,-0.011,1.001,0.002,-0.002,-0.002,-0.401,0.144,-0.573,982.72,26.93,287.43
-0.018,-0.011,1.000,0.002,-0.002,-0.002,-0.399,0.148,-0.568,982.67,26.92,287.85
-0.016,-0.010,1.001,0.002,-0.002,-0.002,-0.397,0.147,-0.572,982.64,26.92,288.14
-0.017,-0.012,1.001,0.001,-0.002,-0.002,-0.400,0.149,-0.577,982.64,26.92,288.16
-0.018,-0.011,1.001,0.001,-0.002,-0.002,-0.402,0.146,-0.574,982.62,26.93,288.30
-0.016,-0.011,1.000,0.002,-0.002,-0.002,-0.402,0.146,-0.574,982.61,26.92,288.40
-0.016,-0.010,1.001,0.002,-0.002,-0.002,-0.402,0.149,-0.572,982.61,26.92,288.39
-0.017,-0.011,1.000,0.002,-0.002,-0.002,-0.401,0.143,-0.576,982.67,26.92,287.87
-0.017,-0.011,1.002,0.002,-0.003,-0.002,-0.398,0.148,-0.575,982.64,26.92,288.14
-0.017,-0.011,1.001,0.002,-0.002,-0.002,-0.401,0.152,-0.569,982.65,26.92,288.07
-0.016,-0.011,1.001,0.002,-0.002,-0.002,-0.397,0.149,-0.575,982.65,26.93,288.06
-0.016,-0.011,1.001,0.002,-0.002,-0.002,-0.401,0.150,-0.573,982.64,26.93,288.13
-0.017,-0.012,1.001,0.002,-0.002,-0.002,-0.401,0.150,-0.573,982.63,26.92,288.19
-0.017,-0.013,1.001,0.001,-0.002,-0.002,-0.401,0.153,-0.572,982.63,26.92,288.22
-0.016,-0.011,1.001,0.001,-0.002,-0.002,-0.398,0.152,-0.569,982.71,26.92,287.57
-0.016,-0.011,1.001,0.002,-0.002,-0.002,-0.400,0.152,-0.571,982.57,26.92,288.68
-0.017,-0.010,1.001,0.002,-0.002,-0.002,-0.400,0.148,-0.571,982.58,26.93,288.61
-0.017,-0.011,1.001,0.002,-0.002,-0.002,-0.398,0.146,-0.573,982.62,26.92,288.27
-0.016,-0.011,1.001,0.002,-0.002,-0.002,-0.402,0.147,-0.571,982.66,26.93,287.96
-0.016,-0.011,1.001,0.002,-0.002,-0.002,-0.402,0.147,-0.571,982.63,26.93,288.23
-0.018,-0.011,1.001,0.002,-0.002,-0.002,-0.399,0.146,-0.576,982.63,26.92,288.23
-0.017,-0.011,1.001,0.002,-0.003,-0.002,-0.406,0.148,-0.568,982.69,26.92,287.71
-0.017,-0.011,1.001,0.002,-0.002,-0.002,-0.405,0.143,-0.569,982.62,26.93,288.31
-0.017,-0.011,1.002,0.002,-0.002,-0.002,-0.406,0.145,-0.571,982.66,26.92,287.97
-0.018,-0.011,1.001,0.001,-0.002,-0.002,-0.406,0.147,-0.568,982.64,26.93,288.12
-0.017,-0.010,1.002,0.002,-0.002,-0.002,-0.403,0.143,-0.565,982.66,26.92,287.95
-0.016,-0.011,1.000,0.002,-0.002,-0.002,-0.403,0.146,-0.569,982.67,26.92,287.83
-0.017,-0.010,1.001,0.002,-0.002,-0.002,-0.408,0.146,-0.569,982.66,26.92,287.93
-0.017,-0.011,1.001,0.001,-0.002,-0.001,-0.400,0.145,-0.573,982.63,26.93,288.20
-0.016,-0.010,1.002,0.002,-0.002,-0.002,-0.403,0.142,-0.575,982.64,26.93,288.14
-0.016,-0.011,1.003,0.002,-0.002,-0.002,-0.402,0.146,-0.571,982.64,26.92,288.15
-0.016,-0.011,1.001,0.002,-0.002,-0.002,-0.399,0.144,-0.578,982.68,26.93,287.82
-0.016,-0.011,1.001,0.002,-0.003,-0.002,-0.400,0.145,-0.574,982.69,26.93,287.69
-0.017,-0.011,1.001,0.002,-0.002,-0.002,-0.401,0.147,-0.575,982.67,26.93,287.86
-0.016,-0.011,1.001,0.002,-0.002,-0.002,-0.401,0.147,-0.575,982.64,26.93,288.14
-0.016,-0.011,1.001,0.001,-0.002,-0.002,-0.405,0.147,-0.568,982.66,26.92,287.96
-0.017,-0.010,1.001,0.001,-0.002,-0.002,-0.401,0.146,-0.571,982.66,26.93,287.92
-0.016,-0.010,1.001,0.002,-0.002,-0.002,-0.398,0.145,-0.572,982.61,26.92,288.37
-0.017,-0.010,1.001,0.002,-0.003,-0.002,-0.401,0.144,-0.576,982.59,26.92,288.53
-0.017,-0.013,1.001,0.002,-0.003,-0.002,-0.404,0.146,-0.572,982.75,26.93,287.15
-0.017,-0.012,1.002,0.002,-0.002,-0.002,-0.404,0.144,-0.573,982.66,26.93,287.97
-0.016,-0.012,1.003,0.002,-0.002,-0.002,-0.404,0.144,-0.573,982.66,26.93,287.98
-0.016,-0.011,1.002,0.002,-0.002,-0.002,-0.403,0.147,-0.579,982.64,26.92,288.08
-0.017,-0.010,1.001,0.001,-0.002,-0.002,-0.403,0.146,-0.574,982.69,26.93,287.70
-0.017,-0.011,1.001,0.002,-0.002,-0.002,-0.400,0.147,-0.575,982.66,26.92,287.95
-0.017,-0.011,1.001,0.002,-0.002,-0.002,-0.402,0.145,-0.573,982.60,26.93,288.46
-0.018,-0.011,1.001,0.001,-0.002,-0.001,-0.402,0.149,-0.576,982.67,26.92,287.83
-0.015,-0.012,1.002,0.002,-0.002,-0.002,-0.405,0.149,-0.576,982.63,26.93,288.18
-0.017,-0.010,1.001,0.002,-0.002,-0.002,-0.405,0.149,-0.576,982.57,26.93,288.70
-0.016,-0.011,1.001,0.002,-0.002,-0.002,-0.398,0.148,-0.571,982.65,26.93,288.01
-0.017,-0.011,1.002,0.001,-0.002,-0.002,-0.403,0.152,-0.572,982.68,26.92,287.76
-0.016,-0.011,1.001,0.002,-0.003,-0.002,-0.404,0.139,-0.568,982.69,26.93,287.73
-0.018,-0.010,1.000,0.002,-0.002,-0.002,-0.402,0.142,-0.574,982.66,26.93,287.96
-0.016,-0.011,1.000,0.002,-0.003,-0.002,-0.402,0.143,-0.570,982.65,26.93,288.03
-0.016,-0.011,1.000,0.002,-0.003,-0.002,-0.401,0.145,-0.578,982.65,26.92,288.07
-0.017,-0.011,1.002,0.002,-0.003,-0.002,-0.401,0.145,-0.578,982.61,26.93,288.34
-0.017,-0.010,1.001,0.001,-0.002,-0.002,-0.404,0.143,-0.577,982.64,26.93,288.11
-0.017,-0.011,1.001,0.002,-0.002,-0.002,-0.403,0.145,-0.572,982.67,26.93,287.90
-0.016,-0.011,1.002,0.002,-0.002,-0.002,-0.404,0.148,-0.577,982.63,26.92,288.19
-0.017,-0.010,1.000,0.002,-0.002,-0.002,-0.398,0.138,-0.577,982.64,26.93,288.12
-0.017,-0.010,1.001,0.002,-0.002,-0.002,-0.400,0.145,-0.573,982.62,26.93,288.30
-0.017,-0.010,1.001,0.002,-0.002,-0.002,-0.400,0.145,-0.572,982.64,26.93,288.11
-0.016,-0.011,1.001,0.002,-0.002,-0.002,-0.400,0.145,-0.572,982.69,26.93,287.70
-0.017,-0.011,1.000,0.002,-0.002,-0.002,-0.402,0.146,-0.568,982.59,26.92,288.54
-0.017,-0.011,1.000,0.002,-0.002,-0.002,-0.402,0.145,-0.568,982.70,26.93,287.65
-0.018,-0.012,1.000,0.001,-0.002,-0.002,-0.403,0.146,-0.578,982.56,26.92,288.79
-0.016,-0.012,1.002,0.002,-0.002,-0.002,-0.400,0.146,-0.573,982.65,26.92,288.06
-0.015,-0.010,1.001,0.002,-0.002,-0.002,-0.399,0.144,-0.573,982.59,26.93,288.56
-0.017,-0.011,1.001,0.002,-0.002,-0.002,-0.401,0.149,-0.576,982.69,26.93,287.65
-0.017,-0.011,1.000,0.002,-0.002,-0.002,-0.401,0.149,-0.576,982.63,26.93,288.23
-0.018,-0.011,1.001,0.002,-0.002,-0.002,-0.402,0.150,-0.579,982.66,26.93,287.92
-0.017,-0.011,1.001,0.002,-0.002,-0.001,-0.403,0.145,-0.578,982.63,26.92,288.19
-0.017,-0.010,1.000,0.002,-0.002,-0.002,-0.404,0.148,-0.580,982.66,26.93,287.97
-0.016,-0.010,1.001,0.001,-0.002,-0.002,-0.404,0.144,-0.575,982.66,26.92,287.97
-0.017,-0.010,1.001,0.001,-0.002,-0.002,-0.403,0.148,-0.579,982.64,26.92,288.11
-0.018,-0.012,1.000,0.002,-0.002,-0.002,-0.405,0.148,-0.573,982.60,26.92,288.42
-0.018,-0.010,1.001,0.002,-0.002,-0.001,-0.405,0.148,-0.573,982.62,26.93,288.31
-0.017,-0.011,1.001,0.002,-0.002,-0.002,-0.400,0.148,-0.579,982.68,26.92,287.82
-0.017,-0.011,1.001,0.002,-0.002,-0.002,-0.405,0.139,-0.573,982.64,26.93,288.13
-0.017,-0.011,1.001,0.002,-0.002,-0.002,-0.407,0.145,-0.581,982.64,26.92,288.12
-0.018,-0.011,1.001,0.002,-0.002,-0.002,-0.405,0.147,-0.573,982.67,26.93,287.84
-0.018,-0.011,1.001,0.002,-0.002,-0.002,-0.408,0.144,-0.572,982.63,26.92,288.18
-0.017,-0.010,1.002,0.002,-0.002,-0.002,-0.410,0.148,-0.582,982.65,26.92,288.02
-0.018,-0.011,1.002,0.002,-0.002,-0.002,-0.410,0.145,-0.575,982.67,26.92,287.86
-0.018,-0.011,1.000,0.001,-0.003,-0.002,-0.401,0.145,-0.575,982.60,26.93,288.45
-0.017,-0.011,1.001,0.002,-0.002,-0.002,-0.406,0.150,-0.578,982.61,26.92,288.37
-0.017,-0.011,1.001,0.002,-0.002,-0.002,-0.404,0.143,-0.573,982.64,26.93,288.15
-0.018,-0.012,1.001,0.002,-0.002,-0.002,-0.406,0.150,-0.572,982.57,26.92,288.73
-0.017,-0.011,1.001,0.001,-0.002,-0.002,-0.405,0.146,-0.576,982.67,26.92,287.86
-0.016,-0.011,1.001,0.001,-0.002,-0.002,-0.404,0.147,-0.575,982.64,26.93,288.09
-0.016,-0.011,1.000,0.002,-0.002,-0.002,-0.404,0.146,-0.572,982.63,26.92,288.21
-0.017,-0.011,1.001,0.002,-0.002,-0.002,-0.404,0.146,-0.572,982.67,26.93,287.84
-0.017,-0.012,1.001,0.002,-0.002,-0.002,-0.404,0.145,-0.570,982.68,26.92,287.75
-0.016,-0.010,1.001,0.002,-0.002,-0.002,-0.408,0.142,-0.572,982.63,26.93,288.21
-0.016,-0.011,1.002,0.001,-0.002,-0.002,-0.406,0.142,-0.569,982.63,26.92,288.18
-0.016,-0.011,1.000,0.001,-0.002,-0.002,-0.402,0.146,-0.573,982.68,26.92,287.80
-0.017,-0.011,1.001,0.002,-0.002,-0.002,-0.405,0.146,-0.572,982.66,26.92,287.99
-0.015,-0.011,1.002,0.002,-0.002,-0.002,-0.404,0.148,-0.575,982.60,26.93,288.43
-0.017,-0.010,1.001,0.001,-0.002,-0.002,-0.404,0.148,-0.575,982.60,26.93,288.45
-0.016,-0.011,1.001,0.002,-0.002,-0.002,-0.404,0.143,-0.570,982.63,26.92,288.22
-0.016,-0.010,1.001,0.002,-0.002,-0.002,-0.402,0.143,-0.574,982.62,26.92,288.29
-0.016,-0.012,1.000,0.001,-0.002,-0.001,-0.401,0.143,-0.572,982.63,26.92,288.23
-0.018,-0.011,1.000,0.002,-0.002,-0.002,-0.405,0.145,-0.572,982.66,26.93,287.98
-0.018,-0.011,1.002,0.002,-0.002,-0.002,-0.401,0.145,-0.573,982.61,26.93,288.37
-0.016,-0.011,1.001,0.002,-0.002,-0.002,-0.404,0.143,-0.573,982.64,26.93,288.14
-0.017,-0.011,1.001,0.002,-0.002,-0.002,-0.404,0.143,-0.573,982.71,26.93,287.51
-0.016,-0.010,1.002,0.002,-0.003,-0.001,-0.405,0.143,-0.573,982.64,26.92,288.16
-0.017,-0.010,1.000,0.002,-0.002,-0.002,-0.405,0.141,-0.575,982.61,26.93,288.41
-0.018,-0.012,1.001,0.002,-0.002,-0.002,-0.405,0.146,-0.575,982.57,26.93,288.73
-0.017,-0.010,1.000,0.002,-0.002,-0.002,-0.403,0.144,-0.578,982.54,26.93,289.00
-0.016,-0.011,1.001,0.002,-0.002,-0.002,-0.403,0.140,-0.572,982.67,26.93,287.83
-0.016,-0.011,1.002,0.002,-0.002,-0.002,-0.402,0.143,-0.572,982.55,26.92,288.88
-0.017,-0.011,1.001,0.001,-0.002,-0.002,-0.402,0.143,-0.572,982.61,26.93,288.38
-0.017,-0.010,1.001,0.001,-0.002,-0.002,-0.404,0.144,-0.571,982.74,26.92,287.26
-0.017,-0.011,1.002,0.002,-0.002,-0.002,-0.407,0.146,-0.572,982.57,26.93,288.73
-0.016,-0.011,1.000,0.001,-0.002,-0.002,-0.403,0.145,-0.568,982.60,26.93,288.48
-0.017,-0.012,1.002,0.001,-0.002,-0.002,-0.403,0.148,-0.569,982.61,26.92,288.36
-0.015,-0.011,1.002,0.002,-0.002,-0.002,-0.407,0.146,-0.568,982.61,26.92,288.38
-0.016,-0.010,1.001,0.001,-0.002,-0.002,-0.404,0.147,-0.568,982.65,26.93,288.02
-0.017,-0.011,1.001,0.002,-0.002,-0.002,-0.404,0.147,-0.568,982.66,26.92,287.93
-0.017,-0.010,1.002,0.002,-0.002,-0.002,-0.400,0.148,-0.575,982.62,26.92,288.27
-0.015,-0.010,1.001,0.002,-0.002,-0.002,-0.401,0.144,-0.571,982.61,26.93,288.38
-0.017,-0.011,1.000,0.002,-0.002,-0.002,-0.402,0.147,-0.570,982.68,26.93,287.74
-0.017,-0.011,1.002,0.002,-0.002,-0.002,-0.403,0.144,-0.570,982.64,26.93,288.16
-0.017,-0.011,1.001,0.002,-0.002,-0.002,-0.406,0.145,-0.570,982.74,26.93,287.30
-0.016,-0.010,1.002,0.002,-0.003,-0.002,-0.405,0.149,-0.571,982.62,26.92,288.28
-0.017,-0.011,1.002,0.002,-0.002,-0.001,-0.405,0.149,-0.571,982.68,26.93,287.82
-0.018,-0.011,1.001,0.002,-0.002,-0.002,-0.401,0.143,-0.566,982.61,26.92,288.39
-0.017,-0.010,1.001,0.001,-0.002,-0.001,-0.406,0.144,-0.573,982.68,26.93,287.75
-0.017,-0.011,1.001,0.001,-0.002,-0.002,-0.404,0.148,-0.577,982.66,26.93,287.93
-0.016,-0.011,1.001,0.002,-0.002,-0.002,-0.400,0.146,-0.565,982.54,26.92,288.98
-0.017,-0.011,1.001,0.002,-0.002,-0.002,-0.406,0.146,-0.572,982.66,26.93,287.95
-0.016,-0.010,1.001,0.002,-0.002,-0.002,-0.404,0.141,-0.572,982.62,26.93,288.27
-0.017,-0.010,1.001,0.002,-0.002,-0.002,-0.404,0.141,-0.572,982.63,26.92,288.21
-0.016,-0.010,1.001,0.002,-0.002,-0.002,-0.401,0.141,-0.573,982.66,26.93,287.97
-0.017,-0.010,1.001,0.002,-0.002,-0.002,-0.405,0.142,-0.572,982.65,26.92,288.03
-0.017,-0.011,1.002,0.002,-0.002,-0.002,-0.402,0.143,-0.569,982.64,26.92,288.11
-0.016,-0.010,1.000,0.002,-0.002,-0.002,-0.402,0.143,-0.573,982.59,26.93,288.57
-0.017,-0.011,1.000,0.002,-0.002,-0.002,-0.402,0.142,-0.571,982.61,26.93,288.35
-0.017,-0.011,1.000,0.002,-0.002,-0.002,-0.404,0.145,-0.576,982.64,26.92,288.13
-0.017,-0.010,1.003,0.002,-0.002,-0.002,-0.404,0.145,-0.572,982.63,26.93,288.17
-0.016,-0.011,1.001,0.002,-0.002,-0.001,-0.405,0.145,-0.572,982.64,26.93,288.10
-0.017,-0.011,1.001,0.002,-0.002,-0.002,-0.405,0.138,-0.580,982.59,26.93,288.53
-0.018,-0.010,1.000,0.002,-0.002,-0.002,-0.403,0.140,-0.572,982.69,26.93,287.70
-0.016,-0.011,1.001,0.002,-0.002,-0.002,-0.410,0.140,-0.575,982.63,26.93,288.17
-0.017,-0.009,1.002,0.001,-0.002,-0.002,-0.402,0.140,-0.574,982.68,26.93,287.76
-0.017,-0.011,1.001,0.001,-0.002,-0.002,-0.404,0.141,-0.571,982.62,26.93,288.31
-0.016,-0.011,1.001,0.002,-0.002,-0.002,-0.404,0.145,-0.575,982.72,26.92,287.46
-0.016,-0.009,1.001,0.001,-0.002,-0.002,-0.404,0.145,-0.575,982.64,26.93,288.11
-0.016,-0.010,1.002,0.002,-0.002,-0.001,-0.401,0.138,-0.569,982.57,26.93,288.72
-0.018,-0.011,1.001,0.002,-0.002,-0.002,-0.403,0.140,-0.570,982.59,26.92,288.55
-0.016,-0.010,1.002,0.002,-0.002,-0.002,-0.401,0.138,-0.574,982.66,26.92,287.91
-0.017,-0.010,1.000,0.002,-0.002,-0.002,-0.406,0.140,-0.573,982.65,26.93,288.05
-0.016,-0.010,1.001,0.001,-0.002,-0.002,-0.408,0.142,-0.573,982.62,26.93,288.29
-0.016,-0.010,1.000,0.001,-0.002,-0.002,-0.403,0.140,-0.575,982.68,26.92,287.79
-0.016,-0.011,1.001,0.002,-0.002,-0.001,-0.403,0.140,-0.575,982.63,26.93,288.18
-0.017,-0.011,1.000,0.002,-0.002,-0.002,-0.404,0.141,-0.575,982.68,26.93,287.77
-0.018,-0.012,1.002,0.002,-0.002,-0.002,-0.408,0.140,-0.573,982.68,26.92,287.82
-0.018,-0.012,1.001,0.002,-0.002,-0.002,-0.404,0.140,-0.569,982.61,26.93,288.33
-0.016,-0.010,1.001,0.002,-0.002,-0.002,-0.404,0.144,-0.564,982.60,26.93,288.42
-0.017,-0.011,1.000,0.002,-0.003,-0.002,-0.404,0.142,-0.570,982.70,26.93,287.62
-0.018,-0.011,1.002,0.002,-0.003,-0.002,-0.406,0.144,-0.571,982.67,26.92,287.90
-0.016,-0.012,1.001,0.002,-0.002,-0.002,-0.406,0.144,-0.571,982.69,26.93,287.67
-0.017,-0.012,1.002,0.002,-0.002,-0.002,-0.403,0.142,-0.568,982.62,26.93,288.31
-0.017,-0.011,1.001,0.002,-0.002,-0.002,-0.405,0.144,-0.572,982.59,26.92,288.58
-0.017,-0.011,1.000,0.002,-0.002,-0.002,-0.411,0.145,-0.572,982.59,26.93,288.55
-0.017,-0.011,1.002,0.002,-0.002,-0.002,-0.403,0.145,-0.569,982.65,26.92,288.07
-0.018,-0.011,1.000,0.002,-0.002,-0.002,-0.404,0.144,-0.568,982.66,26.92,287.96
-0.016,-0.011,1.001,0.002,-0.003,-0.002,-0.406,0.144,-0.571,982.66,26.92,287.97
-0.017,-0.010,1.000,0.002,-0.002,-0.002,-0.406,0.144,-0.571,982.64,26.93,288.11
-0.016,-0.010,1.001,0.002,-0.002,-0.002,-0.408,0.143,-0.568,982.64,26.92,288.15
-0.016,-0.011,1.000,0.002,-0.002,-0.002,-0.410,0.145,-0.564,982.64,26.93,288.10
-0.016,-0.012,1.002,0.002,-0.002,-0.002,-0.408,0.147,-0.566,982.69,26.92,287.69
-0.018,-0.012,1.000,0.002,-0.002,-0.002,-0.406,0.147,-0.565,982.65,26.92,288.02
-0.017,-0.011,1.001,0.002,-0.002,-0.002,-0.403,0.146,-0.563,982.64,26.92,288.09
-0.018,-0.011,1.001,0.002,-0.002,-0.002,-0.405,0.145,-0.564,982.66,26.93,287.98
-0.017,-0.011,1.001,0.002,-0.002,-0.001,-0.405,0.145,-0.564,982.64,26.92,288.16
-0.016,-0.010,1.001,0.002,-0.002,-0.002,-0.404,0.147,-0.566,982.60,26.92,288.50
-0.016,-0.011,1.001,0.002,-0.002,-0.002,-0.400,0.148,-0.569,982.68,26.93,287.78
-0.016,-0.011,1.001,0.002,-0.002,-0.002,-0.404,0.148,-0.565,982.73,26.93,287.39
-0.018,-0.010,1.000,0.002,-0.002,-0.002,-0.403,0.148,-0.565,982.58,26.92,288.61
-0.016,-0.011,1.001,0.002,-0.002,-0.002,-0.400,0.148,-0.564,982.61,26.92,288.35
-0.016,-0.010,1.001,0.002,-0.002,-0.002,-0.406,0.145,-0.566,982.68,26.93,287.76
-0.016,-0.011,1.002,0.001,-0.002,-0.002,-0.406,0.145,-0.566,982.59,26.93,288.53
-0.016,-0.010,1.001,0.002,-0.002,-0.002,-0.403,0.145,-0.566,982.66,26.93,287.94
-0.016,-0.011,1.002,0.002,-0.002,-0.002,-0.403,0.146,-0.571,982.61,26.93,288.37
-0.018,-0.011,1.000,0.002,-0.002,-0.002,-0.404,0.146,-0.572,982.62,26.93,288.27
-0.016,-0.012,1.000,0.002,-0.002,-0.002,-0.405,0.146,-0.572,982.58,26.93,288.60
-0.016,-0.011,1.000,0.002,-0.002,-0.002,-0.400,0.149,-0.569,982.72,26.93,287.41
-0.017,-0.011,1.001,0.002,-0.002,-0.002,-0.404,0.145,-0.570,982.66,26.92,287.96
-0.017,-0.011,1.001,0.001,-0.002,-0.002,-0.404,0.145,-0.570,982.61,26.93,288.37
-0.016,-0.011,1.002,0.001,-0.002,-0.002,-0.404,0.142,-0.566,982.69,26.93,287.70
-0.016,-0.011,1.001,0.002,-0.002,-0.002,-0.403,0.148,-0.568,982.64,26.93,288.13
-0.016,-0.012,1.001,0.002,-0.002,-0.002,-0.402,0.141,-0.574,982.65,26.93,287.99
-0.017,-0.011,1.001,0.002,-0.002,-0.002,-0.401,0.144,-0.573,982.68,26.93,287.74
-0.016,-0.011,1.001,0.002,-0.002,-0.002,-0.400,0.144,-0.572,982.56,26.93,288.84
-0.017,-0.011,1.001,0.002,-0.002,-0.002,-0.399,0.148,-0.573,982.61,26.93,288.36
-0.017,-0.010,1.001,0.002,-0.003,-0.002,-0.399,0.148,-0.573,982.65,26.92,288.02
-0.016,-0.011,1.002,0.002,-0.002,-0.002,-0.400,0.147,-0.572,982.64,26.92,288.16
-0.017,-0.011,1.000,0.002,-0.002,-0.001,-0.400,0.148,-0.577,982.56,26.93,288.77
-0.017,-0.011,1.002,0.002,-0.002,-0.001,-0.400,0.146,-0.579,982.63,26.92,288.23
-0.017,-0.010,1.001,0.001,-0.002,-0.002,-0.399,0.143,-0.572,982.68,26.92,287.76
-0.017,-0.012,1.001,0.001,-0.002,-0.002,-0.402,0.145,-0.570,982.65,26.93,288.01
-0.017,-0.011,1.001,0.001,-0.002,-0.002,-0.400,0.145,-0.574,982.59,26.93,288.54
-0.017,-0.010,1.003,0.001,-0.002,-0.002,-0.400,0.151,-0.575,982.59,26.92,288.53
-0.016,-0.010,1.002,0.002,-0.002,-0.002,-0.407,0.151,-0.575,982.66,26.93,287.93
-0.016,-0.011,1.001,0.001,-0.002,-0.002,-0.401,0.146,-0.574,982.65,26.93,288.06
-0.018,-0.010,1.001,0.002,-0.002,-0.002,-0.402,0.148,-0.574,982.66,26.92,287.91
-0.018,-0.011,1.001,0.002,-0.002,-0.002,-0.399,0.145,-0.577,982.64,26.93,288.09
-0.017,-0.011,1.000,0.002,-0.002,-0.002,-0.401,0.145,-0.576,982.64,26.93,288.09
-0.016,-0.011,1.001,0.002,-0.002,-0.002,-0.402,0.149,-0.573,982.59,26.93,288.55
-0.017,-0.011,1.002,0.002,-0.002,-0.002,-0.404,0.143,-0.571,982.60,26.92,288.47
-0.018,-0.011,1.001,0.002,-0.002,-0.002,-0.404,0.143,-0.571,982.62,26.92,288.29
-0.016,-0.010,1.000,0.002,-0.002,-0.002,-0.402,0.148,-0.570,982.67,26.92,287.87
-0.017,-0.011,1.000,0.002,-0.002,-0.002,-0.400,0.150,-0.568,982.65,26.93,288.04
-0.016,-0.010,1.001,0.002,-0.002,-0.002,-0.397,0.149,-0.569,982.57,26.93,288.71
-0.016,-0.010,1.001,0.001,-0.002,-0.002,-0.400,0.147,-0.571,982.71,26.93,287.55
-0.016,-0.011,1.000,0.002,-0.002,-0.002,-0.408,0.144,-0.578,982.63,26.92,288.17
-0.017,-0.011,1.001,0.002,-0.002,-0.002,-0.402,0.146,-0.576,982.62,26.93,288.33
-0.016,-0.011,1.001,0.002,-0.002,-0.002,-0.402,0.146,-0.576,982.69,26.93,287.72
-0.017,-0.011,1.001,0.002,-0.002,-0.002,-0.403,0.148,-0.573,982.64,26.93,288.15
-0.017,-0.012,1.001,0.002,-0.002,-0.002,-0.402,0.149,-0.579,982.68,26.92,287.79
-0.018,-0.011,1.000,0.002,-0.002,-0.002,-0.398,0.147,-0.574,982.61,26.92,288.38
-0.016,-0.010,1.001,0.001,-0.002,-0.002,-0.403,0.148,-0.578,982.61,26.92,288.40
-0.017,-0.010,1.001,0.002,-0.002,-0.002,-0.407,0.144,-0.573,982.72,26.93,287.46
-0.017,-0.010,1.001,0.002,-0.002,-0.002,-0.403,0.148,-0.575,982.72,26.92,287.40
-0.017,-0.011,1.001,0.001,-0.002,-0.002,-0.403,0.148,-0.575,982.67,26.92,287.83
-0.017,-0.011,1.001,0.001,-0.002,-0.001,-0.404,0.144,-0.577,982.71,26.92,287.56
-0.016,-0.011,1.001,0.002,-0.002,-0.002,-0.403,0.147,-0.569,982.58,26.93,288.65
-0.017,-0.011,1.001,0.002,-0.002,-0.002,-0.402,0.149,-0.574,982.67,26.92,287.83
-0.015,-0.011,1.001,0.002,-0.002,-0.002,-0.403,0.145,-0.572,982.66,26.92,287.98
-0.017,-0.011,1.001,0.002,-0.002,-0.002,-0.403,0.149,-0.574,982.68,26.93,287.77
-0.017,-0.011,1.001,0.001,-0.002,-0.002,-0.403,0.148,-0.570,982.67,26.93,287.89
-0.016,-0.011,1.001,0.001,-0.002,-0.002,-0.403,0.148,-0.570,982.66,26.92,287.91
-0.016,-0.011,1.001,0.002,-0.002,-0.002,-0.402,0.149,-0.572,982.67,26.92,287.91
-0.017,-0.010,1.001,0.002,-0.002,-0.002,-0.399,0.145,-0.575,982.55,26.92,288.90
-0.015,-0.010,1.002,0.002,-0.002,-0.002,-0.405,0.149,-0.585,982.69,26.93,287.70
-0.017,-0.010,1.001,0.002,-0.002,-0.002,-0.402,0.147,-0.581,982.69,26.93,287.72
-0.015,-0.010,1.001,0.001,-0.002,-0.002,-0.401,0.146,-0.575,982.65,26.93,288.01
-0.017,-0.011,1.001,0.002,-0.002,-0.002,-0.403,0.149,-0.574,982.65,26.92,288.08
-0.015,-0.011,1.000,0.002,-0.002,-0.002,-0.403,0.149,-0.574,982.61,26.92,288.36
-0.016,-0.011,1.001,0.002,-0.002,-0.002,-0.404,0.146,-0.574,982.54,26.93,288.96
-0.017,-0.011,1.002,0.002,-0.002,-0.002,-0.402,0.150,-0.573,982.61,26.92,288.40
-0.017,-0.011,1.002,0.002,-0.002,-0.002,-0.406,0.148,-0.569,982.61,26.93,288.34
-0.017,-0.010,1.001,0.001,-0.002,-0.002,-0.402,0.148,-0.570,982.65,26.93,288.08
-0.017,-0.011,1.002,0.002,-0.002,-0.002,-0.404,0.148,-0.577,982.69,26.92,287.73
-0.017,-0.011,1.001,0.002,-0.002,-0.002,-0.405,0.151,-0.571,982.59,26.93,288.55
-0.017,-0.011,1.001,0.002,-0.002,-0.002,-0.405,0.151,-0.571,982.70,26.93,287.61
-0.017,-0.011,1.001,0.002,-0.002,-0.001,-0.406,0.148,-0.575,982.60,26.93,288.44
-0.016,-0.011,1.001,0.002,-0.002,-0.002,-0.402,0.148,-0.571,982.68,26.92,287.80
-0.016,-0.010,1.000,0.002,-0.002,-0.002,-0.400,0.147,-0.573,982.69,26.92,287.72
-0.016,-0.011,1.000,0.002,-0.002,-0.002,-0.403,0.151,-0.572,982.63,26.92,288.22
-0.017,-0.010,1.001,0.002,-0.002,-0.002,-0.402,0.154,-0.575,982.66,26.93,287.94
-0.016,-0.011,1.001,0.002,-0.002,-0.002,-0.406,0.149,-0.576,982.63,26.92,288.19
-0.017,-0.010,1.001,0.002,-0.002,-0.002,-0.406,0.149,-0.576,982.61,26.93,288.37
-0.016,-0.010,1.002,0.001,-0.002,-0.002,-0.403,0.151,-0.575,982.67,26.93,287.88
-0.017,-0.011,1.001,0.001,-0.002,-0.002,-0.403,0.149,-0.575,982.62,26.93,288.32
-0.017,-0.011,1.001,0.002,-0.002,-0.002,-0.403,0.149,-0.568,982.63,26.92,288.21
-0.017,-0.011,1.000,0.002,-0.002,-0.002,-0.402,0.149,-0.572,982.63,26.93,288.18
-0.016,-0.010,1.001,0.002,-0.002,-0.002,-0.403,0.149,-0.577,982.62,26.93,288.26
-0.017,-0.011,1.001,0.002,-0.002,-0.002,-0.404,0.149,-0.578,982.66,26.93,287.96
-0.015,-0.010,1.001,0.002,-0.002,-0.002,-0.404,0.149,-0.580,982.69,26.93,287.72
-0.017,-0.010,1.001,0.002,-0.002,-0.002,-0.406,0.149,-0.580,982.73,26.92,287.38
-0.017,-0.011,1.001,0.002,-0.002,-0.002,-0.406,0.146,-0.581,982.60,26.92,288.46
-0.017,-0.011,1.001,0.001,-0.002,-0.002,-0.406,0.150,-0.578,982.63,26.93,288.22
-0.018,-0.011,1.001,0.002,-0.002,-0.002,-0.407,0.152,-0.577,982.69,26.93,287.68
-0.016,-0.010,1.001,0.002,-0.002,-0.002,-0.407,0.150,-0.575,982.66,26.92,287.91
-0.017,-0.011,1.002,0.002,-0.002,-0.002,-0.408,0.153,-0.582,982.62,26.93,288.25
-0.018,-0.010,1.003,0.001,-0.002,-0.002,-0.407,0.146,-0.581,982.64,26.92,288.10
-0.017,-0.011,1.001,0.001,-0.002,-0.002,-0.407,0.146,-0.581,982.65,26.93,288.02
-0.017,-0.011,1.001,0.001,-0.002,-0.002,-0.405,0.150,-0.571,982.69,26.92,287.71
-0.017,-0.010,1.000,0.001,-0.002,-0.002,-0.403,0.149,-0.572,982.66,26.93,287.93
-0.017,-0.011,1.001,0.002,-0.002,-0.002,-0.401,0.151,-0.576,982.65,26.93,288.01
-0.017,-0.010,1.001,0.001,-0.002,-0.002,-0.405,0.149,-0.573,982.61,26.93,288.33
-0.017,-0.010,1.001,0.002,-0.002,-0.002,-0.401,0.150,-0.571,982.65,26.93,288.02
-0.016,-0.011,1.002,0.002,-0.002,-0.002,-0.399,0.147,-0.574,982.60,26.93,288.44
-0.017,-0.010,1.001,0.002,-0.002,-0.002,-0.399,0.147,-0.574,982.67,26.93,287.85
-0.017,-0.011,1.001,0.002,-0.002,-0.002,-0.396,0.146,-0.573,982.70,26.92,287.62
-0.017,-0.010,1.001,0.002,-0.002,-0.002,-0.397,0.152,-0.573,982.63,26.93,288.17
-0.017,-0.011,1.001,0.001,-0.002,-0.002,-0.398,0.150,-0.579,982.62,26.93,288.28
-0.016,-0.010,1.001,0.001,-0.002,-0.002,-0.401,0.147,-0.578,982.62,26.93,288.29
-0.017,-0.010,1.000,0.002,-0.002,-0.002,-0.398,0.149,-0.574,982.67,26.93,287.83
-0.018,-0.011,1.001,0.002,-0.002,-0.002,-0.397,0.149,-0.572,982.67,26.93,287.86
-0.017,-0.012,1.002,0.002,-0.002,-0.002,-0.397,0.149,-0.572,982.64,26.93,288.09
-0.017,-0.011,1.000,0.002,-0.002,-0.002,-0.400,0.149,-0.582,982.63,26.92,288.22
-0.018,-0.011,1.001,0.002,-0.002,-0.002,-0.396,0.148,-0.579,982.56,26.93,288.76
-0.017,-0.011,1.000,0.002,-0.002,-0.002,-0.399,0.150,-0.571,982.64,26.93,288.16
-0.017,-0.010,1.001,0.001,-0.002,-0.002,-0.398,0.148,-0.576,982.61,26.93,288.33
-0.017,-0.011,1.000,0.002,-0.002,-0.002,-0.398,0.146,-0.574,982.64,26.93,288.08
-0.016,-0.010,1.002,0.002,-0.002,-0.002,-0.399,0.147,-0.572,982.54,26.92,289.01
-0.016,-0.010,1.001,0.002,-0.002,-0.002,-0.399,0.147,-0.572,982.68,26.93,287.79
-0.017,-0.011,1.001,0.002,-0.002,-0.002,-0.399,0.152,-0.575,982.56,26.93,288.77
-0.017,-0.010,1.001,0.002,-0.002,-0.002,-0.400,0.153,-0.570,982.60,26.93,288.47
-0.017,-0.009,1.000,0.001,-0.002,-0.002,-0.398,0.150,-0.570,982.69,26.92,287.73
-0.016,-0.012,1.001,0.002,-0.002,-0.002,-0.398,0.148,-0.576,982.59,26.93,288.56
-0.017,-0.010,1.001,0.002,-0.002,-0.002,-0.402,0.147,-0.572,982.63,26.93,288.17
-0.016,-0.010,1.002,0.002,-0.002,-0.002,-0.397,0.141,-0.576,982.70,26.93,287.63
-0.017,-0.011,1.001,0.001,-0.002,-0.002,-0.397,0.141,-0.576,982.64,26.93,288.14
-0.016,-0.011,1.001,0.002,-0.002,-0.002,-0.398,0.141,-0.576,982.71,26.93,287.52
-0.017,-0.011,1.001,0.002,-0.002,-0.002,-0.399,0.146,-0.576,982.64,26.92,288.11
-0.017,-0.011,1.001,0.002,-0.003,-0.002,-0.397,0.150,-0.576,982.60,26.93,288.48
-0.017,-0.010,1.000,0.002,-0.002,-0.002,-0.397,0.146,-0.573,982.76,26.93,287.12
-0.016,-0.011,1.002,0.002,-0.002,-0.002,-0.399,0.146,-0.575,982.68,26.92,287.82
-0.017,-0.011,1.000,0.002,-0.002,-0.002,-0.397,0.147,-0.570,982.63,26.93,288.17
-0.017,-0.011,1.001,0.002,-0.002,-0.002,-0.397,0.147,-0.570,982.64,26.93,288.16
-0.017,-0.012,1.000,0.002,-0.002,-0.002,-0.397,0.149,-0.568,982.70,26.93,287.62
-0.017,-0.012,1.002,0.002,-0.002,-0.002,-0.398,0.148,-0.573,982.64,26.92,288.13
-0.015,-0.010,1.001,0.002,-0.002,-0.002,-0.397,0.146,-0.577,982.63,26.93,288.17
-0.016,-0.011,1.001,0.002,-0.002,-0.002,-0.396,0.144,-0.577,982.59,26.93,288.55
-0.016,-0.010,1.001,0.002,-0.002,-0.002,-0.396,0.147,-0.576,982.58,26.93,288.64
-0.017,-0.011,1.001,0.002,-0.002,-0.001,-0.398,0.149,-0.579,982.69,26.93,287.67
-0.017,-0.012,1.001,0.002,-0.002,-0.002,-0.398,0.149,-0.579,982.71,26.93,287.56
-0.018,-0.011,1.000,0.001,-0.002,-0.002,-0.396,0.148,-0.578,982.69,26.93,287.69
-0.017,-0.011,1.001,0.002,-0.002,-0.002,-0.397,0.150,-0.582,982.62,26.93,288.32
-0.017,-0.011,1.001,0.002,-0.002,-0.002,-0.396,0.152,-0.583,982.61,26.93,288.41
-0.016,-0.011,1.001,0.002,-0.002,-0.002,-0.397,0.152,-0.579,982.73,26.93,287.38
-0.017,-0.010,1.001,0.002,-0.002,-0.002,-0.398,0.151,-0.579,982.70,26.92,287.62
-0.017,-0.011,1.001,0.001,-0.002,-0.002,-0.401,0.151,-0.576,982.61,26.93,288.34
-0.017,-0.011,1.001,0.002,-0.002,-0.002,-0.401,0.151,-0.585,982.66,26.93,287.97
-0.016,-0.011,1.001,0.002,-0.002,-0.002,-0.400,0.152,-0.585,982.65,26.93,288.03
-0.018,-0.010,1.001,0.002,-0.002,-0.002,-0.396,0.149,-0.577,982.59,26.93,288.53
-0.018,-0.011,1.002,0.002,-0.002,-0.002,-0.395,0.150,-0.578,982.66,26.93,287.92
-0.017,-0.011,1.001,0.001,-0.002,-0.002,-0.396,0.148,-0.582,982.65,26.93,288.05
-0.017,-0.010,1.001,0.001,-0.002,-0.002,-0.399,0.146,-0.582,982.59,26.93,288.51
-0.017,-0.011,1.001,0.002,-0.002,-0.002,-0.391,0.146,-0.577,982.70,26.92,287.62
-0.018,-0.011,1.000,0.002,-0.002,-0.002,-0.395,0.150,-0.579,982.57,26.93,288.72
-0.017,-0.011,1.001,0.001,-0.002,-0.002,-0.395,0.150,-0.579,982.65,26.93,288.04
-0.016,-0.010,1.002,0.002,-0.002,-0.002,-0.396,0.150,-0.575,982.68,26.93,287.78
-0.017,-0.010,1.001,0.002,-0.002,-0.002,-0.395,0.152,-0.583,982.68,26.93,287.78
-0.017,-0.011,1.001,0.002,-0.002,-0.002,-0.399,0.152,-0.579,982.63,26.93,288.24
-0.017,-0.011,1.002,0.002,-0.002,-0.002,-0.395,0.149,-0.577,982.65,26.93,288.02
-0.016,-0.010,1.001,0.001,-0.002,-0.002,-0.391,0.151,-0.572,982.69,26.93,287.72
-0.018,-0.011,1.002,0.002,-0.002,-0.002,-0.395,0.151,-0.577,982.66,26.93,287.95
-0.016,-0.011,1.001,0.002,-0.002,-0.002,-0.395,0.151,-0.577,982.71,26.92,287.57
-0.016,-0.011,1.001,0.002,-0.002,-0.002,-0.397,0.150,-0.576,982.61,26.93,288.37
-0.017,-0.011,1.001,0.002,-0.002,-0.002,-0.394,0.148,-0.580,982.60,26.93,288.47
-0.016,-0.011,1.002,0.002,-0.002,-0.002,-0.394,0.149,-0.584,982.60,26.93,288.44
-0.017,-0.012,1.001,0.002,-0.002,-0.002,-0.402,0.147,-0.577,982.62,26.93,288.26
-0.017,-0.012,1.002,0.002,-0.002,-0.002,-0.397,0.147,-0.577,982.62,26.93,288.32
-0.015,-0.011,1.000,0.002,-0.002,-0.001,-0.401,0.149,-0.577,982.59,26.92,288.57
-0.016,-0.011,1.001,0.002,-0.002,-0.002,-0.401,0.149,-0.577,982.65,26.92,288.03
-0.017,-0.011,1.002,0.002,-0.002,-0.002,-0.399,0.145,-0.574,982.65,26.93,288.02
-0.018,-0.011,1.001,0.002,-0.002,-0.002,-0.399,0.145,-0.570,982.65,26.93,288.03
-0.017,-0.010,1.001,0.002,-0.002,-0.002,-0.398,0.142,-0.572,982.65,26.92,288.02
-0.017,-0.012,1.002,0.002,-0.002,-0.002,-0.398,0.148,-0.580,982.61,26.93,288.35
-0.017,-0.011,1.001,0.002,-0.002,-0.002,-0.396,0.151,-0.575,982.75,26.93,287.18
