timestamp,ax,ay,az,gx,gy,gz,mx,my,mz,altitude,relative_altitude
041225_02.03.23.603,-0.01700,-0.00000,1.00300,0.10500,-0.17500,-0.01800,0.41100,0.47000,-1.27800,85.99000,0.00000
041225_02.03.23.614,-0.01600,0.00200,1.00300,0.14000,-0.19200,-0.01800,0.40600,0.47300,-1.27300,86.56000,0.57000
041225_02.03.23.626,-0.01500,0.00100,1.00300,0.08700,-0.17500,0.00000,0.40600,0.47300,-1.27300,85.56000,-1.00000
041225_02.03.23.637,-0.01500,0.00100,1.00400,0.08700,-0.17500,0.00000,0.41000,0.47500,-1.27700,86.51000,0.95000
041225_02.03.23.649,-0.01500,0.00300,1.00500,0.10500,-0.17500,0.00000,0.40800,0.46900,-1.27200,86.29000,-0.22000
041225_02.03.23.661,-0.01500,0.00200,1.00300,0.10500,-0.17500,0.00000,0.40200,0.47300,-1.27600,86.08000,-0.21000
041225_02.03.23.672,-0.01500,0.00200,1.00300,0.08700,-0.19200,0.00000,0.40600,0.47000,-1.27300,86.15000,0.07000
041225_02.03.23.683,-0.01500,0.00200,1.00200,0.07000,-0.15700,0.01800,0.40600,0.47000,-1.27300,86.26000,0.11000
041225_02.03.23.695,-0.01600,0.00100,1.00400,0.07000,-0.15700,0.01800,0.40600,0.47100,-1.27100,85.99000,-0.27000
041225_02.03.23.706,-0.01600,0.00200,1.00300,0.08700,-0.15700,0.01800,0.40000,0.47300,-1.27000,85.69000,-0.30000
041225_02.03.23.718,-0.01500,0.00100,1.00200,0.08700,-0.15700,0.01800,0.40400,0.47100,-1.26600,85.87000,0.18000
041225_02.03.23.729,-0.01600,0.00200,1.00200,0.07000,-0.15700,0.01800,0.40200,0.47100,-1.27700,85.86000,-0.01000
041225_02.03.23.741,-0.01700,0.00200,1.00500,0.10500,-0.15700,0.03500,0.40200,0.47100,-1.27700,85.96000,0.10000
041225_02.03.23.752,-0.01700,0.00300,1.00100,0.10500,-0.14000,0.03500,0.40500,0.47300,-1.27000,86.20000,0.24000
041225_02.03.23.764,-0.01600,0.00300,0.99800,0.07000,-0.12300,0.03500,0.40600,0.47200,-1.26800,85.91000,-0.29000
041225_02.03.23.775,-0.02000,0.00100,1.00200,0.08700,-0.12300,0.03500,0.40800,0.47000,-1.27600,86.77000,0.86000
041225_02.03.23.787,-0.01700,0.00300,1.00000,0.08700,-0.12300,0.01800,0.40800,0.47000,-1.27600,85.73000,-1.04000
041225_02.03.23.798,-0.01600,0.00000,1.00300,0.05300,-0.12300,0.00000,0.40300,0.47400,-1.27400,86.25000,0.52000
041225_02.03.23.809,-0.01700,0.00100,1.00000,0.07000,-0.10500,0.01800,0.40300,0.47000,-1.26800,85.59000,-0.66000
041225_02.03.23.821,-0.01700,0.00200,0.99900,0.08700,-0.12300,0.01800,0.40000,0.46900,-1.27400,86.15000,0.56000
041225_02.03.23.832,-0.01700,0.00200,0.99900,0.08700,-0.12300,0.03500,0.40600,0.47200,-1.26800,85.66000,-0.49000
041225_02.03.23.844,-0.01600,0.00200,1.00200,0.08700,-0.12300,0.01800,0.40600,0.47200,-1.26800,85.93000,0.27000
041225_02.03.23.855,-0.01500,0.00200,1.00000,0.08700,-0.10500,0.01800,0.40300,0.47300,-1.26700,85.41000,-0.52000
041225_02.03.23.866,-0.01600,0.00200,0.99900,0.10500,-0.12300,0.01800,0.40600,0.47000,-1.27000,86.17000,0.76000
041225_02.03.23.878,-0.01600,0.00100,1.00000,0.08700,-0.14000,0.00000,0.40400,0.47000,-1.26900,85.95000,-0.22000
041225_02.03.23.889,-0.01600,0.00300,1.00200,0.08700,-0.14000,0.00000,0.40100,0.47000,-1.27400,85.88000,-0.07000
041225_02.03.23.901,-0.01400,0.00200,0.99800,0.08700,-0.12300,0.01800,0.40100,0.47000,-1.27400,85.70000,-0.18000
041225_02.03.23.912,-0.01600,0.00200,1.00100,0.10500,-0.12300,0.00000,0.40600,0.46800,-1.26700,85.90000,0.20000
041225_02.03.23.923,-0.01600,0.00200,1.00200,0.07000,-0.12300,0.00000,0.40300,0.47000,-1.27800,85.24000,-0.66000
041225_02.03.23.935,-0.01500,0.00200,1.00100,0.07000,-0.14000,0.00000,0.40000,0.47100,-1.27400,86.25000,1.01000
041225_02.03.23.946,-0.01600,0.00300,1.00000,0.08700,-0.14000,0.01800,0.41000,0.47100,-1.27100,86.09000,-0.16000
041225_02.03.23.958,-0.01400,0.00100,1.00000,0.08700,-0.12300,0.01800,0.41000,0.47100,-1.27100,85.66000,-0.43000
041225_02.03.23.969,-0.01500,0.00100,1.00100,0.08700,-0.10500,0.00000,0.40700,0.46900,-1.26900,85.80000,0.14000
041225_02.03.23.980,-0.01500,0.00200,1.00100,0.10500,-0.10500,0.00000,0.40600,0.47200,-1.26900,86.27000,0.47000
041225_02.03.23.992,-0.01500,0.00200,1.00200,0.08700,-0.08700,0.01800,0.40400,0.46900,-1.27200,85.93000,-0.34000
041225_02.03.24.004,-0.01600,0.00100,1.00100,0.10500,-0.12300,0.01800,0.40400,0.46900,-1.27300,85.74000,-0.19000
041225_02.03.24.015,-0.01500,0.00100,1.00000,0.08700,-0.12300,0.01800,0.40500,0.46800,-1.27300,86.32000,0.58000
041225_02.03.24.027,-0.01800,0.00000,1.00100,0.10500,-0.12300,0.03500,0.40700,0.47200,-1.27600,86.08000,-0.24000
041225_02.03.24.038,-0.01600,0.00000,1.00100,0.08700,-0.10500,0.01800,0.40700,0.47000,-1.27100,86.12000,0.04000
041225_02.03.24.050,-0.01600,0.00100,1.00200,0.10500,-0.10500,0.01800,0.40700,0.47300,-1.27400,85.56000,-0.56000
041225_02.03.24.061,-0.01600,0.00100,1.00200,0.08700,-0.12300,0.01800,0.40700,0.47300,-1.27400,86.06000,0.50000
041225_02.03.24.072,-0.01700,0.00200,1.00200,0.08700,-0.10500,0.01800,0.41000,0.47300,-1.28000,86.20000,0.14000
041225_02.03.24.084,-0.01700,0.00100,1.00300,0.10500,-0.12300,0.01800,0.41000,0.47500,-1.27900,86.49000,0.29000
041225_02.03.24.095,-0.01600,0.00100,1.00300,0.10500,-0.14000,0.01800,0.41000,0.47100,-1.27300,85.83000,-0.66000
041225_02.03.24.107,-0.01700,0.00000,1.00300,0.08700,-0.10500,0.01800,0.39900,0.47200,-1.27900,86.13000,0.30000
041225_02.03.24.118,-0.01700,0.00000,1.00300,0.10500,-0.12300,0.01800,0.39900,0.47200,-1.27900,86.23000,0.10000
041225_02.03.24.129,-0.01600,0.00100,1.00200,0.08700,-0.12300,0.01800,0.40700,0.47200,-1.27800,85.74000,-0.49000
041225_02.03.24.141,-0.01600,0.00200,1.00100,0.08700,-0.12300,0.01800,0.40400,0.47200,-1.27600,85.84000,0.10000
041225_02.03.24.152,-0.01600,0.00100,1.00100,0.08700,-0.14000,0.03500,0.41600,0.47100,-1.29200,86.33000,0.49000
041225_02.03.24.164,-0.01600,0.00200,1.00200,0.08700,-0.14000,0.01800,0.41800,0.47300,-1.29400,85.50000,-0.83000
041225_02.03.24.175,-0.01600,0.00200,1.00100,0.08700,-0.12300,0.01800,0.41800,0.47300,-1.29400,86.13000,0.63000
041225_02.03.24.186,-0.01600,0.00200,1.00100,0.08700,-0.14000,0.01800,0.42000,0.47300,-1.29600,86.18000,0.05000
041225_02.03.24.198,-0.01600,0.00100,1.00200,0.10500,-0.12300,0.01800,0.42000,0.47300,-1.29800,85.41000,-0.77000
041225_02.03.24.209,-0.01700,0.00300,1.00300,0.10500,-0.14000,0.00000,0.42100,0.47400,-1.29500,86.09000,0.68000
041225_02.03.24.220,-0.01600,0.00300,1.00200,0.10500,-0.14000,0.01800,0.42100,0.47400,-1.29200,86.10000,0.01000
041225_02.03.24.232,-0.01600,0.00200,1.00100,0.08700,-0.12300,0.00000,0.42200,0.47400,-1.29200,86.09000,-0.01000
041225_02.03.24.243,-0.01800,0.00300,1.00100,0.08700,-0.12300,0.00000,0.42100,0.47600,-1.29100,86.17000,0.08000
041225_02.03.24.255,-0.01600,0.00400,1.00000,0.10500,-0.12300,0.00000,0.41600,0.47100,-1.28500,86.06000,-0.11000
041225_02.03.24.266,-0.01600,0.00100,1.00100,0.10500,-0.12300,0.00000,0.41900,0.47200,-1.29200,85.97000,-0.09000
041225_02.03.24.278,-0.01600,0.00200,1.00100,0.07000,-0.10500,0.00000,0.41900,0.47200,-1.29200,86.03000,0.06000
041225_02.03.24.289,-0.01600,0.00100,1.00100,0.07000,-0.10500,0.01800,0.41900,0.47300,-1.29000,85.87000,-0.16000
041225_02.03.24.301,-0.01600,0.00200,1.00100,0.07000,-0.10500,0.01800,0.41700,0.47200,-1.29600,85.79000,-0.08000
041225_02.03.24.313,-0.01500,0.00200,1.00000,0.10500,-0.10500,0.01800,0.44000,0.47300,-1.30800,86.08000,0.29000
041225_02.03.24.324,-0.01400,0.00100,1.00100,0.10500,-0.14000,0.01800,0.43700,0.47000,-1.30300,86.00000,-0.08000
041225_02.03.24.336,-0.01500,0.00200,1.00100,0.08700,-0.14000,0.01800,0.43700,0.47000,-1.30300,85.63000,-0.37000
041225_02.03.24.347,-0.01500,0.00100,1.00100,0.08700,-0.14000,0.01800,0.43100,0.47300,-1.30800,85.82000,0.19000
041225_02.03.24.359,-0.01600,0.00300,1.00300,0.08700,-0.14000,0.01800,0.43800,0.47000,-1.30100,86.39000,0.57000
041225_02.03.24.371,-0.01500,0.00200,1.00200,0.08700,-0.14000,0.01800,0.43400,0.47100,-1.30700,86.32000,-0.07000
041225_02.03.24.382,-0.01500,0.00100,1.00200,0.07000,-0.12300,0.01800,0.43500,0.47300,-1.30600,85.80000,-0.52000
041225_02.03.24.394,-0.01500,0.00200,1.00100,0.08700,-0.12300,0.01800,0.43500,0.47300,-1.30600,85.45000,-0.35000
041225_02.03.24.406,-0.01500,0.00100,1.00300,0.08700,-0.12300,0.01800,0.43500,0.47600,-1.30600,85.28000,-0.17000
041225_02.03.24.417,-0.01600,0.00100,1.00100,0.10500,-0.12300,0.01800,0.43300,0.47400,-1.30600,85.77000,0.49000
041225_02.03.24.429,-0.01600,0.00100,1.00200,0.07000,-0.14000,0.01800,0.43800,0.47200,-1.30100,85.65000,-0.12000
041225_02.03.24.441,-0.01500,0.00100,1.00200,0.07000,-0.10500,0.01800,0.43900,0.47400,-1.30700,86.27000,0.62000
041225_02.03.24.452,-0.01700,0.00000,1.00200,0.08700,-0.12300,0.00000,0.43900,0.47400,-1.30700,85.44000,-0.83000
041225_02.03.24.464,-0.01700,0.00100,1.00100,0.07000,-0.12300,0.01800,0.44000,0.47300,-1.33700,85.74000,0.30000
041225_02.03.24.475,-0.01600,0.00000,1.00100,0.08700,-0.10500,0.01800,0.46600,0.48000,-1.33000,85.84000,0.10000
041225_02.03.24.487,-0.01700,0.00000,1.00100,0.08700,-0.12300,0.01800,0.47100,0.48100,-1.32900,86.06000,0.22000
041225_02.03.24.499,-0.01700,0.00200,1.00200,0.07000,-0.14000,0.00000,0.47100,0.48100,-1.33200,86.62000,0.56000
041225_02.03.24.510,-0.01700,0.00000,1.00100,0.08700,-0.12300,0.00000,0.46800,0.47900,-1.33200,86.47000,-0.15000
041225_02.03.24.522,-0.01700,0.00200,1.00000,0.10500,-0.08700,0.00000,0.46400,0.47500,-1.33400,85.87000,-0.60000
041225_02.03.24.533,-0.01600,0.00200,1.00000,0.07000,-0.10500,0.00000,0.46200,0.47500,-1.33300,85.89000,0.02000
041225_02.03.24.545,-0.01700,0.00100,1.00200,0.08700,-0.12300,0.00000,0.46700,0.47900,-1.33100,86.27000,0.38000
041225_02.03.24.557,-0.01600,0.00200,1.00200,0.10500,-0.12300,0.00000,0.46700,0.47900,-1.33100,86.33000,0.06000
041225_02.03.24.568,-0.01600,0.00100,1.00100,0.08700,-0.12300,0.01800,0.46800,0.47900,-1.33700,85.85000,-0.48000
041225_02.03.24.580,-0.01600,0.00100,1.00100,0.10500,-0.14000,0.01800,0.46700,0.47500,-1.33100,86.11000,0.26000
041225_02.03.24.591,-0.01600,0.00300,1.00000,0.08700,-0.14000,0.03500,0.46700,0.47500,-1.33700,85.80000,-0.31000
041225_02.03.24.603,-0.01700,0.00200,1.00000,0.10500,-0.14000,0.01800,0.43300,0.47400,-1.29900,86.49000,0.69000
041225_02.03.24.615,-0.01500,0.00300,1.00100,0.10500,-0.10500,0.03500,0.43300,0.47400,-1.29900,86.02000,-0.47000
041225_02.03.24.626,-0.01700,0.00100,1.00100,0.12300,-0.15700,0.01800,0.42700,0.47400,-1.29400,85.65000,-0.37000
041225_02.03.24.638,-0.01600,0.00200,1.00200,0.10500,-0.14000,0.01800,0.42900,0.46900,-1.29800,86.40000,0.75000
041225_02.03.24.649,-0.01600,0.00300,1.00100,0.10500,-0.14000,0.01800,0.42800,0.47000,-1.29700,85.65000,-0.75000
041225_02.03.24.661,-0.01600,0.00300,1.00300,0.08700,-0.12300,0.00000,0.42900,0.47100,-1.29900,85.82000,0.17000
041225_02.03.24.672,-0.01700,0.00200,1.00200,0.07000,-0.10500,0.00000,0.42900,0.47100,-1.29900,85.65000,-0.17000
041225_02.03.24.684,-0.01500,0.00300,1.00300,0.07000,-0.10500,0.01800,0.43200,0.47300,-1.29900,85.56000,-0.09000
041225_02.03.24.695,-0.01500,0.00300,1.00200,0.10500,-0.12300,0.01800,0.42900,0.47300,-1.30000,85.53000,-0.03000
041225_02.03.24.706,-0.01700,0.00300,1.00200,0.08700,-0.12300,0.01800,0.42800,0.47600,-1.29600,86.04000,0.51000
041225_02.03.24.718,-0.01600,0.00300,1.00100,0.05300,-0.12300,0.01800,0.42800,0.47100,-1.29300,86.13000,0.09000
041225_02.03.24.729,-0.01600,0.00200,1.00300,0.08700,-0.12300,0.01800,0.42500,0.47100,-1.29300,86.12000,-0.01000
041225_02.03.24.741,-0.01600,0.00200,1.00300,0.07000,-0.10500,0.01800,0.42600,0.47100,-1.29000,85.39000,-0.73000
041225_02.03.24.752,-0.01600,0.00300,1.00200,0.05300,-0.10500,0.00000,0.42400,0.47200,-1.29400,85.62000,0.23000
041225_02.03.24.764,-0.01600,0.00200,1.00300,0.08700,-0.12300,0.00000,0.42700,0.46600,-1.29800,86.16000,0.54000
041225_02.03.24.775,-0.01500,0.00200,1.00100,0.08700,-0.12300,0.01800,0.42700,0.46600,-1.29800,85.59000,-0.57000
041225_02.03.24.786,-0.01600,0.00200,1.00200,0.07000,-0.12300,0.01800,0.42300,0.47000,-1.29500,85.96000,0.37000
041225_02.03.24.798,-0.01700,0.00100,1.00200,0.07000,-0.14000,0.01800,0.42400,0.47000,-1.29900,86.46000,0.50000
041225_02.03.24.809,-0.01700,0.00100,1.00100,0.07000,-0.12300,0.01800,0.42100,0.47300,-1.30100,86.42000,-0.04000
041225_02.03.24.821,-0.01700,0.00100,1.00100,0.07000,-0.10500,0.01800,0.42600,0.47300,-1.29300,85.92000,-0.50000
041225_02.03.24.832,-0.01700,0.00100,1.00100,0.08700,-0.10500,0.00000,0.42600,0.47300,-1.29300,86.26000,0.34000
041225_02.03.24.843,-0.01700,0.00100,1.00100,0.08700,-0.10500,0.01800,0.42500,0.47400,-1.29200,86.56000,0.30000
041225_02.03.24.855,-0.01600,0.00200,1.00100,0.08700,-0.12300,0.03500,0.42900,0.47500,-1.29300,85.78000,-0.78000
041225_02.03.24.866,-0.01600,0.00000,1.00200,0.10500,-0.14000,0.01800,0.42700,0.47300,-1.29200,86.31000,0.53000
041225_02.03.24.878,-0.01700,0.00000,1.00100,0.10500,-0.14000,0.01800,0.42400,0.47700,-1.29500,85.77000,-0.54000
041225_02.03.24.889,-0.01700,0.00000,1.00000,0.08700,-0.10500,0.00000,0.42400,0.47700,-1.29500,85.98000,0.21000
041225_02.03.24.900,-0.01500,0.00100,1.00100,0.10500,-0.10500,0.01800,0.42700,0.47400,-1.30000,86.01000,0.03000
041225_02.03.24.912,-0.01500,0.00100,1.00200,0.10500,-0.14000,0.03500,0.42600,0.47300,-1.29400,85.26000,-0.75000
041225_02.03.24.923,-0.01500,-0.00100,1.00200,0.12300,-0.14000,0.00000,0.43000,0.47300,-1.28900,85.78000,0.52000
041225_02.03.24.935,-0.01600,0.00100,1.00100,0.08700,-0.12300,0.01800,0.42700,0.47500,-1.29700,85.87000,0.09000
041225_02.03.24.946,-0.01600,0.00200,1.00100,0.08700,-0.12300,0.00000,0.42700,0.47500,-1.29700,86.44000,0.57000
041225_02.03.24.957,-0.01700,0.00100,1.00100,0.10500,-0.12300,0.01800,0.42400,0.47100,-1.29300,85.86000,-0.58000
041225_02.03.24.969,-0.01600,0.00100,1.00200,0.08700,-0.10500,0.00000,0.42100,0.47000,-1.29500,86.11000,0.25000
041225_02.03.24.980,-0.01700,0.00200,1.00100,0.10500,-0.12300,0.00000,0.42700,0.47400,-1.29900,85.81000,-0.30000
041225_02.03.24.992,-0.01500,0.00300,1.00100,0.10500,-0.12300,0.01800,0.42700,0.47400,-1.29600,86.19000,0.38000
041225_02.03.25.003,-0.01500,0.00200,1.00100,0.12300,-0.14000,0.01800,0.42600,0.47400,-1.29600,86.04000,-0.15000
041225_02.03.25.014,-0.01600,0.00200,1.00200,0.08700,-0.14000,0.00000,0.42600,0.47300,-1.30200,85.82000,-0.22000
041225_02.03.25.025,-0.01600,0.00200,1.00100,0.10500,-0.12300,0.00000,0.42600,0.47500,-1.30400,86.34000,0.52000
041225_02.03.25.037,-0.01500,0.00200,1.00000,0.10500,-0.12300,0.01800,0.42500,0.47400,-1.30000,86.58000,0.24000
041225_02.03.25.048,-0.01600,0.00300,1.00000,0.08700,-0.14000,0.03500,0.42500,0.47400,-1.30000,86.78000,0.20000
041225_02.03.25.060,-0.01700,0.00200,1.00100,0.10500,-0.14000,0.03500,0.42600,0.47500,-1.29700,86.07000,-0.71000
041225_02.03.25.071,-0.01600,0.00300,1.00200,0.10500,-0.12300,0.01800,0.42600,0.47500,-1.29200,85.57000,-0.50000
041225_02.03.25.082,-0.01600,0.00200,1.00100,0.08700,-0.12300,0.01800,0.42700,0.47400,-1.29900,86.48000,0.91000
041225_02.03.25.094,-0.01700,0.00200,1.00100,0.10500,-0.10500,0.01800,0.42000,0.47500,-1.30300,86.75000,0.27000
041225_02.03.25.105,-0.01600,0.00200,1.00100,0.12300,-0.12300,0.00000,0.42000,0.47500,-1.30300,86.32000,-0.43000
041225_02.03.25.117,-0.01700,0.00200,1.00200,0.08700,-0.12300,0.01800,0.42000,0.46800,-1.30200,86.41000,0.09000
041225_02.03.25.128,-0.01700,0.00200,1.00200,0.10500,-0.10500,0.03500,0.42200,0.47400,-1.30300,85.32000,-1.09000
041225_02.03.25.139,-0.01700,0.00100,1.00200,0.10500,-0.10500,0.03500,0.42400,0.47600,-1.30000,86.23000,0.91000
041225_02.03.25.151,-0.01700,0.00200,1.00200,0.08700,-0.10500,0.03500,0.42700,0.47200,-1.29800,86.06000,-0.17000
041225_02.03.25.162,-0.01600,0.00200,1.00300,0.10500,-0.14000,0.03500,0.42700,0.47200,-1.29800,85.87000,-0.19000
041225_02.03.25.174,-0.01700,0.00200,1.00200,0.10500,-0.14000,0.01800,0.42200,0.47000,-1.30200,86.04000,0.17000
041225_02.03.25.185,-0.01600,0.00100,1.00200,0.08700,-0.12300,0.00000,0.42200,0.47500,-1.29200,86.35000,0.31000
041225_02.03.25.196,-0.01700,0.00200,1.00200,0.10500,-0.12300,0.01800,0.42200,0.47500,-1.30500,86.22000,-0.13000
041225_02.03.25.208,-0.01700,0.00200,1.00100,0.10500,-0.15700,0.01800,0.42200,0.47300,-1.29900,86.11000,-0.11000
041225_02.03.25.219,-0.01600,0.00200,1.00200,0.08700,-0.14000,0.01800,0.42300,0.47300,-1.29900,86.18000,0.07000
041225_02.03.25.231,-0.01600,0.00200,1.00200,0.10500,-0.14000,0.01800,0.42200,0.47700,-1.30200,86.10000,-0.08000
041225_02.03.25.242,-0.01700,0.00000,1.00000,0.10500,-0.14000,0.01800,0.42300,0.47500,-1.29800,86.34000,0.24000
041225_02.03.25.253,-0.01500,0.00100,1.00100,0.07000,-0.15700,0.03500,0.42700,0.47500,-1.30500,86.25000,-0.09000
041225_02.03.25.265,-0.01600,0.00100,1.00000,0.07000,-0.12300,0.01800,0.42700,0.47500,-1.30500,86.36000,0.11000
041225_02.03.25.277,-0.01700,0.00000,1.00200,0.10500,-0.12300,0.01800,0.42600,0.47800,-1.29800,86.31000,-0.05000
041225_02.03.25.288,-0.01600,0.00200,1.00100,0.08700,-0.14000,0.00000,0.42200,0.47300,-1.30000,86.32000,0.01000
041225_02.03.25.299,-0.01600,0.00100,1.00200,0.08700,-0.14000,0.00000,0.42600,0.47300,-1.29900,85.76000,-0.56000
041225_02.03.25.311,-0.01500,0.00000,1.00200,0.08700,-0.12300,0.01800,0.42500,0.46900,-1.29800,86.14000,0.38000
041225_02.03.25.322,-0.01500,0.00100,1.00100,0.08700,-0.12300,0.00000,0.42500,0.46900,-1.29800,86.32000,0.18000
041225_02.03.25.334,-0.01400,0.00000,1.00100,0.12300,-0.12300,0.00000,0.41900,0.47500,-1.29600,86.96000,0.64000
041225_02.03.25.345,-0.01600,0.00200,1.00100,0.08700,-0.12300,0.00000,0.42100,0.47300,-1.29700,86.78000,-0.18000
041225_02.03.25.356,-0.01700,0.00100,1.00100,0.08700,-0.14000,0.01800,0.42300,0.47600,-1.29500,86.32000,-0.46000
041225_02.03.25.368,-0.01700,0.00000,1.00300,0.10500,-0.12300,0.01800,0.42600,0.47600,-1.29500,86.52000,0.20000
041225_02.03.25.379,-0.01600,0.00200,1.00100,0.10500,-0.12300,0.01800,0.42600,0.47600,-1.29500,85.66000,-0.86000
041225_02.03.25.391,-0.01500,0.00200,1.00100,0.08700,-0.12300,0.00000,0.42300,0.47200,-1.30400,86.66000,1.00000
041225_02.03.25.402,-0.01500,0.00300,1.00100,0.08700,-0.12300,0.00000,0.42300,0.47200,-1.30400,85.98000,-0.68000
041225_02.03.25.413,-0.01500,0.00000,1.00100,0.08700,-0.14000,0.00000,0.42300,0.47400,-1.30100,86.45000,0.47000
041225_02.03.25.425,-0.01500,0.00100,1.00100,0.08700,-0.14000,0.00000,0.42400,0.47300,-1.30400,86.07000,-0.38000
041225_02.03.25.436,-0.01500,0.00200,1.00100,0.07000,-0.14000,0.00000,0.42400,0.47300,-1.30400,85.63000,-0.44000
041225_02.03.25.447,-0.01600,0.00100,1.00200,0.10500,-0.12300,0.03500,0.42600,0.47600,-1.30300,85.91000,0.28000
041225_02.03.25.459,-0.01600,0.00000,1.00100,0.08700,-0.12300,0.03500,0.42700,0.47400,-1.30500,86.35000,0.44000
041225_02.03.25.470,-0.01600,0.00200,1.00300,0.12300,-0.14000,0.03500,0.42700,0.47600,-1.30900,86.55000,0.20000
041225_02.03.25.482,-0.01500,0.00200,1.00100,0.10500,-0.12300,0.05300,0.42700,0.47600,-1.30900,85.88000,-0.67000
041225_02.03.25.493,-0.01600,0.00200,1.00200,0.08700,-0.10500,0.01800,0.42800,0.47600,-1.29800,86.61000,0.73000
041225_02.03.25.504,-0.01700,0.00200,1.00200,0.10500,-0.15700,0.01800,0.42700,0.47500,-1.30600,86.46000,-0.15000
041225_02.03.25.516,-0.01600,0.00200,1.00200,0.10500,-0.14000,0.01800,0.42500,0.47100,-1.30100,87.03000,0.57000
041225_02.03.25.527,-0.01700,0.00300,1.00200,0.08700,-0.14000,0.01800,0.42600,0.47000,-1.30000,86.48000,-0.55000
041225_02.03.25.539,-0.01600,0.00300,1.00300,0.08700,-0.14000,0.01800,0.42600,0.47000,-1.30000,86.45000,-0.03000
041225_02.03.25.550,-0.01700,0.00100,1.00100,0.08700,-0.14000,0.01800,0.42500,0.47300,-1.29600,86.31000,-0.14000
041225_02.03.25.561,-0.01700,0.00200,1.00300,0.10500,-0.12300,0.03500,0.43000,0.47100,-1.29500,87.28000,0.97000
041225_02.03.25.573,-0.01700,0.00200,1.00200,0.10500,-0.12300,0.00000,0.42700,0.47100,-1.29900,86.02000,-1.26000
041225_02.03.25.584,-0.01700,0.00200,1.00000,0.08700,-0.12300,0.01800,0.42700,0.47300,-1.30200,85.93000,-0.09000
041225_02.03.25.596,-0.01700,0.00200,1.00100,0.08700,-0.10500,0.01800,0.42700,0.47300,-1.30200,85.94000,0.01000
041225_02.03.25.607,-0.01700,0.00200,1.00100,0.10500,-0.14000,0.01800,0.42500,0.47400,-1.29800,86.56000,0.62000
041225_02.03.25.618,-0.01600,0.00100,1.00100,0.10500,-0.14000,0.01800,0.42400,0.47400,-1.29800,86.96000,0.40000
041225_02.03.25.630,-0.01700,0.00100,1.00100,0.08700,-0.12300,0.01800,0.42700,0.47700,-1.29700,85.79000,-1.17000
041225_02.03.25.641,-0.01700,0.00100,1.00200,0.07000,-0.14000,0.01800,0.42400,0.47300,-1.29700,86.09000,0.30000
041225_02.03.25.653,-0.01600,0.00100,1.00200,0.08700,-0.15700,0.01800,0.42400,0.47300,-1.29700,86.35000,0.26000
041225_02.03.25.664,-0.01600,0.00100,1.00100,0.08700,-0.14000,0.00000,0.42400,0.47400,-1.29800,85.86000,-0.49000
041225_02.03.25.675,-0.01700,0.00200,1.00100,0.08700,-0.10500,0.01800,0.42800,0.47200,-1.29800,86.03000,0.17000
041225_02.03.25.687,-0.01600,0.00200,1.00200,0.08700,-0.10500,0.00000,0.42800,0.47100,-1.29100,86.18000,0.15000
041225_02.03.25.698,-0.01500,0.00000,1.00200,0.07000,-0.12300,0.00000,0.42800,0.46900,-1.29700,86.43000,0.25000
041225_02.03.25.710,-0.01600,0.00100,1.00300,0.07000,-0.12300,0.01800,0.43000,0.46900,-1.29700,86.01000,-0.42000
041225_02.03.25.721,-0.01600,0.00200,1.00100,0.08700,-0.10500,0.00000,0.42900,0.47200,-1.30300,86.41000,0.40000
041225_02.03.25.732,-0.01700,0.00100,1.00200,0.08700,-0.12300,0.00000,0.42700,0.47300,-1.30600,85.58000,-0.83000
041225_02.03.25.744,-0.01700,0.00100,1.00100,0.07000,-0.14000,0.00000,0.42300,0.47100,-1.29800,86.19000,0.61000
041225_02.03.25.755,-0.01600,0.00000,1.00200,0.08700,-0.14000,0.00000,0.42300,0.47100,-1.29800,86.29000,0.10000
041225_02.03.25.767,-0.01600,0.00000,1.00200,0.05300,-0.12300,0.00000,0.42900,0.47000,-1.29400,86.18000,-0.11000
041225_02.03.25.778,-0.01700,0.00100,1.00100,0.08700,-0.12300,0.01800,0.42800,0.47000,-1.30000,86.71000,0.53000
041225_02.03.25.790,-0.01600,0.00000,1.00200,0.08700,-0.12300,0.01800,0.42900,0.47500,-1.29900,86.33000,-0.38000
041225_02.03.25.801,-0.01600,0.00000,1.00100,0.08700,-0.12300,0.01800,0.42900,0.47400,-1.30000,86.23000,-0.10000
041225_02.03.25.812,-0.01400,0.00100,1.00100,0.08700,-0.15700,0.03500,0.42900,0.47400,-1.30000,86.46000,0.23000
041225_02.03.25.824,-0.01600,0.00000,1.00200,0.10500,-0.14000,0.01800,0.43000,0.47600,-1.29800,86.13000,-0.33000
041225_02.03.25.835,-0.01600,0.00200,1.00100,0.08700,-0.12300,0.01800,0.42700,0.47200,-1.29600,85.66000,-0.47000
041225_02.03.25.847,-0.01500,0.00200,1.00000,0.10500,-0.10500,0.01800,0.42600,0.47400,-1.29700,85.89000,0.23000
041225_02.03.25.858,-0.01600,0.00200,1.00200,0.08700,-0.12300,0.01800,0.42200,0.47100,-1.29400,86.11000,0.22000
041225_02.03.25.869,-0.01600,0.00200,1.00100,0.08700,-0.14000,0.00000,0.42200,0.47100,-1.29400,86.38000,0.27000
041225_02.03.25.881,-0.01600,0.00200,1.00200,0.08700,-0.12300,0.00000,0.42500,0.47600,-1.29700,86.24000,-0.14000
041225_02.03.25.892,-0.01500,0.00200,1.00100,0.07000,-0.12300,0.00000,0.42300,0.47200,-1.29700,86.35000,0.11000
041225_02.03.25.904,-0.01600,0.00300,1.00100,0.08700,-0.14000,0.01800,0.42400,0.47400,-1.29500,86.12000,-0.23000
041225_02.03.25.915,-0.01600,0.00200,1.00200,0.08700,-0.10500,0.01800,0.42200,0.47200,-1.29400,86.40000,0.28000
041225_02.03.25.926,-0.01500,0.00100,1.00300,0.08700,-0.12300,0.01800,0.42200,0.47200,-1.29400,86.14000,-0.26000
041225_02.03.25.938,-0.01700,0.00200,1.00200,0.08700,-0.12300,0.00000,0.42700,0.47100,-1.29800,85.34000,-0.80000
041225_02.03.25.949,-0.01600,0.00200,1.00200,0.07000,-0.12300,0.01800,0.42600,0.47200,-1.29700,86.14000,0.80000
041225_02.03.25.961,-0.01500,0.00200,1.00200,0.07000,-0.12300,0.01800,0.42600,0.47100,-1.30100,86.16000,0.02000
041225_02.03.25.972,-0.01500,0.00200,1.00200,0.08700,-0.12300,0.01800,0.42600,0.47100,-1.30100,86.10000,-0.06000
041225_02.03.25.983,-0.01600,0.00200,1.00100,0.08700,-0.12300,0.01800,0.42900,0.47300,-1.29600,86.07000,-0.03000
041225_02.03.25.995,-0.01600,0.00100,1.00100,0.07000,-0.10500,0.00000,0.42400,0.47400,-1.30000,86.47000,0.40000
041225_02.03.26.006,-0.01800,0.00100,1.00100,0.07000,-0.10500,0.00000,0.42200,0.47200,-1.30100,86.32000,-0.15000
041225_02.03.26.018,-0.01700,0.00100,1.00100,0.08700,-0.10500,0.00000,0.42500,0.47400,-1.30200,86.08000,-0.24000
041225_02.03.26.029,-0.01500,0.00100,1.00100,0.10500,-0.12300,0.00000,0.42500,0.47400,-1.30200,85.37000,-0.71000
041225_02.03.26.041,-0.01600,0.00100,1.00200,0.07000,-0.12300,0.00000,0.42400,0.47300,-1.30100,86.94000,1.57000
041225_02.03.26.052,-0.01600,0.00200,1.00200,0.07000,-0.08700,0.00000,0.42700,0.47300,-1.29800,86.04000,-0.90000
041225_02.03.26.064,-0.01500,0.00100,1.00200,0.08700,-0.12300,0.01800,0.42500,0.47500,-1.29500,86.93000,0.89000
041225_02.03.26.075,-0.01600,0.00100,1.00000,0.07000,-0.12300,0.01800,0.42400,0.47300,-1.29900,85.79000,-1.14000
041225_02.03.26.087,-0.01700,0.00100,1.00200,0.07000,-0.14000,0.00000,0.42400,0.47300,-1.29900,85.92000,0.13000
041225_02.03.26.099,-0.01500,0.00100,1.00300,0.10500,-0.15700,0.03500,0.42400,0.47400,-1.29400,86.06000,0.14000
041225_02.03.26.110,-0.01500,0.00000,1.00100,0.10500,-0.14000,0.01800,0.42800,0.47600,-1.29400,85.59000,-0.47000
041225_02.03.26.122,-0.01500,0.00200,1.00200,0.08700,-0.12300,0.01800,0.42400,0.47100,-1.29900,86.31000,0.72000
041225_02.03.26.134,-0.01600,0.00200,1.00200,0.08700,-0.14000,0.01800,0.42100,0.47300,-1.30700,86.16000,-0.15000
041225_02.03.26.145,-0.01600,0.00100,1.00200,0.08700,-0.12300,0.00000,0.42100,0.47300,-1.30700,86.24000,0.08000
041225_02.03.26.157,-0.01600,0.00200,1.00000,0.08700,-0.12300,0.03500,0.43100,0.47700,-1.30400,85.65000,-0.59000
041225_02.03.26.168,-0.01600,0.00100,1.00000,0.08700,-0.12300,0.01800,0.42800,0.47300,-1.30400,86.74000,1.09000
041225_02.03.26.180,-0.01600,0.00000,1.00200,0.08700,-0.12300,0.01800,0.42600,0.47400,-1.29600,86.15000,-0.59000
041225_02.03.26.191,-0.01800,0.00200,1.00100,0.10500,-0.12300,0.03500,0.42600,0.47400,-1.30400,85.72000,-0.43000
041225_02.03.26.202,-0.01600,0.00100,1.00100,0.10500,-0.12300,0.01800,0.42300,0.47400,-1.30400,86.09000,0.37000
041225_02.03.26.214,-0.01600,0.00100,1.00100,0.08700,-0.10500,0.01800,0.42700,0.47400,-1.30200,86.15000,0.06000
041225_02.03.26.225,-0.01700,0.00000,1.00100,0.08700,-0.12300,0.01800,0.42200,0.47400,-1.29800,86.18000,0.03000
041225_02.03.26.237,-0.01700,0.00100,1.00000,0.10500,-0.12300,0.03500,0.42800,0.47000,-1.29700,86.29000,0.11000
041225_02.03.26.248,-0.02000,0.00000,1.00100,0.10500,-0.12300,0.01800,0.42800,0.47000,-1.29700,86.22000,-0.07000
041225_02.03.26.259,-0.02300,0.00000,1.00300,0.10500,-0.15700,0.01800,0.42800,0.47300,-1.29800,86.09000,-0.13000
041225_02.03.26.271,-0.02500,-0.00300,1.00500,0.08700,-0.19200,0.01800,0.42200,0.47600,-1.29600,86.27000,0.18000
041225_02.03.26.282,-0.00800,0.00400,1.01400,0.10500,-0.22800,0.00000,0.42100,0.47600,-1.29400,85.83000,-0.44000
041225_02.03.26.294,-0.00700,0.01300,0.99400,0.10500,-0.10500,0.00000,0.42700,0.47300,-1.30500,85.67000,-0.16000
041225_02.03.26.305,-0.01600,0.00600,0.99100,0.08700,-0.08700,-0.01800,0.42700,0.47300,-1.30500,85.70000,0.03000
041225_02.03.26.316,-0.03100,0.00000,1.01900,0.05300,-0.15700,0.03500,0.42600,0.47200,-1.30400,86.16000,0.46000
041225_02.03.26.328,-0.01700,0.00400,1.02300,0.08700,-0.21000,0.01800,0.42300,0.47100,-1.30100,86.64000,0.48000
041225_02.03.26.339,-0.00600,0.00700,0.98300,0.08700,-0.15700,-0.03500,0.42200,0.46900,-1.30600,86.33000,-0.31000
041225_02.03.26.351,-0.01700,0.00100,0.98600,0.05300,-0.08700,-0.03500,0.42800,0.47200,-1.30600,85.70000,-0.63000
041225_02.03.26.363,-0.02100,0.00400,1.03000,0.05300,-0.10500,0.05300,0.42800,0.47200,-1.30600,86.23000,0.53000
041225_02.03.26.374,-0.01800,0.00700,1.01400,0.05300,-0.12300,-0.03500,0.42200,0.47300,-1.30700,86.70000,0.47000
041225_02.03.26.386,-0.00700,0.00400,0.97900,0.03500,-0.07000,0.03500,0.42400,0.47000,-1.30500,86.34000,-0.36000
041225_02.03.26.398,-0.01500,-0.00400,1.02400,0.05300,-0.12300,0.07000,0.42500,0.47300,-1.30300,86.69000,0.35000
041225_02.03.26.409,-0.00700,-0.00100,1.01000,0.05300,-0.14000,0.03500,0.42600,0.47500,-1.30400,86.59000,-0.10000
041225_02.03.26.421,-0.00200,0.00300,0.97600,0.05300,-0.05300,0.00000,0.42600,0.47500,-1.30400,86.34000,-0.25000
041225_02.03.26.432,-0.01500,0.00100,0.98700,0.01800,0.00000,0.01800,0.42700,0.47600,-1.30000,85.94000,-0.40000
041225_02.03.26.444,-0.02700,-0.00800,1.01200,0.05300,-0.07000,0.05300,0.42900,0.47400,-1.30500,85.39000,-0.55000
041225_02.03.26.455,-0.01600,-0.00500,0.99900,0.12300,-0.15700,0.03500,0.42400,0.47500,-1.30900,86.30000,0.91000
041225_02.03.26.467,-0.00900,0.00200,0.98000,0.14000,-0.14000,0.03500,0.42400,0.47500,-1.30900,86.41000,0.11000
041225_02.03.26.478,-0.01500,-0.00300,0.98800,0.08700,-0.08700,0.01800,0.42600,0.47200,-1.30300,86.12000,-0.29000
041225_02.03.26.490,-0.02100,-0.00800,1.00800,0.14000,-0.08700,0.03500,0.42200,0.47500,-1.29500,85.24000,-0.88000
041225_02.03.26.501,-0.01800,-0.00100,0.99900,0.17500,-0.12300,0.03500,0.42900,0.47300,-1.30100,85.67000,0.43000
041225_02.03.26.512,-0.01400,-0.00100,0.98700,0.15700,-0.14000,0.01800,0.42300,0.47200,-1.29800,86.36000,0.69000
041225_02.03.26.524,-0.01700,-0.00200,0.99400,0.19200,-0.14000,0.01800,0.42300,0.47200,-1.29800,85.83000,-0.53000
041225_02.03.26.535,-0.01800,0.02900,1.00100,0.17500,-0.17500,0.01800,0.42300,0.47800,-1.29800,86.11000,0.28000
041225_02.03.26.547,-0.01400,0.00100,0.99800,0.15700,-0.08700,0.01800,0.42500,0.46900,-1.30000,86.30000,0.19000
041225_02.03.26.558,-0.02100,0.00200,1.00300,0.15700,-0.07000,0.03500,0.42100,0.47300,-1.29900,86.24000,-0.06000
041225_02.03.26.570,-0.02400,0.00300,1.00700,0.17500,-0.12300,0.01800,0.42300,0.46900,-1.29700,85.70000,-0.54000
041225_02.03.26.581,-0.01800,0.00300,1.00700,0.15700,-0.12300,0.01800,0.42300,0.46900,-1.29700,86.37000,0.67000
041225_02.03.26.592,-0.01800,0.00500,1.00900,0.14000,-0.07000,0.00000,0.42100,0.46900,-1.29900,86.34000,-0.03000
041225_02.03.26.604,-0.01900,0.00600,1.00600,0.15700,-0.08700,0.00000,0.42100,0.47800,-1.29100,86.04000,-0.30000
041225_02.03.26.615,-0.02000,0.00700,1.00900,0.14000,-0.12300,0.00000,0.42700,0.47300,-1.29800,85.72000,-0.32000
041225_02.03.26.626,-0.01700,0.00700,1.01300,0.08700,-0.10500,0.01800,0.41900,0.47300,-1.30200,85.70000,-0.02000
041225_02.03.26.638,-0.01700,0.00900,1.01300,0.08700,-0.10500,0.00000,0.41900,0.47300,-1.30200,86.10000,0.40000
041225_02.03.26.649,-0.01500,0.00800,1.00200,0.08700,-0.10500,0.01800,0.42100,0.47100,-1.29700,86.02000,-0.08000
041225_02.03.26.661,-0.01700,0.00500,1.00800,0.08700,-0.10500,0.03500,0.42600,0.47400,-1.29900,85.78000,-0.24000
041225_02.03.26.672,-0.01400,0.00500,1.01400,0.03500,-0.10500,0.00000,0.42500,0.47300,-1.29300,86.45000,0.67000
041225_02.03.26.683,-0.01600,0.00700,1.00000,0.03500,-0.08700,0.00000,0.42500,0.47300,-1.29400,86.48000,0.03000
041225_02.03.26.695,-0.02000,0.00400,1.00600,0.01800,-0.08700,0.01800,0.42100,0.47000,-1.29400,85.38000,-1.10000
041225_02.03.26.706,-0.01800,0.00300,1.00600,-0.01800,-0.12300,0.01800,0.42200,0.47300,-1.30000,85.43000,0.05000
041225_02.03.26.718,-0.01700,0.00500,0.99900,0.03500,-0.14000,0.00000,0.42400,0.47100,-1.29800,86.13000,0.70000
041225_02.03.26.729,-0.01800,0.00300,0.99600,0.01800,-0.12300,0.01800,0.42200,0.47600,-1.29500,86.03000,-0.10000
041225_02.03.26.741,-0.01700,0.00000,0.99900,0.03500,-0.15700,0.00000,0.42200,0.47600,-1.29500,86.40000,0.37000
041225_02.03.26.752,-0.01500,-0.00100,0.99700,0.05300,-0.19200,0.01800,0.42200,0.48100,-1.29900,86.35000,-0.05000
041225_02.03.26.763,-0.01300,0.00100,0.99300,0.07000,-0.15700,0.03500,0.42000,0.47200,-1.30200,86.56000,0.21000
041225_02.03.26.775,-0.01500,-0.00100,0.99500,0.07000,-0.15700,0.01800,0.42600,0.47800,-1.29900,85.86000,-0.70000
041225_02.03.26.786,-0.01600,-0.00300,0.99500,0.08700,-0.14000,0.01800,0.42600,0.47700,-1.29800,86.13000,0.27000
041225_02.03.26.798,-0.01000,-0.00400,0.99200,0.10500,-0.14000,0.03500,0.42600,0.47700,-1.29800,86.48000,0.35000
041225_02.03.26.809,-0.01000,-0.00200,0.99300,0.12300,-0.08700,0.05300,0.42600,0.47800,-1.30000,85.89000,-0.59000
041225_02.03.26.821,-0.01400,-0.00200,0.99400,0.12300,-0.08700,0.03500,0.42600,0.47300,-1.29900,86.12000,0.23000
041225_02.03.26.832,-0.01700,-0.00300,0.99600,0.14000,-0.10500,0.03500,0.42800,0.47700,-1.30000,86.06000,-0.06000
041225_02.03.26.843,-0.01700,-0.00300,0.99800,0.14000,-0.10500,0.03500,0.42100,0.47800,-1.30200,85.37000,-0.69000
041225_02.03.26.855,-0.01800,-0.00200,0.99800,0.15700,-0.10500,0.01800,0.42100,0.47800,-1.30200,85.99000,0.62000
041225_02.03.26.866,-0.01600,-0.00200,0.99600,0.14000,-0.10500,0.01800,0.42400,0.47700,-1.30500,86.16000,0.17000
041225_02.03.26.878,-0.01700,-0.00300,1.00100,0.12300,-0.10500,0.00000,0.42500,0.47600,-1.30500,86.15000,-0.01000
041225_02.03.26.889,-0.01800,-0.00200,1.00300,0.15700,-0.10500,0.01800,0.42200,0.47500,-1.30400,86.12000,-0.03000
041225_02.03.26.900,-0.01500,-0.00000,0.99900,0.14000,-0.10500,0.01800,0.42200,0.47800,-1.30500,86.26000,0.14000
041225_02.03.26.912,-0.01500,0.00000,1.00100,0.14000,-0.10500,0.03500,0.42600,0.47800,-1.30500,86.31000,0.05000
041225_02.03.26.923,-0.01200,-0.00100,1.00300,0.12300,-0.08700,0.00000,0.42300,0.47900,-1.30200,86.11000,-0.20000
041225_02.03.26.934,-0.01500,0.00000,1.00300,0.14000,-0.08700,0.01800,0.42600,0.47800,-1.29800,86.56000,0.45000
041225_02.03.26.946,-0.01800,0.00200,1.00300,0.14000,-0.12300,0.01800,0.42400,0.47300,-1.30200,86.03000,-0.53000
041225_02.03.26.957,-0.02000,0.00300,1.00400,0.10500,-0.12300,0.00000,0.42400,0.47300,-1.30200,86.21000,0.18000
041225_02.03.26.969,-0.01900,0.00300,1.00300,0.14000,-0.12300,0.01800,0.42500,0.47200,-1.30700,86.00000,-0.21000
041225_02.03.26.980,-0.01700,0.00400,1.00700,0.14000,-0.12300,0.00000,0.42300,0.47400,-1.30300,85.76000,-0.24000
041225_02.03.26.991,-0.01800,0.00300,1.00500,0.10500,-0.12300,-0.01800,0.42600,0.47500,-1.30100,85.76000,0.00000
041225_02.03.27.003,-0.01800,0.00500,1.00500,0.12300,-0.10500,-0.01800,0.42400,0.47800,-1.30200,85.88000,0.12000
041225_02.03.27.014,-0.01700,0.00600,1.00500,0.12300,-0.10500,-0.03500,0.42400,0.47800,-1.30200,85.75000,-0.13000
041225_02.03.27.026,-0.01700,0.00700,1.00600,0.12300,-0.12300,0.00000,0.42300,0.47200,-1.30200,86.50000,0.75000
041225_02.03.27.037,-0.01500,0.00500,1.00400,0.12300,-0.10500,0.00000,0.43000,0.47600,-1.30000,86.28000,-0.22000
041225_02.03.27.048,-0.01400,0.00500,1.00500,0.12300,-0.12300,-0.01800,0.43000,0.47600,-1.30100,86.42000,0.14000
041225_02.03.27.060,-0.01400,0.00500,1.00600,0.10500,-0.12300,0.00000,0.42900,0.47700,-1.30600,86.26000,-0.16000
041225_02.03.27.071,-0.01500,0.00500,1.00500,0.12300,-0.10500,0.00000,0.42900,0.47700,-1.30600,86.45000,0.19000
041225_02.03.27.083,-0.01600,0.00500,1.00400,0.08700,-0.10500,0.00000,0.42900,0.47800,-1.30400,86.21000,-0.24000
041225_02.03.27.094,-0.01600,0.00400,1.00200,0.08700,-0.10500,0.00000,0.42900,0.47600,-1.30800,86.33000,0.12000
041225_02.03.27.105,-0.01700,0.00300,1.00300,0.10500,-0.08700,0.01800,0.42900,0.47800,-1.31000,86.45000,0.12000
041225_02.03.27.117,-0.01400,0.00300,1.00200,0.10500,-0.12300,0.01800,0.43000,0.47300,-1.30900,86.40000,-0.05000
041225_02.03.27.128,-0.01400,0.00200,1.00200,0.08700,-0.10500,0.01800,0.43000,0.47300,-1.30900,85.86000,-0.54000
041225_02.03.27.140,-0.01400,0.00100,1.00100,0.08700,-0.10500,0.01800,0.42800,0.47300,-1.31200,86.72000,0.86000
041225_02.03.27.151,-0.01500,0.00100,1.00000,0.10500,-0.08700,0.03500,0.43100,0.47500,-1.30600,85.94000,-0.78000
041225_02.03.27.162,-0.01400,0.00100,1.00200,0.10500,-0.10500,0.03500,0.42900,0.47300,-1.30400,85.94000,0.00000
041225_02.03.27.174,-0.01500,0.00200,1.00300,0.10500,-0.10500,0.01800,0.42900,0.47300,-1.30400,85.65000,-0.29000
041225_02.03.27.185,-0.01600,0.00100,0.99900,0.08700,-0.08700,0.01800,0.43000,0.47700,-1.30200,86.63000,0.98000
041225_02.03.27.197,-0.01700,0.00100,1.00100,0.07000,-0.12300,0.05300,0.42800,0.47700,-1.30500,86.45000,-0.18000
041225_02.03.27.208,-0.01900,0.00100,1.00000,0.07000,-0.12300,0.05300,0.43000,0.48100,-1.29900,86.00000,-0.45000
041225_02.03.27.220,-0.01900,-0.00100,1.00000,0.05300,-0.12300,0.03500,0.42600,0.47300,-1.29800,86.68000,0.68000
041225_02.03.27.231,-0.01900,-0.00100,1.00200,0.08700,-0.12300,0.03500,0.42600,0.47300,-1.29800,86.25000,-0.43000
041225_02.03.27.242,-0.02000,-0.00100,1.00100,0.08700,-0.12300,0.03500,0.43100,0.47800,-1.30600,86.14000,-0.11000
041225_02.03.27.254,-0.01900,-0.00200,0.99800,0.07000,-0.14000,0.03500,0.43400,0.47700,-1.30100,86.51000,0.37000
041225_02.03.27.265,-0.02000,0.00000,1.00100,0.10500,-0.15700,0.01800,0.42900,0.47800,-1.29700,86.03000,-0.48000
041225_02.03.27.277,-0.01700,-0.00000,1.00200,0.10500,-0.17500,0.01800,0.42900,0.47800,-1.31000,86.08000,0.05000
041225_02.03.27.288,-0.01700,0.00000,1.00000,0.12300,-0.15700,0.01800,0.42900,0.47800,-1.31000,86.42000,0.34000
041225_02.03.27.299,-0.01700,-0.00100,1.00200,0.10500,-0.12300,-0.01800,0.42800,0.47400,-1.30600,86.52000,0.10000
041225_02.03.27.311,-0.01800,0.00000,1.00100,0.07000,-0.10500,0.00000,0.42900,0.47500,-1.30400,86.03000,-0.49000
041225_02.03.27.322,-0.01700,0.00000,1.00100,0.07000,-0.10500,0.01800,0.42400,0.47700,-1.31100,86.40000,0.37000
041225_02.03.27.334,-0.01700,0.00000,0.99800,0.08700,-0.12300,0.01800,0.42700,0.47400,-1.30800,86.06000,-0.34000
041225_02.03.27.345,-0.01700,0.00200,1.00000,0.08700,-0.14000,-0.01800,0.42700,0.47400,-1.30800,86.06000,0.00000
041225_02.03.27.356,-0.01700,0.00100,1.00200,0.10500,-0.14000,0.00000,0.43200,0.48200,-1.30500,85.43000,-0.63000
041225_02.03.27.368,-0.01700,0.00200,1.00200,0.10500,-0.14000,-0.01800,0.42800,0.47700,-1.30000,86.86000,1.43000
041225_02.03.27.379,-0.01600,0.00300,1.00300,0.10500,-0.12300,-0.01800,0.42600,0.47600,-1.30200,86.26000,-0.60000
041225_02.03.27.391,-0.01500,0.00200,1.00100,0.10500,-0.14000,-0.01800,0.42600,0.47600,-1.30200,85.88000,-0.38000
041225_02.03.27.402,-0.01600,0.00200,1.00400,0.10500,-0.15700,0.00000,0.43200,0.47500,-1.30200,86.17000,0.29000
041225_02.03.27.413,-0.01500,0.00300,1.00400,0.08700,-0.15700,0.00000,0.42300,0.47600,-1.30700,86.42000,0.25000
041225_02.03.27.425,-0.01500,0.00300,1.00400,0.10500,-0.14000,-0.01800,0.42800,0.47700,-1.30200,86.02000,-0.40000
041225_02.03.27.436,-0.01500,0.00300,1.00200,0.12300,-0.14000,0.00000,0.42500,0.47800,-1.30600,86.45000,0.43000
041225_02.03.27.448,-0.01400,0.00300,1.00300,0.12300,-0.14000,0.01800,0.42500,0.47800,-1.30600,86.26000,-0.19000
041225_02.03.27.459,-0.01500,0.00400,1.00300,0.12300,-0.14000,0.00000,0.43000,0.47700,-1.30800,86.30000,0.04000
041225_02.03.27.470,-0.01500,0.00400,1.00400,0.12300,-0.14000,0.01800,0.42500,0.47700,-1.30700,86.05000,-0.25000
041225_02.03.27.482,-0.01500,0.00200,1.00600,0.12300,-0.15700,0.01800,0.43000,0.47700,-1.30700,86.49000,0.44000
041225_02.03.27.493,-0.01500,0.00300,1.00500,0.10500,-0.14000,0.01800,0.42800,0.47800,-1.31100,85.90000,-0.59000
041225_02.03.27.505,-0.01600,0.00300,1.00300,0.10500,-0.14000,0.03500,0.42800,0.47800,-1.31100,86.72000,0.82000
041225_02.03.27.517,-0.01500,0.00400,1.00300,0.08700,-0.12300,0.03500,0.42000,0.47900,-1.31100,84.87000,-1.85000
041225_02.03.27.528,-0.01500,0.00400,1.00300,0.08700,-0.12300,0.03500,0.42600,0.47600,-1.30600,86.01000,1.14000
041225_02.03.27.539,-0.01600,0.00100,1.00300,0.08700,-0.12300,0.01800,0.42800,0.47400,-1.30300,85.75000,-0.26000
041225_02.03.27.551,-0.01700,0.00200,1.00100,0.05300,-0.10500,0.01800,0.42500,0.47300,-1.30000,86.04000,0.29000
041225_02.03.27.562,-0.01800,0.00300,1.00100,0.03500,-0.12300,0.01800,0.42500,0.47300,-1.30000,86.40000,0.36000
041225_02.03.27.574,-0.01500,0.00100,1.00100,0.03500,-0.10500,0.03500,0.42800,0.47100,-1.30100,86.01000,-0.39000
041225_02.03.27.585,-0.01800,0.00200,1.00000,0.05300,-0.08700,0.01800,0.42500,0.47300,-1.29900,86.36000,0.35000
041225_02.03.27.597,-0.01700,0.00100,1.00000,0.05300,-0.08700,0.00000,0.42500,0.47700,-1.30400,86.17000,-0.19000
041225_02.03.27.608,-0.01600,0.00100,1.00100,0.07000,-0.08700,0.01800,0.42500,0.47300,-1.30300,85.94000,-0.23000
041225_02.03.27.619,-0.01600,0.00000,1.00100,0.07000,-0.08700,0.01800,0.42100,0.47300,-1.30300,86.33000,0.39000
041225_02.03.27.631,-0.01600,0.00100,1.00000,0.05300,-0.10500,0.01800,0.42500,0.47100,-1.29200,86.76000,0.43000
041225_02.03.27.642,-0.01400,0.00100,1.00100,0.07000,-0.14000,0.01800,0.42800,0.47600,-1.30200,86.12000,-0.64000
041225_02.03.27.654,-0.01600,0.00100,1.00000,0.07000,-0.12300,0.00000,0.42600,0.47600,-1.30100,85.55000,-0.57000
041225_02.03.27.665,-0.01600,0.00200,1.00000,0.07000,-0.12300,0.00000,0.42600,0.47600,-1.30100,86.57000,1.02000
041225_02.03.27.676,-0.01700,0.00000,1.00100,0.08700,-0.10500,0.01800,0.42500,0.47600,-1.30000,86.06000,-0.51000
041225_02.03.27.688,-0.01700,0.00100,1.00100,0.08700,-0.14000,0.00000,0.42200,0.47200,-1.30100,86.09000,0.03000
041225_02.03.27.699,-0.01700,0.00100,1.00000,0.07000,-0.14000,0.01800,0.42200,0.47600,-1.30300,86.15000,0.06000
041225_02.03.27.711,-0.01700,0.00100,1.00200,0.10500,-0.12300,0.00000,0.42500,0.47600,-1.30600,86.43000,0.28000
041225_02.03.27.722,-0.01700,0.00200,1.00200,0.08700,-0.12300,-0.01800,0.42500,0.47600,-1.30600,86.29000,-0.14000
041225_02.03.27.733,-0.01800,0.00100,1.00200,0.10500,-0.14000,0.00000,0.42200,0.47200,-1.30100,85.88000,-0.41000
041225_02.03.27.745,-0.01700,0.00200,1.00300,0.08700,-0.14000,0.01800,0.42600,0.47400,-1.29900,85.92000,0.04000
041225_02.03.27.756,-0.01700,0.00200,1.00000,0.12300,-0.10500,0.00000,0.42700,0.47500,-1.30000,86.57000,0.65000
041225_02.03.27.768,-0.01600,0.00200,1.00200,0.12300,-0.14000,0.00000,0.42500,0.47500,-1.29700,86.22000,-0.35000
041225_02.03.27.779,-0.01600,0.00100,1.00200,0.10500,-0.14000,0.01800,0.42500,0.47500,-1.29700,85.99000,-0.23000
041225_02.03.27.791,-0.01700,0.00100,1.00300,0.08700,-0.12300,0.01800,0.42300,0.47800,-1.30000,85.79000,-0.20000
041225_02.03.27.802,-0.01500,0.00100,1.00200,0.12300,-0.08700,0.01800,0.42500,0.47300,-1.30300,85.59000,-0.20000
041225_02.03.27.813,-0.01500,0.00100,1.00200,0.10500,-0.10500,0.01800,0.42600,0.47300,-1.29800,86.35000,0.76000
041225_02.03.27.825,-0.01600,0.00300,1.00300,0.10500,-0.12300,0.01800,0.42700,0.47600,-1.29500,86.45000,0.10000
041225_02.03.27.836,-0.01600,0.00200,1.00200,0.10500,-0.12300,0.01800,0.42700,0.47600,-1.29500,86.38000,-0.07000
041225_02.03.27.848,-0.01700,0.00200,1.00100,0.10500,-0.12300,0.03500,0.42300,0.47500,-1.29800,86.68000,0.30000
041225_02.03.27.859,-0.01600,0.00300,1.00200,0.10500,-0.08700,0.03500,0.42500,0.47900,-1.30300,85.94000,-0.74000
041225_02.03.27.870,-0.01700,0.00300,1.00100,0.08700,-0.10500,0.01800,0.42200,0.47600,-1.30700,86.02000,0.08000
041225_02.03.27.882,-0.01600,0.00200,1.00100,0.07000,-0.10500,0.01800,0.42200,0.47600,-1.30700,85.86000,-0.16000
041225_02.03.27.893,-0.01700,0.00200,0.99900,0.08700,-0.12300,0.03500,0.42400,0.47100,-1.30700,86.25000,0.39000
041225_02.03.27.905,-0.01700,0.00400,1.00100,0.08700,-0.12300,0.03500,0.42700,0.47800,-1.30900,86.31000,0.06000
041225_02.03.27.916,-0.01800,0.00200,1.00100,0.10500,-0.12300,0.03500,0.42200,0.48100,-1.30200,86.20000,-0.11000
041225_02.03.27.927,-0.01700,0.00200,1.00300,0.10500,-0.14000,0.03500,0.42600,0.47900,-1.31000,85.94000,-0.26000
041225_02.03.27.939,-0.01800,0.00300,1.00200,0.10500,-0.15700,0.05300,0.42600,0.47900,-1.31000,86.71000,0.77000
041225_02.03.27.950,-0.01800,0.00300,1.00200,0.10500,-0.15700,0.03500,0.42200,0.47600,-1.30700,86.05000,-0.66000
041225_02.03.27.961,-0.01900,0.00300,1.00100,0.10500,-0.15700,0.01800,0.41800,0.47700,-1.30500,85.77000,-0.28000
041225_02.03.27.973,-0.01800,0.00300,1.00300,0.12300,-0.14000,0.01800,0.42200,0.47600,-1.30700,86.08000,0.31000
041225_02.03.27.984,-0.01800,0.00200,1.00000,0.10500,-0.14000,0.01800,0.42500,0.47900,-1.30700,85.81000,-0.27000
041225_02.03.27.996,-0.01900,0.00200,1.00000,0.10500,-0.15700,0.01800,0.42500,0.47900,-1.30700,86.13000,0.32000
041225_02.03.28.007,-0.01800,0.00200,1.00300,0.10500,-0.14000,0.01800,0.42500,0.47700,-1.30300,86.32000,0.19000
041225_02.03.28.018,-0.01700,0.00300,1.00000,0.10500,-0.14000,0.01800,0.42000,0.47500,-1.30700,85.91000,-0.41000
041225_02.03.28.030,-0.01600,0.00100,1.00000,0.08700,-0.12300,0.01800,0.42500,0.47500,-1.31200,86.25000,0.34000
041225_02.03.28.041,-0.01600,0.00100,1.00000,0.10500,-0.12300,0.00000,0.42700,0.47800,-1.30300,86.75000,0.50000
041225_02.03.28.053,-0.01700,0.00000,1.00200,0.10500,-0.14000,0.00000,0.42700,0.47800,-1.30300,85.76000,-0.99000
041225_02.03.28.064,-0.01500,0.00200,1.00200,0.12300,-0.12300,0.01800,0.42400,0.47600,-1.30800,86.27000,0.51000
041225_02.03.28.075,-0.01500,0.00100,1.00100,0.10500,-0.10500,0.00000,0.42300,0.47500,-1.30200,86.45000,0.18000
041225_02.03.28.087,-0.01600,0.00200,1.00200,0.08700,-0.10500,0.00000,0.42600,0.47500,-1.30100,86.26000,-0.19000
041225_02.03.28.098,-0.01400,0.00200,1.00300,0.08700,-0.08700,-0.01800,0.42600,0.47900,-1.31200,86.01000,-0.25000
041225_02.03.28.109,-0.01500,0.00100,1.00100,0.08700,-0.12300,-0.01800,0.42600,0.47900,-1.31200,85.86000,-0.15000
041225_02.03.28.121,-0.01500,0.00200,1.00200,0.08700,-0.12300,0.01800,0.42600,0.47800,-1.30400,86.22000,0.36000
041225_02.03.28.132,-0.01200,0.00200,1.00300,0.08700,-0.12300,0.03500,0.42800,0.47300,-1.30600,85.85000,-0.37000
041225_02.03.28.144,-0.01400,0.00200,1.00200,0.07000,-0.12300,0.00000,0.42400,0.47800,-1.30700,86.18000,0.33000
041225_02.03.28.155,-0.01600,0.00300,1.00300,0.08700,-0.10500,0.00000,0.42400,0.47800,-1.30700,85.82000,-0.36000
041225_02.03.28.167,-0.01600,0.00300,1.00200,0.08700,-0.10500,0.01800,0.42600,0.47500,-1.30400,86.32000,0.50000
041225_02.03.28.178,-0.01500,0.00300,1.00100,0.07000,-0.12300,0.01800,0.42700,0.47500,-1.31000,86.46000,0.14000
041225_02.03.28.189,-0.01600,0.00400,1.00200,0.08700,-0.10500,0.01800,0.42400,0.47400,-1.31200,85.79000,-0.67000
041225_02.03.28.201,-0.01600,0.00200,1.00100,0.10500,-0.08700,0.01800,0.42400,0.47300,-1.30900,86.59000,0.80000
041225_02.03.28.212,-0.01800,0.00200,1.00200,0.10500,-0.10500,0.01800,0.42400,0.47300,-1.30900,86.08000,-0.51000
041225_02.03.28.224,-0.01600,0.00000,1.00200,0.08700,-0.10500,0.03500,0.42200,0.47400,-1.31100,85.78000,-0.30000
041225_02.03.28.235,-0.01600,0.00200,1.00200,0.08700,-0.12300,0.03500,0.42700,0.47200,-1.30700,86.77000,0.99000
041225_02.03.28.246,-0.01600,0.00100,1.00300,0.10500,-0.12300,0.03500,0.42300,0.47800,-1.30700,86.88000,0.11000
041225_02.03.28.258,-0.01800,0.00100,1.00100,0.10500,-0.14000,0.03500,0.42500,0.47700,-1.30500,86.87000,-0.01000
041225_02.03.28.269,-0.01800,0.00200,1.00100,0.10500,-0.14000,0.03500,0.42500,0.47700,-1.30500,86.03000,-0.84000
041225_02.03.28.280,-0.01800,0.00100,1.00300,0.08700,-0.10500,0.01800,0.41900,0.47500,-1.30400,86.30000,0.27000
041225_02.03.28.292,-0.01800,0.00200,1.00100,0.08700,-0.12300,0.03500,0.42300,0.47800,-1.30600,86.07000,-0.23000
041225_02.03.28.303,-0.01900,0.00200,1.00200,0.08700,-0.12300,0.03500,0.42500,0.47600,-1.30100,85.77000,-0.30000
041225_02.03.28.315,-0.01800,0.00100,1.00100,0.08700,-0.10500,0.01800,0.42400,0.47400,-1.30500,86.46000,0.69000
041225_02.03.28.326,-0.01700,0.00100,1.00100,0.08700,-0.12300,0.01800,0.42400,0.47400,-1.30500,86.68000,0.22000
041225_02.03.28.337,-0.01600,0.00100,1.00100,0.08700,-0.12300,0.01800,0.42500,0.47700,-1.30600,86.54000,-0.14000
041225_02.03.28.349,-0.01600,0.00200,1.00200,0.08700,-0.12300,0.01800,0.42700,0.48000,-1.29600,85.73000,-0.81000
041225_02.03.28.360,-0.01700,0.00100,1.00100,0.10500,-0.12300,0.01800,0.42600,0.47500,-1.30200,86.38000,0.65000
041225_02.03.28.372,-0.01700,0.00100,1.00100,0.10500,-0.12300,0.00000,0.42600,0.47500,-1.30200,85.90000,-0.48000
041225_02.03.28.383,-0.01700,0.00300,1.00100,0.08700,-0.10500,0.00000,0.42700,0.47500,-1.30100,85.75000,-0.15000
041225_02.03.28.394,-0.01600,0.00200,1.00100,0.08700,-0.10500,0.00000,0.42700,0.47200,-1.30000,85.81000,0.06000
041225_02.03.28.406,-0.01500,0.00300,1.00100,0.10500,-0.12300,0.01800,0.42400,0.47600,-1.30000,86.44000,0.63000
041225_02.03.28.417,-0.01500,0.00200,1.00200,0.08700,-0.14000,0.01800,0.42600,0.48100,-1.29800,86.05000,-0.39000
041225_02.03.28.429,-0.01500,0.00300,1.00100,0.08700,-0.12300,0.01800,0.42600,0.48100,-1.29800,86.48000,0.43000
041225_02.03.28.440,-0.01600,0.00300,1.00100,0.12300,-0.12300,0.00000,0.42600,0.47600,-1.29800,85.93000,-0.55000
041225_02.03.28.451,-0.01600,0.00300,1.00100,0.10500,-0.14000,0.03500,0.42400,0.47600,-1.29500,86.55000,0.62000
041225_02.03.28.463,-0.01500,0.00200,1.00100,0.08700,-0.12300,0.00000,0.42200,0.48100,-1.29900,86.06000,-0.49000
041225_02.03.28.474,-0.01600,0.00200,1.00200,0.08700,-0.12300,0.00000,0.42500,0.47700,-1.30600,86.11000,0.05000
041225_02.03.28.486,-0.01700,0.00200,1.00200,0.08700,-0.10500,0.03500,0.42500,0.47700,-1.30600,86.47000,0.36000
041225_02.03.28.497,-0.01500,0.00200,1.00100,0.08700,-0.10500,0.03500,0.42400,0.47900,-1.30300,85.63000,-0.84000
041225_02.03.28.509,-0.01600,0.00100,1.00100,0.10500,-0.08700,0.01800,0.41700,0.47700,-1.30300,86.18000,0.55000
041225_02.03.28.520,-0.01700,0.00100,1.00200,0.10500,-0.10500,0.01800,0.41900,0.47900,-1.30400,86.15000,-0.03000
041225_02.03.28.531,-0.01700,0.00100,1.00200,0.10500,-0.08700,0.01800,0.42200,0.48100,-1.30400,86.21000,0.06000
041225_02.03.28.543,-0.01700,0.00200,1.00100,0.08700,-0.10500,0.01800,0.42200,0.48100,-1.30400,85.84000,-0.37000
041225_02.03.28.554,-0.01600,0.00200,1.00200,0.07000,-0.10500,0.01800,0.42300,0.47800,-1.30200,85.62000,-0.22000
041225_02.03.28.566,-0.01500,0.00100,1.00200,0.08700,-0.10500,0.03500,0.42100,0.47800,-1.30200,86.61000,0.99000
041225_02.03.28.577,-0.01600,0.00200,1.00100,0.10500,-0.12300,0.01800,0.42000,0.48000,-1.29900,86.04000,-0.57000
041225_02.03.28.588,-0.01600,0.00200,1.00200,0.08700,-0.14000,0.01800,0.42000,0.47900,-1.30300,86.70000,0.66000
041225_02.03.28.600,-0.01700,0.00100,1.00300,0.08700,-0.14000,0.03500,0.42400,0.47900,-1.30300,86.98000,0.28000
041225_02.03.28.611,-0.01600,0.00200,1.00100,0.10500,-0.14000,0.03500,0.42800,0.47800,-1.30600,85.96000,-1.02000
041225_02.03.28.622,-0.01700,0.00300,1.00100,0.12300,-0.12300,0.00000,0.42400,0.47700,-1.29800,86.23000,0.27000
041225_02.03.28.634,-0.01900,0.00200,1.00300,0.10500,-0.12300,0.01800,0.42700,0.47600,-1.30200,86.19000,-0.04000
041225_02.03.28.645,-0.01800,0.00100,1.00300,0.10500,-0.14000,0.03500,0.42700,0.47600,-1.30200,86.03000,-0.16000
041225_02.03.28.657,-0.01800,0.00300,1.00300,0.10500,-0.14000,0.01800,0.42300,0.48100,-1.29500,86.00000,-0.03000
041225_02.03.28.668,-0.01700,0.00100,1.00200,0.08700,-0.12300,0.01800,0.42900,0.47700,-1.29900,86.26000,0.26000
041225_02.03.28.680,-0.01700,0.00000,1.00100,0.08700,-0.12300,0.03500,0.43000,0.47600,-1.30000,86.34000,0.08000
041225_02.03.28.691,-0.01700,0.00200,1.00100,0.10500,-0.10500,0.01800,0.42700,0.47400,-1.30400,86.52000,0.18000
041225_02.03.28.702,-0.01700,0.00200,1.00200,0.10500,-0.12300,0.00000,0.42700,0.47400,-1.30400,85.81000,-0.71000
041225_02.03.28.714,-0.01700,0.00000,1.00100,0.12300,-0.10500,0.00000,0.42500,0.47900,-1.30000,85.63000,-0.18000
041225_02.03.28.725,-0.01700,0.00100,1.00200,0.10500,-0.10500,0.01800,0.42900,0.47600,-1.29700,86.21000,0.58000
041225_02.03.28.737,-0.01700,0.00100,1.00000,0.10500,-0.08700,0.01800,0.43000,0.48000,-1.29600,86.73000,0.52000
041225_02.03.28.748,-0.01800,0.00300,1.00200,0.10500,-0.10500,0.01800,0.42900,0.47800,-1.30200,86.24000,-0.49000
041225_02.03.28.759,-0.01700,0.00200,1.00200,0.10500,-0.08700,0.00000,0.42900,0.47800,-1.30200,86.01000,-0.23000
041225_02.03.28.771,-0.01700,0.00100,1.00100,0.10500,-0.10500,0.00000,0.42400,0.47700,-1.29800,86.97000,0.96000
041225_02.03.28.782,-0.01800,0.00100,1.00100,0.08700,-0.12300,0.01800,0.42300,0.47700,-1.30200,86.29000,-0.68000
041225_02.03.28.794,-0.01700,0.00200,1.00200,0.07000,-0.10500,-0.01800,0.42000,0.47900,-1.29700,86.33000,0.04000
041225_02.03.28.805,-0.01500,0.00200,1.00200,0.07000,-0.14000,0.00000,0.42500,0.47500,-1.30000,86.57000,0.24000
041225_02.03.28.816,-0.01600,0.00200,1.00100,0.07000,-0.14000,0.00000,0.42500,0.47500,-1.30000,86.15000,-0.42000
041225_02.03.28.828,-0.01600,0.00200,1.00200,0.10500,-0.12300,0.01800,0.42500,0.47600,-1.30100,85.98000,-0.17000
041225_02.03.28.839,-0.01500,0.00300,1.00200,0.08700,-0.12300,0.00000,0.42100,0.47800,-1.30600,86.44000,0.46000
041225_02.03.28.851,-0.01400,0.00300,1.00000,0.07000,-0.14000,0.01800,0.42400,0.47800,-1.30600,86.19000,-0.25000
041225_02.03.28.862,-0.01500,0.00200,1.00200,0.08700,-0.14000,0.00000,0.42400,0.47800,-1.30600,86.14000,-0.05000
041225_02.03.28.873,-0.01500,0.00200,1.00100,0.08700,-0.12300,0.00000,0.42200,0.47600,-1.30300,86.40000,0.26000
041225_02.03.28.885,-0.01600,0.00200,1.00000,0.10500,-0.12300,0.01800,0.42400,0.47800,-1.30000,86.05000,-0.35000
041225_02.03.28.896,-0.01600,0.00200,1.00100,0.10500,-0.12300,0.03500,0.43000,0.48300,-1.31300,86.44000,0.39000
041225_02.03.28.908,-0.01500,0.00300,1.00100,0.08700,-0.12300,0.01800,0.42700,0.48100,-1.30400,86.57000,0.13000
041225_02.03.28.919,-0.01500,0.00300,1.00100,0.07000,-0.10500,0.01800,0.42700,0.48100,-1.30400,86.78000,0.21000
041225_02.03.28.930,-0.01600,0.00100,1.00000,0.12300,-0.10500,0.03500,0.42200,0.47700,-1.29900,86.58000,-0.20000
041225_02.03.28.942,-0.01600,0.00200,1.00100,0.10500,-0.14000,0.03500,0.41800,0.47800,-1.29600,86.43000,-0.15000
041225_02.03.28.953,-0.01600,0.00200,1.00200,0.08700,-0.14000,0.03500,0.42100,0.47800,-1.29800,86.25000,-0.18000
041225_02.03.28.965,-0.01700,0.00200,1.00100,0.10500,-0.10500,0.05300,0.41900,0.47400,-1.29700,86.35000,0.10000
041225_02.03.28.976,-0.01700,0.00000,1.00300,0.08700,-0.10500,0.05300,0.41900,0.47400,-1.29700,87.03000,0.68000
041225_02.03.28.987,-0.01800,0.00100,1.00300,0.08700,-0.10500,0.03500,0.41800,0.47600,-1.30600,86.32000,-0.71000
041225_02.03.28.999,-0.01800,0.00100,1.00200,0.08700,-0.10500,0.01800,0.42200,0.47600,-1.29900,85.72000,-0.60000
041225_02.03.29.010,-0.01800,0.00100,1.00100,0.08700,-0.12300,0.01800,0.42400,0.47000,-1.30300,86.23000,0.51000
041225_02.03.29.022,-0.01800,0.00100,1.00100,0.10500,-0.10500,0.00000,0.41900,0.47500,-1.29200,86.26000,0.03000
041225_02.03.29.033,-0.01700,0.00100,1.00200,0.08700,-0.14000,0.01800,0.41900,0.47500,-1.29200,85.90000,-0.36000
041225_02.03.29.044,-0.01800,0.00200,1.00200,0.10500,-0.12300,0.01800,0.42100,0.47700,-1.29700,86.77000,0.87000
041225_02.03.29.056,-0.01800,0.00200,1.00100,0.10500,-0.12300,0.00000,0.42100,0.47800,-1.29600,86.06000,-0.71000
041225_02.03.29.067,-0.01700,0.00200,1.00200,0.08700,-0.12300,-0.01800,0.42100,0.47500,-1.30500,86.80000,0.74000
041225_02.03.29.079,-0.01700,0.00100,1.00100,0.10500,-0.14000,0.01800,0.42100,0.47500,-1.29600,86.28000,-0.52000
041225_02.03.29.090,-0.01800,0.00100,1.00100,0.08700,-0.14000,0.00000,0.42300,0.47800,-1.29600,86.81000,0.53000
041225_02.03.29.101,-0.01800,0.00200,1.00100,0.08700,-0.14000,0.01800,0.42200,0.47800,-1.29800,86.27000,-0.54000
041225_02.03.29.113,-0.01600,0.00200,1.00000,0.08700,-0.14000,0.01800,0.42400,0.47700,-1.30200,86.36000,0.09000
041225_02.03.29.124,-0.01700,0.00200,1.00100,0.10500,-0.10500,0.01800,0.42100,0.47500,-1.30600,86.49000,0.13000
041225_02.03.29.135,-0.01700,0.00200,1.00200,0.10500,-0.12300,0.00000,0.42100,0.47500,-1.30600,86.59000,0.10000
041225_02.03.29.147,-0.01800,0.00100,1.00200,0.10500,-0.14000,0.00000,0.41800,0.47400,-1.29700,86.41000,-0.18000
041225_02.03.29.158,-0.01600,0.00200,1.00200,0.10500,-0.12300,0.00000,0.42100,0.47700,-1.30000,86.58000,0.17000
041225_02.03.29.170,-0.01500,0.00300,1.00100,0.12300,-0.12300,0.00000,0.42300,0.47700,-1.30000,86.17000,-0.41000
041225_02.03.29.181,-0.01400,0.00200,1.00200,0.08700,-0.12300,-0.01800,0.42300,0.47400,-1.29700,85.91000,-0.26000
041225_02.03.29.192,-0.01400,0.00200,1.00200,0.07000,-0.14000,0.00000,0.42300,0.47400,-1.29700,86.17000,0.26000
041225_02.03.29.204,-0.01500,0.00200,1.00200,0.10500,-0.14000,0.01800,0.42300,0.47700,-1.30400,86.10000,-0.07000
041225_02.03.29.215,-0.01500,0.00300,1.00400,0.10500,-0.14000,0.01800,0.42600,0.47600,-1.30600,85.91000,-0.19000
041225_02.03.29.226,-0.01500,0.00300,1.00200,0.05300,-0.10500,0.01800,0.42300,0.48100,-1.30400,85.90000,-0.01000
041225_02.03.29.238,-0.01500,0.00200,1.00200,0.10500,-0.12300,0.00000,0.42200,0.47500,-1.30200,86.62000,0.72000
041225_02.03.29.249,-0.01600,0.00100,1.00300,0.10500,-0.10500,0.01800,0.42200,0.47500,-1.30200,86.17000,-0.45000
041225_02.03.29.261,-0.01700,0.00100,1.00300,0.10500,-0.12300,0.01800,0.42700,0.47700,-1.30300,86.51000,0.34000
041225_02.03.29.272,-0.01600,0.00200,1.00400,0.07000,-0.12300,0.00000,0.42300,0.47500,-1.30200,85.84000,-0.67000
041225_02.03.29.283,-0.01400,0.00400,1.00100,0.07000,-0.10500,0.00000,0.42000,0.47600,-1.30000,86.14000,0.30000
041225_02.03.29.295,-0.01400,0.00300,1.00400,0.07000,-0.12300,0.01800,0.42200,0.47300,-1.30300,86.52000,0.38000
041225_02.03.29.306,-0.01600,0.00100,1.00500,0.07000,-0.12300,0.01800,0.42200,0.47300,-1.30300,86.06000,-0.46000
041225_02.03.29.318,-0.01600,0.00100,1.00300,0.05300,-0.14000,0.01800,0.41800,0.47600,-1.30400,86.14000,0.08000
041225_02.03.29.329,-0.01400,0.00200,0.99900,0.07000,-0.12300,0.01800,0.42300,0.47700,-1.30100,86.58000,0.44000
041225_02.03.29.340,-0.01400,0.00200,1.00400,0.07000,-0.12300,0.03500,0.42100,0.47800,-1.30500,86.56000,-0.02000
041225_02.03.29.352,-0.01300,0.00200,1.00200,0.05300,-0.12300,0.01800,0.42100,0.47800,-1.30500,86.63000,0.07000
041225_02.03.29.363,-0.02000,0.00100,1.00700,0.07000,-0.08700,0.01800,0.42300,0.47400,-1.30500,85.77000,-0.86000
041225_02.03.29.375,-0.02000,0.00100,0.99600,0.07000,-0.08700,0.01800,0.42400,0.47600,-1.30500,86.04000,0.27000
041225_02.03.29.386,-0.02000,0.00100,1.00300,0.08700,-0.15700,0.01800,0.42500,0.47600,-1.29700,85.15000,-0.89000
041225_02.03.29.397,-0.01600,0.00300,1.00200,0.08700,-0.14000,0.01800,0.42400,0.47600,-1.29700,86.08000,0.93000
041225_02.03.29.409,-0.01600,0.00000,1.00100,0.07000,-0.10500,0.01800,0.42400,0.47600,-1.29700,86.22000,0.14000
041225_02.03.29.420,-0.01600,0.00000,0.99800,0.08700,-0.14000,0.01800,0.42500,0.47800,-1.29200,86.30000,0.08000
041225_02.03.29.432,-0.01800,0.00400,1.00300,0.08700,-0.15700,0.01800,0.43000,0.47600,-1.29600,85.81000,-0.49000
041225_02.03.29.443,-0.01600,0.00200,0.99800,0.07000,-0.15700,0.00000,0.42600,0.47800,-1.29700,86.50000,0.69000
041225_02.03.29.454,-0.01400,0.00100,0.99800,0.10500,-0.10500,0.01800,0.42300,0.47200,-1.29600,86.50000,0.00000
041225_02.03.29.466,-0.01500,0.00200,1.00100,0.10500,-0.12300,0.01800,0.42300,0.47200,-1.29600,85.86000,-0.64000
041225_02.03.29.477,-0.01600,0.00100,1.00000,0.08700,-0.12300,0.01800,0.42300,0.47800,-1.30000,86.24000,0.38000
041225_02.03.29.489,-0.01900,0.00100,1.00300,0.08700,-0.10500,0.00000,0.42500,0.47400,-1.29200,86.59000,0.35000
041225_02.03.29.500,-0.01800,0.00300,1.00300,0.10500,-0.12300,0.00000,0.42700,0.47700,-1.29600,86.06000,-0.53000
041225_02.03.29.511,-0.01700,0.00200,0.99700,0.08700,-0.15700,0.00000,0.42700,0.47600,-1.29900,85.90000,-0.16000
041225_02.03.29.523,-0.01400,0.00100,0.99900,0.10500,-0.14000,-0.01800,0.42700,0.47600,-1.29900,86.01000,0.11000
041225_02.03.29.534,-0.01600,0.00100,1.00600,0.12300,-0.12300,0.01800,0.42500,0.47800,-1.30400,86.32000,0.31000
041225_02.03.29.546,-0.01700,0.00300,1.00100,0.08700,-0.12300,0.00000,0.42400,0.47900,-1.30300,86.20000,-0.12000
041225_02.03.29.557,-0.01700,0.00200,1.00000,0.07000,-0.14000,0.01800,0.42000,0.47500,-1.30300,86.02000,-0.18000
041225_02.03.29.568,-0.01600,0.00200,1.00200,0.10500,-0.14000,0.00000,0.42000,0.47500,-1.30000,86.14000,0.12000
041225_02.03.29.580,-0.01500,0.00200,1.00200,0.08700,-0.12300,0.01800,0.42600,0.47600,-1.30000,86.31000,0.17000
041225_02.03.29.591,-0.01500,0.00300,1.00100,0.08700,-0.10500,0.01800,0.42700,0.47900,-1.30100,86.09000,-0.22000
041225_02.03.29.602,-0.01600,0.00200,1.00200,0.07000,-0.12300,0.00000,0.42500,0.48000,-1.30400,86.34000,0.25000
041225_02.03.29.614,-0.01700,0.00200,1.00100,0.07000,-0.10500,0.01800,0.42300,0.47500,-1.30500,86.16000,-0.18000
041225_02.03.29.625,-0.01600,0.00200,1.00000,0.08700,-0.12300,0.00000,0.42300,0.47500,-1.30500,86.66000,0.50000
041225_02.03.29.637,-0.01700,0.00300,1.00100,0.08700,-0.10500,0.01800,0.42300,0.48000,-1.30100,85.93000,-0.73000
041225_02.03.29.648,-0.01700,0.00100,1.00300,0.07000,-0.12300,0.01800,0.42300,0.48000,-1.30100,86.27000,0.34000
041225_02.03.29.659,-0.01700,0.00400,1.00300,0.08700,-0.12300,0.01800,0.42300,0.47800,-1.30200,86.75000,0.48000
041225_02.03.29.671,-0.01500,0.00300,1.00100,0.05300,-0.14000,0.01800,0.42400,0.47800,-1.31100,86.15000,-0.60000
041225_02.03.29.682,-0.01600,0.00200,1.00000,0.05300,-0.12300,0.01800,0.42400,0.47800,-1.31100,85.66000,-0.49000
041225_02.03.29.694,-0.01700,0.00200,1.00000,0.07000,-0.12300,0.01800,0.42600,0.48200,-1.30500,85.88000,0.22000
041225_02.03.29.705,-0.01600,0.00200,1.00300,0.08700,-0.10500,0.00000,0.42500,0.48000,-1.30300,86.82000,0.94000
041225_02.03.29.716,-0.01700,0.00300,1.00100,0.07000,-0.12300,-0.01800,0.42900,0.48100,-1.30300,86.41000,-0.41000
041225_02.03.29.728,-0.01800,0.00200,1.00100,0.05300,-0.10500,0.00000,0.42900,0.47900,-1.30900,85.93000,-0.48000
041225_02.03.29.739,-0.01800,0.00200,1.00300,0.07000,-0.12300,0.01800,0.42900,0.47900,-1.30900,86.35000,0.42000
041225_02.03.29.751,-0.01700,0.00300,1.00100,0.10500,-0.12300,0.00000,0.43100,0.48100,-1.31000,86.08000,-0.27000
041225_02.03.29.762,-0.01700,0.00200,1.00300,0.07000,-0.12300,0.01800,0.42800,0.47900,-1.31400,85.93000,-0.15000
041225_02.03.29.773,-0.01800,0.00300,1.00200,0.08700,-0.12300,0.00000,0.43400,0.48000,-1.30300,87.17000,1.24000
041225_02.03.29.785,-0.01800,0.00100,1.00000,0.07000,-0.12300,0.01800,0.43400,0.48200,-1.31500,86.45000,-0.72000
041225_02.03.29.796,-0.01500,0.00100,1.00100,0.08700,-0.14000,0.01800,0.42700,0.48200,-1.31500,86.11000,-0.34000
041225_02.03.29.808,-0.01800,0.00200,1.00100,0.08700,-0.12300,0.01800,0.43700,0.48300,-1.31800,86.36000,0.25000
041225_02.03.29.819,-0.01500,0.00100,1.00300,0.08700,-0.14000,0.00000,0.43700,0.48200,-1.31700,86.43000,0.07000
041225_02.03.29.830,-0.01700,0.00200,1.00200,0.08700,-0.15700,0.00000,0.43600,0.48300,-1.30800,86.36000,-0.07000
041225_02.03.29.842,-0.01800,0.00200,1.00300,0.08700,-0.14000,0.00000,0.43600,0.48300,-1.30800,86.25000,-0.11000
041225_02.03.29.853,-0.01700,0.00200,1.00000,0.10500,-0.14000,0.00000,0.43300,0.47700,-1.31200,86.70000,0.45000
041225_02.03.29.865,-0.01600,0.00200,1.00200,0.07000,-0.12300,0.00000,0.43500,0.47800,-1.31300,86.63000,-0.07000
041225_02.03.29.876,-0.01700,0.00300,1.00100,0.07000,-0.10500,0.00000,0.43200,0.48100,-1.30700,86.48000,-0.15000
041225_02.03.29.887,-0.01500,0.00200,1.00000,0.08700,-0.14000,0.01800,0.43100,0.47800,-1.30300,86.14000,-0.34000
041225_02.03.29.899,-0.01700,0.00100,1.00100,0.08700,-0.14000,0.03500,0.43100,0.47800,-1.30300,85.46000,-0.68000
041225_02.03.29.910,-0.01600,-0.00000,1.00100,0.08700,-0.14000,0.00000,0.43100,0.47800,-1.30800,85.96000,0.50000
041225_02.03.29.921,-0.01500,0.00100,1.00200,0.07000,-0.14000,0.00000,0.43700,0.48300,-1.31100,86.31000,0.35000
041225_02.03.29.933,-0.01600,0.00300,1.00000,0.07000,-0.12300,0.01800,0.43600,0.47900,-1.31000,86.21000,-0.10000
041225_02.03.29.944,-0.01600,0.00200,0.99900,0.10500,-0.12300,0.00000,0.43600,0.48200,-1.31300,86.14000,-0.07000
041225_02.03.29.956,-0.01700,0.00000,1.00200,0.10500,-0.15700,0.00000,0.43600,0.48200,-1.31300,85.72000,-0.42000
041225_02.03.29.967,-0.01600,0.00200,1.00300,0.12300,-0.15700,0.00000,0.44900,0.48600,-1.32500,86.01000,0.29000
041225_02.03.29.978,-0.01500,0.00100,1.00000,0.08700,-0.12300,0.01800,0.43400,0.48000,-1.31000,86.72000,0.71000
041225_02.03.29.990,-0.01500,0.00100,0.99700,0.10500,-0.14000,0.03500,0.43300,0.48100,-1.32500,86.06000,-0.66000
041225_02.03.30.001,-0.01300,0.00100,1.00000,0.08700,-0.14000,0.01800,0.43800,0.48100,-1.31700,86.04000,-0.02000
041225_02.03.30.013,-0.01600,0.00200,1.00200,0.10500,-0.14000,0.03500,0.43800,0.48100,-1.31700,85.83000,-0.21000
041225_02.03.30.024,-0.01700,0.00300,1.00100,0.12300,-0.10500,0.03500,0.42800,0.48500,-1.30500,86.02000,0.19000
041225_02.03.30.035,-0.01500,0.00200,1.00000,0.10500,-0.12300,0.01800,0.43200,0.48100,-1.30700,86.24000,0.22000
041225_02.03.30.047,-0.01800,0.00300,1.00300,0.08700,-0.14000,0.03500,0.42800,0.48100,-1.31200,86.37000,0.13000
041225_02.03.30.058,-0.01900,0.00400,1.00100,0.10500,-0.12300,0.03500,0.42800,0.48100,-1.31200,86.36000,-0.01000
041225_02.03.30.070,-0.01700,0.00200,1.00100,0.08700,-0.12300,0.03500,0.43500,0.47900,-1.32900,86.51000,0.15000
041225_02.03.30.081,-0.01900,0.00200,1.00100,0.08700,-0.10500,0.03500,0.43900,0.48400,-1.31400,85.98000,-0.53000
041225_02.03.30.092,-0.01800,0.00300,1.00200,0.10500,-0.14000,0.03500,0.42900,0.47900,-1.31300,86.52000,0.54000
041225_02.03.30.104,-0.01600,0.00400,1.00500,0.10500,-0.14000,0.03500,0.43400,0.47900,-1.31000,85.51000,-1.01000
041225_02.03.30.115,-0.01600,0.00300,1.00200,0.10500,-0.14000,0.01800,0.43400,0.47900,-1.31000,86.50000,0.99000
041225_02.03.30.127,-0.01500,0.00200,1.00100,0.10500,-0.12300,0.00000,0.43300,0.48200,-1.31700,85.70000,-0.80000
041225_02.03.30.138,-0.01500,0.00200,1.00200,0.08700,-0.14000,0.01800,0.43200,0.48100,-1.31400,85.77000,0.07000
041225_02.03.30.150,-0.01600,0.00400,1.00300,0.10500,-0.12300,0.01800,0.43800,0.48000,-1.32400,86.17000,0.40000
041225_02.03.30.161,-0.01700,0.00200,1.00100,0.07000,-0.10500,0.01800,0.43800,0.48000,-1.31400,85.99000,-0.18000
041225_02.03.30.173,-0.01600,0.00100,1.00200,0.07000,-0.14000,0.01800,0.43800,0.48000,-1.31400,86.41000,0.42000
041225_02.03.30.184,-0.01500,0.00200,1.00200,0.08700,-0.12300,0.01800,0.43300,0.47900,-1.32000,86.28000,-0.13000
041225_02.03.30.195,-0.01500,0.00200,1.00200,0.07000,-0.10500,0.01800,0.43100,0.48000,-1.31300,86.33000,0.05000
041225_02.03.30.207,-0.01800,0.00100,1.00400,0.07000,-0.10500,0.01800,0.43100,0.48200,-1.31500,86.61000,0.28000
041225_02.03.30.218,-0.01600,0.00200,1.00000,0.07000,-0.14000,0.03500,0.43800,0.48000,-1.31900,86.23000,-0.38000
041225_02.03.30.230,-0.01400,0.00200,1.00200,0.07000,-0.15700,0.01800,0.43800,0.48000,-1.31900,86.46000,0.23000
041225_02.03.30.241,-0.01600,0.00100,0.99900,0.03500,-0.10500,0.00000,0.43400,0.47600,-1.31500,86.54000,0.08000
041225_02.03.30.253,-0.01500,0.00200,1.00100,0.05300,-0.12300,0.01800,0.43500,0.47700,-1.31600,86.23000,-0.31000
041225_02.03.30.264,-0.01600,0.00300,1.00100,0.05300,-0.10500,0.00000,0.43700,0.48200,-1.31600,85.55000,-0.68000
041225_02.03.30.276,-0.01500,-0.00000,1.00100,0.05300,-0.12300,-0.01800,0.43700,0.47900,-1.31600,86.78000,1.23000
041225_02.03.30.287,-0.01600,0.00200,1.00200,0.07000,-0.14000,0.00000,0.43300,0.47900,-1.31600,86.48000,-0.30000
041225_02.03.30.298,-0.01600,0.00100,1.00200,0.10500,-0.14000,0.01800,0.43300,0.48200,-1.33000,86.07000,-0.41000
041225_02.03.30.310,-0.01600,0.00200,1.00100,0.08700,-0.12300,0.01800,0.43200,0.48200,-1.31800,86.51000,0.44000
041225_02.03.30.321,-0.01700,0.00000,1.00100,0.08700,-0.12300,0.01800,0.43700,0.48200,-1.31300,86.69000,0.18000
041225_02.03.30.333,-0.01600,0.00200,1.00200,0.08700,-0.14000,0.01800,0.43700,0.48200,-1.31300,85.94000,-0.75000
041225_02.03.30.344,-0.01600,0.00100,1.00200,0.07000,-0.12300,0.01800,0.43300,0.48100,-1.32100,86.56000,0.62000
041225_02.03.30.356,-0.01700,0.00100,1.00000,0.08700,-0.10500,-0.01800,0.44500,0.48100,-1.32600,86.40000,-0.16000
041225_02.03.30.367,-0.01600,0.00200,1.00000,0.07000,-0.10500,0.00000,0.43700,0.48300,-1.31200,86.59000,0.19000
041225_02.03.30.379,-0.01500,0.00100,1.00100,0.08700,-0.12300,0.00000,0.43600,0.48400,-1.31700,85.72000,-0.87000
041225_02.03.30.390,-0.01800,0.00100,1.00200,0.08700,-0.08700,0.00000,0.43600,0.48400,-1.31700,86.18000,0.46000
041225_02.03.30.402,-0.01800,-0.00000,1.00100,0.10500,-0.10500,0.01800,0.43400,0.48600,-1.31600,86.27000,0.09000
041225_02.03.30.413,-0.01800,0.00200,1.00100,0.08700,-0.12300,0.01800,0.43100,0.47800,-1.31300,86.82000,0.55000
041225_02.03.30.425,-0.01700,0.00300,1.00000,0.10500,-0.12300,0.03500,0.43700,0.47700,-1.31900,86.39000,-0.43000
041225_02.03.30.436,-0.01700,0.00200,1.00300,0.08700,-0.12300,0.03500,0.43600,0.47700,-1.32100,85.97000,-0.42000
041225_02.03.30.447,-0.01800,0.00200,1.00300,0.10500,-0.12300,0.01800,0.43600,0.47700,-1.32100,85.75000,-0.22000
041225_02.03.30.459,-0.01800,0.00200,0.99900,0.08700,-0.12300,0.01800,0.43100,0.48000,-1.31500,86.30000,0.55000
041225_02.03.30.470,-0.01500,0.00400,1.00200,0.10500,-0.15700,0.03500,0.44100,0.48300,-1.31400,86.33000,0.03000
041225_02.03.30.482,-0.01500,0.00300,1.00400,0.10500,-0.14000,0.01800,0.43900,0.47900,-1.31300,86.46000,0.13000
041225_02.03.30.493,-0.01700,0.00200,1.00000,0.10500,-0.14000,0.00000,0.43300,0.48200,-1.31400,86.25000,-0.21000
041225_02.03.30.505,-0.01600,0.00300,1.00100,0.10500,-0.12300,0.01800,0.43300,0.48200,-1.31400,86.58000,0.33000
041225_02.03.30.516,-0.01700,0.00400,1.00100,0.10500,-0.12300,0.03500,0.43900,0.48000,-1.32400,86.41000,-0.17000
041225_02.03.30.528,-0.01700,0.00300,1.00500,0.10500,-0.14000,0.01800,0.43900,0.48000,-1.31900,86.16000,-0.25000
041225_02.03.30.539,-0.01500,0.00300,1.00100,0.08700,-0.14000,0.01800,0.43100,0.48100,-1.31200,85.55000,-0.61000
041225_02.03.30.551,-0.01600,0.00300,1.00300,0.08700,-0.14000,0.01800,0.43100,0.48100,-1.31200,86.18000,0.63000
041225_02.03.30.562,-0.01700,0.00400,1.00200,0.08700,-0.12300,0.01800,0.43200,0.47700,-1.32100,86.55000,0.37000
041225_02.03.30.573,-0.01500,0.00300,1.00200,0.08700,-0.12300,0.00000,0.43700,0.48100,-1.31500,86.06000,-0.49000
041225_02.03.30.585,-0.01500,0.00300,1.00200,0.07000,-0.14000,0.00000,0.43600,0.47500,-1.31200,86.18000,0.12000
041225_02.03.30.596,-0.01500,0.00300,1.00000,0.05300,-0.14000,0.01800,0.43900,0.47800,-1.31200,86.26000,0.08000
041225_02.03.30.608,-0.01600,0.00100,1.00100,0.08700,-0.10500,0.01800,0.43900,0.47800,-1.31200,86.36000,0.10000
041225_02.03.30.619,-0.01600,0.00200,1.00300,0.08700,-0.12300,0.00000,0.43600,0.47800,-1.31400,85.75000,-0.61000
041225_02.03.30.631,-0.01600,0.00200,1.00200,0.07000,-0.10500,0.03500,0.43600,0.48300,-1.31300,86.06000,0.31000
041225_02.03.30.642,-0.01500,0.00100,1.00100,0.07000,-0.14000,-0.01800,0.43500,0.47800,-1.30900,86.09000,0.03000
041225_02.03.30.654,-0.01500,0.00000,1.00000,0.10500,-0.10500,0.00000,0.44100,0.48200,-1.31500,86.09000,0.00000
041225_02.03.30.665,-0.01700,0.00200,1.00300,0.08700,-0.12300,0.00000,0.44100,0.48200,-1.31500,85.99000,-0.10000
041225_02.03.30.677,-0.01800,0.00200,1.00100,0.07000,-0.12300,0.01800,0.43800,0.47900,-1.31000,85.77000,-0.22000
041225_02.03.30.688,-0.01700,0.00000,1.00100,0.07000,-0.15700,0.00000,0.43600,0.48300,-1.31300,85.58000,-0.19000
041225_02.03.30.700,-0.01400,0.00000,1.00000,0.10500,-0.12300,0.00000,0.43800,0.48300,-1.31200,86.59000,1.01000
041225_02.03.30.711,-0.01500,-0.00100,1.00400,0.10500,-0.10500,0.00000,0.43900,0.48500,-1.32000,85.81000,-0.78000
041225_02.03.30.722,-0.01600,0.00100,1.00200,0.08700,-0.10500,0.01800,0.43900,0.48500,-1.32000,86.03000,0.22000
041225_02.03.30.734,-0.01700,0.00100,1.00100,0.08700,-0.10500,0.01800,0.44100,0.48600,-1.31700,85.39000,-0.64000
041225_02.03.30.745,-0.01600,0.00000,1.00200,0.12300,-0.08700,0.03500,0.44200,0.48100,-1.32600,86.49000,1.10000
041225_02.03.30.757,-0.01500,0.00000,1.00100,0.10500,-0.10500,0.01800,0.44300,0.47600,-1.31800,86.35000,-0.14000
041225_02.03.30.768,-0.01600,0.00100,1.00300,0.10500,-0.12300,0.01800,0.44300,0.47600,-1.31800,86.37000,0.02000
041225_02.03.30.780,-0.01700,0.00000,1.00300,0.10500,-0.08700,0.01800,0.43900,0.48300,-1.31800,86.29000,-0.08000
041225_02.03.30.791,-0.01600,0.00000,1.00100,0.08700,-0.08700,0.01800,0.44000,0.48100,-1.31100,85.38000,-0.91000
041225_02.03.30.803,-0.01600,0.00200,1.00200,0.07000,-0.08700,0.03500,0.43800,0.47800,-1.30900,86.51000,1.13000
041225_02.03.30.814,-0.01500,0.00200,1.00100,0.08700,-0.10500,0.03500,0.43900,0.48100,-1.31400,86.53000,0.02000
041225_02.03.30.825,-0.01700,0.00100,1.00200,0.08700,-0.12300,0.01800,0.43900,0.48100,-1.31400,86.37000,-0.16000
041225_02.03.30.837,-0.01700,0.00300,1.00200,0.07000,-0.12300,0.01800,0.43300,0.48300,-1.31200,86.22000,-0.15000
041225_02.03.30.848,-0.01600,0.00100,1.00100,0.08700,-0.10500,0.01800,0.44100,0.48100,-1.31300,86.17000,-0.05000
041225_02.03.30.860,-0.01500,0.00100,1.00300,0.08700,-0.10500,0.01800,0.43900,0.48000,-1.31300,86.08000,-0.09000
041225_02.03.30.871,-0.01700,0.00300,1.00100,0.08700,-0.12300,0.01800,0.43700,0.47400,-1.31100,86.30000,0.22000
041225_02.03.30.883,-0.01800,0.00200,1.00100,0.08700,-0.14000,0.00000,0.43700,0.47400,-1.31100,85.19000,-1.11000
041225_02.03.30.894,-0.01700,0.00400,1.00000,0.10500,-0.14000,0.01800,0.43200,0.47800,-1.31000,86.85000,1.66000
041225_02.03.30.905,-0.01600,0.00400,1.00100,0.10500,-0.10500,0.00000,0.43500,0.48100,-1.31700,85.51000,-1.34000
041225_02.03.30.917,-0.01800,0.00200,1.00000,0.10500,-0.12300,0.01800,0.43600,0.48000,-1.31500,85.83000,0.32000
041225_02.03.30.928,-0.01700,0.00300,1.00300,0.10500,-0.14000,0.01800,0.43700,0.47200,-1.31900,86.38000,0.55000
041225_02.03.30.940,-0.01600,0.00200,1.00100,0.10500,-0.15700,0.01800,0.43700,0.47200,-1.31900,85.97000,-0.41000
041225_02.03.30.951,-0.01700,0.00300,0.99800,0.10500,-0.12300,0.00000,0.43500,0.47600,-1.31800,86.24000,0.27000
041225_02.03.30.963,-0.01600,0.00300,1.00200,0.10500,-0.12300,0.00000,0.43500,0.47800,-1.31400,85.81000,-0.43000
041225_02.03.30.974,-0.01500,0.00200,1.00000,0.08700,-0.10500,0.01800,0.43400,0.47700,-1.31700,85.45000,-0.36000
041225_02.03.30.986,-0.01500,0.00200,1.00300,0.08700,-0.12300,0.00000,0.43400,0.47300,-1.31700,86.18000,0.73000
041225_02.03.30.997,-0.01600,0.00100,1.00400,0.10500,-0.12300,0.00000,0.43600,0.47300,-1.31700,85.99000,-0.19000
041225_02.03.31.008,-0.01500,0.00200,1.00400,0.10500,-0.12300,0.00000,0.44200,0.48100,-1.31100,86.29000,0.30000
041225_02.03.31.020,-0.01700,0.00400,0.99900,0.08700,-0.10500,0.01800,0.43600,0.47900,-1.31000,86.15000,-0.14000
041225_02.03.31.031,-0.01500,0.00200,1.00400,0.08700,-0.12300,0.03500,0.43800,0.47700,-1.31400,86.37000,0.22000
041225_02.03.31.043,-0.01600,0.00000,1.00200,0.08700,-0.14000,0.01800,0.43800,0.47700,-1.31400,85.92000,-0.45000
041225_02.03.31.054,-0.01600,0.00300,0.99900,0.08700,-0.12300,0.01800,0.43900,0.47800,-1.31100,85.58000,-0.34000
041225_02.03.31.066,-0.01500,0.00200,1.00400,0.10500,-0.10500,0.03500,0.44100,0.48000,-1.31400,86.80000,1.22000
041225_02.03.31.077,-0.01600,0.00100,1.00400,0.12300,-0.12300,0.03500,0.43800,0.47800,-1.31300,86.69000,-0.11000
041225_02.03.31.089,-0.01400,0.00100,1.00200,0.10500,-0.12300,0.01800,0.44000,0.47400,-1.31300,86.27000,-0.42000
041225_02.03.31.100,-0.01600,0.00100,1.00000,0.08700,-0.10500,0.01800,0.44000,0.47400,-1.31300,86.22000,-0.05000
041225_02.03.31.111,-0.01700,0.00100,1.00200,0.08700,-0.14000,0.03500,0.43500,0.47400,-1.31700,86.02000,-0.20000
041225_02.03.31.123,-0.01600,0.00100,1.00200,0.10500,-0.14000,0.03500,0.43400,0.47400,-1.31900,86.25000,0.23000
041225_02.03.31.134,-0.01700,0.00200,1.00100,0.08700,-0.14000,0.00000,0.43400,0.47700,-1.31800,85.62000,-0.63000
041225_02.03.31.146,-0.01500,0.00100,1.00300,0.08700,-0.12300,0.01800,0.43600,0.47800,-1.31700,85.86000,0.24000
041225_02.03.31.157,-0.01900,0.00100,1.00300,0.10500,-0.14000,0.00000,0.43600,0.47800,-1.31700,86.51000,0.65000
041225_02.03.31.169,-0.01700,0.00300,1.00000,0.10500,-0.12300,0.00000,0.43900,0.48200,-1.31100,85.97000,-0.54000
041225_02.03.31.180,-0.01400,0.00200,1.00100,0.10500,-0.12300,0.03500,0.44000,0.48000,-1.31100,85.56000,-0.41000
041225_02.03.31.192,-0.01500,0.00100,1.00300,0.10500,-0.12300,0.01800,0.43600,0.48000,-1.31500,86.38000,0.82000
041225_02.03.31.203,-0.01300,0.00100,0.99800,0.10500,-0.08700,0.03500,0.44000,0.48100,-1.31300,86.50000,0.12000
041225_02.03.31.214,-0.01500,0.00100,1.00200,0.08700,-0.12300,0.01800,0.44000,0.48100,-1.31300,86.53000,0.03000
041225_02.03.31.226,-0.01700,0.00200,1.00000,0.08700,-0.12300,0.00000,0.43400,0.48000,-1.31200,86.22000,-0.31000
041225_02.03.31.237,-0.01700,0.00300,1.00100,0.10500,-0.14000,0.01800,0.43400,0.48000,-1.31200,86.03000,-0.19000
041225_02.03.31.249,-0.01600,0.00300,0.99800,0.12300,-0.08700,0.01800,0.43400,0.47900,-1.31200,86.14000,0.11000
041225_02.03.31.260,-0.01500,0.00200,1.00300,0.10500,-0.10500,0.01800,0.43400,0.47900,-1.31200,86.42000,0.28000
041225_02.03.31.272,-0.01800,0.00100,1.00200,0.12300,-0.10500,0.01800,0.43200,0.47800,-1.31200,86.34000,-0.08000
041225_02.03.31.283,-0.01700,0.00400,1.00400,0.10500,-0.12300,0.01800,0.43900,0.48200,-1.31600,86.24000,-0.10000
041225_02.03.31.295,-0.01700,0.00400,1.00300,0.10500,-0.14000,0.00000,0.43500,0.47700,-1.31200,86.21000,-0.03000
041225_02.03.31.306,-0.01700,0.00300,1.00000,0.08700,-0.14000,0.03500,0.43600,0.47900,-1.31200,85.87000,-0.34000
041225_02.03.31.318,-0.01600,0.00400,1.00200,0.10500,-0.10500,0.01800,0.43600,0.47900,-1.31200,85.45000,-0.42000
041225_02.03.31.329,-0.01800,0.00100,1.00400,0.07000,-0.14000,0.00000,0.43500,0.47300,-1.31700,86.14000,0.69000
041225_02.03.31.340,-0.02200,0.00400,1.00500,0.10500,-0.12300,0.01800,0.43500,0.48000,-1.32100,86.06000,-0.08000
041225_02.03.31.352,-0.01500,0.00200,1.00200,0.07000,-0.15700,0.01800,0.43600,0.47500,-1.31400,85.82000,-0.24000
041225_02.03.31.363,-0.01700,0.00200,1.00000,0.07000,-0.14000,0.01800,0.43300,0.47400,-1.31500,85.98000,0.16000
041225_02.03.31.375,-0.01800,0.00200,1.00300,0.10500,-0.14000,0.03500,0.43300,0.47400,-1.31500,86.50000,0.52000
041225_02.03.31.386,-0.01500,0.00100,1.00000,0.08700,-0.12300,0.03500,0.43500,0.47600,-1.31300,86.03000,-0.47000
041225_02.03.31.398,-0.01700,0.00100,1.00400,0.08700,-0.12300,0.00000,0.44000,0.47600,-1.31200,86.07000,0.04000
041225_02.03.31.409,-0.01800,0.00100,1.00100,0.07000,-0.12300,0.00000,0.43700,0.47700,-1.30900,86.12000,0.05000
041225_02.03.31.421,-0.01500,0.00200,1.00100,0.08700,-0.15700,0.01800,0.43700,0.47400,-1.31500,86.07000,-0.05000
041225_02.03.31.432,-0.01500,0.00200,0.99900,0.08700,-0.12300,0.03500,0.43700,0.47400,-1.31500,86.76000,0.69000
041225_02.03.31.444,-0.01400,0.00100,1.00400,0.07000,-0.12300,0.01800,0.43200,0.47500,-1.31600,86.27000,-0.49000
041225_02.03.31.455,-0.01600,0.00000,1.03000,0.08700,-0.12300,0.00000,0.43700,0.48000,-1.31700,86.27000,0.00000
041225_02.03.31.467,-0.01400,0.00000,1.00000,0.08700,-0.08700,0.01800,0.43600,0.48000,-1.31400,86.35000,0.08000
041225_02.03.31.478,-0.01500,0.00000,1.00100,0.10500,-0.12300,0.01800,0.43600,0.47700,-1.30900,85.26000,-1.09000
041225_02.03.31.490,-0.01400,0.00100,1.00000,0.08700,-0.12300,0.00000,0.43500,0.47700,-1.30900,85.54000,0.28000
041225_02.03.31.501,-0.01500,0.00200,0.99900,0.08700,-0.08700,0.01800,0.43200,0.47600,-1.31400,86.06000,0.52000
041225_02.03.31.513,-0.01500,0.00100,1.00300,0.10500,-0.10500,0.01800,0.43500,0.47700,-1.30900,86.13000,0.07000
041225_02.03.31.524,-0.01400,0.00100,1.00100,0.07000,-0.10500,0.01800,0.43200,0.47900,-1.31700,85.90000,-0.23000
041225_02.03.31.535,-0.01500,0.00100,1.00000,0.08700,-0.10500,0.01800,0.43200,0.47900,-1.31700,86.64000,0.74000
041225_02.03.31.547,-0.01500,-0.00200,1.00300,0.08700,-0.12300,0.01800,0.43600,0.47900,-1.31700,85.81000,-0.83000
041225_02.03.31.558,-0.01500,-0.00300,1.00200,0.08700,-0.14000,0.01800,0.43400,0.48000,-1.31900,85.97000,0.16000
041225_02.03.31.570,-0.01500,0.00200,1.00500,0.12300,-0.12300,0.00000,0.43400,0.48300,-1.31600,86.00000,0.03000
041225_02.03.31.581,-0.01400,0.00300,1.00300,0.10500,-0.14000,0.01800,0.44000,0.48500,-1.31400,85.83000,-0.17000
041225_02.03.31.593,-0.01600,0.00200,1.00200,0.08700,-0.10500,0.01800,0.44000,0.48500,-1.31400,85.65000,-0.18000
041225_02.03.31.604,-0.01500,0.00200,1.00100,0.10500,-0.12300,0.00000,0.43600,0.48000,-1.31700,86.15000,0.50000
041225_02.03.31.615,-0.01700,0.00200,1.00300,0.10500,-0.08700,0.03500,0.43600,0.47800,-1.30900,86.64000,0.49000
041225_02.03.31.627,-0.01700,0.00100,1.00400,0.08700,-0.10500,0.03500,0.43000,0.47700,-1.31000,85.30000,-1.34000
041225_02.03.31.638,-0.01800,0.00300,1.00300,0.08700,-0.10500,0.03500,0.42800,0.47800,-1.31000,86.04000,0.74000
041225_02.03.31.650,-0.01600,0.00400,1.00100,0.08700,-0.10500,0.01800,0.42800,0.47800,-1.31000,85.78000,-0.26000
041225_02.03.31.661,-0.01900,0.00400,1.00000,0.08700,-0.08700,0.01800,0.43100,0.48400,-1.30700,86.83000,1.05000
041225_02.03.31.673,-0.01700,0.00400,1.00100,0.07000,-0.07000,0.03500,0.43300,0.48400,-1.30800,86.41000,-0.42000
041225_02.03.31.684,-0.02100,0.00400,1.00100,0.10500,-0.07000,0.01800,0.43500,0.48000,-1.30900,85.77000,-0.64000
041225_02.03.31.696,-0.01800,0.00200,1.00300,0.10500,-0.08700,0.03500,0.43900,0.47800,-1.31300,85.64000,-0.13000
041225_02.03.31.707,-0.01900,0.00300,1.00100,0.08700,-0.07000,0.01800,0.43900,0.47800,-1.31300,85.94000,0.30000
041225_02.03.31.719,-0.01700,0.00300,1.00100,0.10500,-0.07000,0.01800,0.43800,0.48100,-1.31400,85.69000,-0.25000
041225_02.03.31.730,-0.02000,0.00400,1.00000,0.10500,-0.08700,0.03500,0.43400,0.48100,-1.31100,86.38000,0.69000
041225_02.03.31.742,-0.01900,0.00500,1.00100,0.07000,-0.10500,0.01800,0.43800,0.48000,-1.30900,85.89000,-0.49000
041225_02.03.31.753,-0.01900,0.00300,1.00200,0.08700,-0.10500,0.03500,0.43800,0.48000,-1.30900,86.78000,0.89000
041225_02.03.31.765,-0.02000,0.00300,1.00300,0.07000,-0.15700,0.03500,0.43600,0.47900,-1.31400,85.96000,-0.82000
041225_02.03.31.776,-0.02000,0.00300,1.00300,0.08700,-0.15700,0.03500,0.43400,0.47800,-1.31400,86.00000,0.04000
041225_02.03.31.788,-0.01900,0.00200,1.00100,0.08700,-0.17500,0.03500,0.43500,0.47900,-1.31700,85.70000,-0.30000
041225_02.03.31.799,-0.02000,0.00200,1.00200,0.08700,-0.19200,0.03500,0.43600,0.47800,-1.31600,85.96000,0.26000
041225_02.03.31.810,-0.01900,0.00100,1.00200,0.08700,-0.19200,0.03500,0.43600,0.47800,-1.31600,85.76000,-0.20000
041225_02.03.31.822,-0.01900,0.00100,1.00200,0.10500,-0.19200,0.01800,0.43600,0.48200,-1.31200,85.84000,0.08000
041225_02.03.31.833,-0.01900,0.00200,1.00000,0.08700,-0.21000,0.01800,0.43700,0.48000,-1.32000,86.51000,0.67000
041225_02.03.31.845,-0.01900,0.00100,1.00000,0.10500,-0.19200,0.01800,0.43700,0.48100,-1.31600,86.13000,-0.38000
041225_02.03.31.856,-0.01800,0.00100,1.00100,0.08700,-0.19200,0.01800,0.43800,0.48300,-1.30800,86.05000,-0.08000
041225_02.03.31.868,-0.01700,0.00100,1.00200,0.08700,-0.21000,0.01800,0.43800,0.48300,-1.30800,86.48000,0.43000
041225_02.03.31.879,-0.01600,0.00100,1.00100,0.08700,-0.17500,0.00000,0.43200,0.47700,-1.31200,86.14000,-0.34000
041225_02.03.31.891,-0.01700,0.00000,1.00200,0.10500,-0.17500,0.01800,0.43000,0.48300,-1.31100,85.50000,-0.64000
041225_02.03.31.902,-0.01400,-0.00100,1.00100,0.10500,-0.14000,0.00000,0.43400,0.48100,-1.31100,86.28000,0.78000
041225_02.03.31.914,-0.01600,-0.00100,1.00100,0.10500,-0.12300,-0.01800,0.43700,0.47600,-1.31300,86.20000,-0.08000
041225_02.03.31.925,-0.01400,-0.00000,1.00200,0.10500,-0.12300,0.00000,0.43700,0.47600,-1.31300,86.47000,0.27000
041225_02.03.31.937,-0.01300,0.00000,1.00200,0.10500,-0.14000,-0.01800,0.43800,0.48000,-1.31100,86.34000,-0.13000
041225_02.03.31.948,-0.01300,0.00000,1.00300,0.10500,-0.12300,-0.01800,0.43300,0.47900,-1.30500,86.14000,-0.20000
041225_02.03.31.960,-0.01300,0.00100,1.00300,0.10500,-0.12300,-0.01800,0.43800,0.48000,-1.31500,85.85000,-0.29000
041225_02.03.31.971,-0.01100,0.00100,1.00200,0.08700,-0.12300,0.00000,0.43800,0.47800,-1.31000,86.37000,0.52000
041225_02.03.31.982,-0.01100,0.00200,1.00200,0.08700,-0.12300,0.00000,0.43600,0.47800,-1.31000,86.21000,-0.16000
041225_02.03.31.994,-0.01100,0.00200,1.00100,0.08700,-0.10500,0.00000,0.43800,0.47700,-1.30800,86.23000,0.02000
041225_02.03.32.005,-0.01200,0.00200,1.00100,0.08700,-0.12300,0.01800,0.43200,0.47700,-1.30900,85.91000,-0.32000
041225_02.03.32.017,-0.01100,0.00200,1.00000,0.08700,-0.14000,0.00000,0.44000,0.48000,-1.31100,85.72000,-0.19000
041225_02.03.32.028,-0.01100,0.00200,1.00000,0.08700,-0.10500,0.01800,0.44000,0.48000,-1.31100,86.09000,0.37000
041225_02.03.32.040,-0.01200,0.00200,0.99900,0.08700,-0.12300,0.01800,0.43600,0.47900,-1.30700,85.71000,-0.38000
041225_02.03.32.051,-0.01400,0.00300,1.00000,0.08700,-0.12300,0.01800,0.43600,0.47900,-1.30800,86.32000,0.61000
041225_02.03.32.062,-0.01500,0.00200,1.00000,0.08700,-0.10500,0.01800,0.43400,0.47900,-1.31200,86.49000,0.17000
041225_02.03.32.074,-0.01400,0.00200,1.00100,0.08700,-0.08700,0.01800,0.43700,0.47800,-1.31100,85.44000,-1.05000
041225_02.03.32.085,-0.01500,0.00200,1.00100,0.08700,-0.10500,0.03500,0.43700,0.47800,-1.31100,86.39000,0.95000
041225_02.03.32.097,-0.01600,0.00300,0.99900,0.10500,-0.10500,0.01800,0.43700,0.48100,-1.31100,86.51000,0.12000
041225_02.03.32.108,-0.01400,0.00300,1.00200,0.08700,-0.10500,0.03500,0.43800,0.47600,-1.31200,85.82000,-0.69000
041225_02.03.32.120,-0.01500,0.00400,1.00000,0.08700,-0.07000,0.01800,0.43700,0.47700,-1.31100,86.23000,0.41000
041225_02.03.32.131,-0.01700,0.00100,1.00100,0.07000,-0.10500,0.03500,0.43100,0.47200,-1.31600,86.14000,-0.09000
041225_02.03.32.143,-0.01700,0.00400,1.00200,0.07000,-0.08700,0.03500,0.43100,0.47200,-1.31600,85.44000,-0.70000
041225_02.03.32.154,-0.01800,0.00300,1.00200,0.10500,-0.08700,0.01800,0.43700,0.47800,-1.30800,85.78000,0.34000
041225_02.03.32.166,-0.01800,0.00300,1.00100,0.12300,-0.07000,0.01800,0.44100,0.47600,-1.31200,86.22000,0.44000
041225_02.03.32.177,-0.01900,0.00200,1.00400,0.08700,-0.08700,0.03500,0.43100,0.47800,-1.31600,86.10000,-0.12000
041225_02.03.32.189,-0.01900,0.00200,1.00400,0.07000,-0.07000,0.01800,0.43600,0.47200,-1.31200,86.25000,0.15000
041225_02.03.32.200,-0.02100,0.00300,1.00200,0.07000,-0.07000,0.01800,0.43600,0.47200,-1.31200,85.53000,-0.72000
041225_02.03.32.212,-0.01700,0.00100,1.00300,0.08700,-0.08700,0.01800,0.43400,0.47900,-1.31000,85.77000,0.24000
041225_02.03.32.223,-0.01900,0.00300,1.00300,0.08700,-0.08700,0.01800,0.43700,0.48000,-1.30800,85.94000,0.17000
041225_02.03.32.235,-0.01900,0.00300,1.00300,0.08700,-0.08700,0.00000,0.43700,0.47800,-1.31600,85.59000,-0.35000
041225_02.03.32.246,-0.02000,0.00200,1.00300,0.08700,-0.08700,0.03500,0.43700,0.47800,-1.31600,85.73000,0.14000
041225_02.03.32.258,-0.01900,0.00100,1.00300,0.08700,-0.12300,0.01800,0.43400,0.48000,-1.31100,85.65000,-0.08000
041225_02.03.32.269,-0.02000,0.00100,1.00200,0.08700,-0.12300,0.00000,0.43500,0.48300,-1.30700,85.95000,0.30000
041225_02.03.32.280,-0.02000,0.00100,1.00200,0.08700,-0.14000,0.00000,0.44000,0.48100,-1.31200,85.75000,-0.20000
041225_02.03.32.292,-0.01900,0.00200,1.00100,0.08700,-0.10500,0.00000,0.44100,0.47700,-1.31000,86.36000,0.61000
041225_02.03.32.303,-0.01900,0.00100,1.00300,0.07000,-0.12300,0.01800,0.44100,0.47700,-1.31000,86.41000,0.05000
041225_02.03.32.315,-0.01900,0.00200,1.00200,0.08700,-0.14000,0.00000,0.43800,0.48200,-1.31200,85.94000,-0.47000
041225_02.03.32.326,-0.02000,0.00000,1.00300,0.08700,-0.14000,0.00000,0.44000,0.47600,-1.31000,86.39000,0.45000
041225_02.03.32.338,-0.01800,0.00200,1.00100,0.07000,-0.15700,0.00000,0.44100,0.47900,-1.30900,86.25000,-0.14000
041225_02.03.32.349,-0.01900,0.00200,1.00200,0.07000,-0.14000,0.01800,0.43900,0.47700,-1.30700,86.52000,0.27000
041225_02.03.32.361,-0.01900,0.00100,1.00200,0.07000,-0.15700,0.01800,0.43900,0.47700,-1.30700,85.92000,-0.60000
041225_02.03.32.372,-0.02000,0.00200,1.00000,0.07000,-0.17500,0.00000,0.43800,0.48100,-1.30800,86.57000,0.65000
041225_02.03.32.384,-0.01700,0.00200,1.00000,0.07000,-0.17500,0.00000,0.43600,0.47800,-1.31200,86.06000,-0.51000
041225_02.03.32.395,-0.01800,0.00200,1.00100,0.07000,-0.15700,0.00000,0.43400,0.48000,-1.30800,86.31000,0.25000
041225_02.03.32.406,-0.01600,0.00100,1.00000,0.08700,-0.15700,0.00000,0.43600,0.48400,-1.30700,86.38000,0.07000
041225_02.03.32.418,-0.01400,0.00100,1.00200,0.10500,-0.17500,0.01800,0.43600,0.48400,-1.30700,86.38000,0.00000
041225_02.03.32.429,-0.01800,0.00200,1.00100,0.07000,-0.17500,0.03500,0.43700,0.47700,-1.30900,86.51000,0.13000
041225_02.03.32.441,-0.01500,0.00300,1.00000,0.08700,-0.17500,0.01800,0.43900,0.48000,-1.31200,86.15000,-0.36000
041225_02.03.32.452,-0.01500,0.00400,0.99800,0.08700,-0.17500,0.01800,0.43600,0.47600,-1.31400,85.73000,-0.42000
041225_02.03.32.464,-0.01500,0.00400,1.00200,0.08700,-0.17500,0.01800,0.43600,0.47600,-1.31400,85.84000,0.11000
041225_02.03.32.475,-0.01300,0.00200,1.00100,0.08700,-0.19200,0.03500,0.43500,0.47700,-1.31400,86.20000,0.36000
041225_02.03.32.486,-0.01600,0.00300,1.00100,0.07000,-0.19200,0.03500,0.43200,0.47800,-1.31500,86.03000,-0.17000
041225_02.03.32.498,-0.01600,0.00500,1.00000,0.08700,-0.22800,0.00000,0.43800,0.47700,-1.30500,86.45000,0.42000
041225_02.03.32.509,-0.01400,0.00600,0.99700,0.07000,-0.24500,0.00000,0.43700,0.47700,-1.31400,85.87000,-0.58000
041225_02.03.32.521,-0.01400,0.00300,0.99700,0.07000,-0.26200,0.00000,0.43700,0.47700,-1.31400,85.61000,-0.26000
041225_02.03.32.532,-0.01500,0.00500,1.00000,0.10500,-0.24500,0.01800,0.43300,0.47500,-1.31200,85.81000,0.20000
041225_02.03.32.544,-0.01500,0.00300,1.00100,0.12300,-0.22800,0.01800,0.43800,0.47800,-1.31100,85.32000,-0.49000
041225_02.03.32.555,-0.01700,0.00200,0.99900,0.10500,-0.21000,0.00000,0.43400,0.47800,-1.31000,85.42000,0.10000
041225_02.03.32.566,-0.01500,0.00300,1.00100,0.08700,-0.19200,-0.01800,0.43400,0.47800,-1.31100,85.90000,0.48000
041225_02.03.32.578,-0.01400,0.00300,0.99900,0.08700,-0.17500,0.00000,0.43400,0.47800,-1.31100,85.93000,0.03000
