timestamp,ax,ay,az,gx,gy,gz,mx,my,mz,altitude,relative_altitude
041225_03.24.11.886,-0.17100,-0.51800,0.71500,6.42300,0.91000,-5.68700,0.11700,0.60600,-0.43800,83.67000,0.00000
041225_03.24.11.898,-0.10300,-0.56000,0.70600,6.35200,13.51000,1.31200,0.11700,0.60600,-0.43800,83.75000,0.08000
041225_03.24.11.910,-0.13900,-0.66500,0.64700,9.39800,22.96000,4.30500,0.11800,0.60500,-0.43200,83.70000,-0.05000
041225_03.24.11.921,-0.20800,-0.77800,0.57100,14.56000,34.21300,5.30300,0.12000,0.60600,-0.43100,83.51000,-0.19000
041225_03.24.11.932,-0.21400,-0.69800,0.50600,18.97000,49.73500,4.13000,0.11800,0.60500,-0.42100,82.92000,-0.59000
041225_03.24.11.944,-0.16800,-0.54300,0.51100,30.24000,64.69800,-0.87500,0.11800,0.60500,-0.42100,84.00000,1.08000
041225_03.24.11.955,-0.13200,-0.50400,0.72500,55.56300,79.87000,-27.47500,0.11100,0.60900,-0.41900,82.93000,-1.07000
041225_03.24.11.967,-0.13800,-0.52600,0.71500,95.18300,91.96300,-42.98000,0.10800,0.61800,-0.41100,83.63000,0.70000
041225_03.24.11.978,-0.22100,-0.67700,0.82200,123.67300,63.35000,-58.18800,0.09800,0.64100,-0.41000,83.25000,-0.38000
041225_03.24.11.990,0.01700,-0.45300,0.79800,139.42300,24.62200,-58.25700,0.08900,0.65200,-0.42300,83.20000,-0.05000
041225_03.24.12.001,0.09800,-0.41700,0.81000,141.89000,2.08200,-33.40800,0.08900,0.65200,-0.42300,83.03000,-0.17000
041225_03.24.12.013,-0.08500,-0.56600,0.80000,124.09200,9.55500,-4.14800,0.09100,0.65200,-0.43100,83.46000,0.43000
041225_03.24.12.024,-0.03900,-0.68400,0.96800,95.83000,16.18700,15.87300,0.09300,0.65100,-0.45000,83.32000,-0.14000
041225_03.24.12.036,-0.07800,-0.60500,0.85600,67.67300,9.94000,30.55500,0.09700,0.64400,-0.45800,83.59000,0.27000
041225_03.24.12.047,-0.09200,-0.36900,0.84600,44.13500,8.03300,48.89500,0.10600,0.62600,-0.45300,83.62000,0.03000
041225_03.24.12.059,-0.00600,-0.16700,0.78500,29.76700,9.27500,72.66000,0.10600,0.62600,-0.45300,82.95000,-0.67000
041225_03.24.12.070,0.00300,-0.13400,0.84000,29.99500,16.01300,94.51800,0.11700,0.61300,-0.45500,83.77000,0.82000
041225_03.24.12.082,-0.08000,-0.18800,0.86800,39.16500,23.87000,108.60500,0.13100,0.58700,-0.45900,83.22000,-0.55000
041225_03.24.12.094,-0.24000,-0.35600,0.93100,47.91500,33.00500,112.57700,0.14500,0.56600,-0.45400,83.87000,0.65000
041225_03.24.12.106,-0.39800,-0.42600,0.95900,42.47200,38.50000,102.58500,0.14500,0.56600,-0.45400,83.19000,-0.68000
041225_03.24.12.117,-0.53800,-0.34600,0.94600,32.62000,45.27200,39.76000,0.15200,0.55100,-0.45200,83.96000,0.77000
041225_03.24.12.129,-0.53700,-0.25000,1.00500,48.65000,33.93200,-7.08800,0.15500,0.54200,-0.44700,82.44000,-1.52000
041225_03.24.12.140,-0.12300,0.17000,0.65800,75.68800,18.60300,-33.79200,0.15600,0.54400,-0.44900,83.36000,0.92000
041225_03.24.12.152,0.06700,0.02500,0.85600,103.89700,13.98300,-30.87000,0.16000,0.55100,-0.46000,83.04000,-0.32000
041225_03.24.12.163,0.02500,-0.22300,1.09300,113.97800,2.43300,-15.80200,0.16000,0.55100,-0.46000,83.21000,0.17000
041225_03.24.12.175,-0.08600,-0.30800,1.09600,104.96500,-17.48300,1.97700,0.16500,0.54800,-0.46600,83.41000,0.20000
041225_03.24.12.187,-0.15400,-0.27400,0.90200,90.00300,-36.43500,19.05800,0.17200,0.53800,-0.47200,83.12000,-0.29000
041225_03.24.12.198,-0.18500,-0.21300,0.76000,83.86000,-45.99000,30.97500,0.17600,0.53200,-0.48700,83.42000,0.30000
041225_03.24.12.210,-0.18000,-0.17900,0.77100,88.41000,-52.18500,37.62500,0.18500,0.51600,-0.50600,83.37000,-0.05000
041225_03.24.12.221,-0.16800,-0.18400,0.77700,97.31700,-64.59200,41.58000,0.18500,0.51600,-0.50600,83.72000,0.35000
041225_03.24.12.233,-0.14700,-0.25000,0.80000,103.26800,-79.69500,44.95800,0.18600,0.50500,-0.53800,83.28000,-0.44000
041225_03.24.12.244,-0.14600,-0.26700,0.84500,103.21500,-93.15300,46.23500,0.19200,0.49100,-0.55700,83.69000,0.41000
041225_03.24.12.256,-0.25300,-0.17900,0.93200,99.90800,-100.74700,45.65800,0.19800,0.47300,-0.59400,82.97000,-0.72000
041225_03.24.12.268,-0.28100,-0.22600,1.08100,96.74000,-101.04500,41.70200,0.19800,0.47300,-0.59400,83.48000,0.51000
041225_03.24.12.279,-0.26800,-0.19200,1.20200,86.50300,-92.13700,29.24300,0.19300,0.45900,-0.61500,83.43000,-0.05000
041225_03.24.12.291,-0.24600,-0.15000,1.35400,46.83000,-76.91200,28.64800,0.19200,0.45300,-0.63100,83.47000,0.04000
041225_03.24.12.303,-0.44200,-0.06900,1.51400,29.10300,-71.31300,31.48300,0.18600,0.44000,-0.65100,83.51000,0.04000
041225_03.24.12.314,-0.21200,-0.05100,1.26900,27.26500,-71.47000,35.19300,0.18000,0.43000,-0.66000,82.80000,-0.71000
041225_03.24.12.326,-0.21200,0.13200,1.33400,40.96700,-49.36800,39.49800,0.18000,0.43000,-0.66000,83.38000,0.58000
041225_03.24.12.337,-0.13100,0.18000,1.35300,44.31000,-40.11000,47.00500,0.18100,0.41300,-0.67200,83.23000,-0.15000
041225_03.24.12.349,-0.08000,0.14900,1.18900,45.15000,-40.93200,51.06500,0.17400,0.40000,-0.67800,83.29000,0.06000
041225_03.24.12.360,-0.04400,0.12900,1.05900,48.63200,-40.54800,49.28000,0.17300,0.38400,-0.68900,83.07000,-0.22000
041225_03.24.12.372,-0.02500,0.07200,1.00500,56.71700,-43.03300,43.10300,0.16400,0.36700,-0.69100,83.06000,-0.01000
041225_03.24.12.382,-0.02300,0.04000,0.94000,67.67300,-52.15000,36.26000,0.16400,0.36700,-0.69100,83.56000,0.50000
041225_03.24.12.394,0.05100,0.09700,0.91200,80.34200,-63.22800,35.35000,0.15800,0.35000,-0.70400,83.14000,-0.42000
041225_03.24.12.405,0.19200,0.19400,0.96900,85.57500,-69.61500,42.89300,0.14500,0.33000,-0.71100,83.45000,0.31000
041225_03.24.12.417,0.21700,0.29800,1.02000,81.46300,-66.34200,54.70500,0.13500,0.31000,-0.71600,83.55000,0.10000
041225_03.24.12.428,0.20900,0.37600,1.05600,71.26000,-55.21300,64.12000,0.13500,0.31000,-0.71600,83.96000,0.41000
041225_03.24.12.440,0.21000,0.40500,1.01000,45.43000,-34.24800,60.63800,0.12900,0.28900,-0.71900,83.32000,-0.64000
041225_03.24.12.451,0.20600,0.38400,0.79800,43.40000,-30.92300,51.22200,0.12000,0.27500,-0.72400,83.28000,-0.04000
041225_03.24.12.462,0.31700,0.31200,0.76000,42.21000,-35.92800,41.42300,0.11500,0.25900,-0.73200,83.25000,-0.03000
041225_03.24.12.474,0.35500,0.31400,0.70300,43.10300,-45.01000,34.47500,0.10400,0.25000,-0.73400,83.46000,0.21000
041225_03.24.12.486,0.39900,0.34600,0.74200,42.84000,-50.31300,33.42500,0.10400,0.25000,-0.73400,83.55000,0.09000
041225_03.24.12.497,0.42400,0.44600,0.79800,42.14000,-50.38200,38.34200,0.09300,0.24000,-0.74200,83.61000,0.06000
041225_03.24.12.509,0.43000,0.51300,0.81400,39.76000,-44.29200,47.75700,0.08200,0.22300,-0.74400,83.31000,-0.30000
041225_03.24.12.521,0.40000,0.55500,0.78400,39.20000,-32.23500,56.96300,0.07400,0.21100,-0.74300,83.80000,0.49000
041225_03.24.12.532,0.51200,0.55900,0.88400,43.75000,-17.74500,63.10500,0.06600,0.19000,-0.74700,83.63000,-0.17000
041225_03.24.12.544,0.58400,0.61600,0.82100,49.89300,-11.20000,65.03000,0.06600,0.19000,-0.74700,84.05000,0.42000
041225_03.24.12.555,0.57300,0.56900,0.82200,58.57300,-13.94800,64.03300,0.06100,0.17000,-0.74000,83.84000,-0.21000
041225_03.24.12.567,0.50900,0.34700,0.76900,60.58500,-15.82000,55.49300,0.05700,0.15500,-0.73800,83.19000,-0.65000
041225_03.24.12.578,0.45400,0.24100,0.80400,52.11500,-10.86800,37.76500,0.05200,0.13800,-0.73500,83.36000,0.17000
041225_03.24.12.590,0.45400,0.29100,0.83300,39.39300,-1.99500,18.58500,0.05200,0.13800,-0.73500,83.62000,0.26000
041225_03.24.12.602,0.49200,0.41400,0.91200,12.00500,26.60000,-2.46700,0.05300,0.13600,-0.72500,83.05000,-0.57000
041225_03.24.12.613,0.45400,0.55000,0.94000,9.48500,37.22200,-2.27500,0.05600,0.13500,-0.72000,82.96000,-0.09000
041225_03.24.12.625,0.47200,0.73400,0.88600,18.62000,36.27800,-1.54000,0.06100,0.13200,-0.71400,83.36000,0.40000
041225_03.24.12.636,0.57400,0.82800,0.86800,34.02000,24.92000,-1.43500,0.06900,0.12900,-0.70000,84.21000,0.85000
041225_03.24.12.648,0.66300,0.88100,0.88000,48.89500,8.64500,-1.36500,0.06900,0.12900,-0.70000,83.47000,-0.74000
041225_03.24.12.659,0.67900,0.85000,0.98800,59.78000,-7.47200,-4.88300,0.07100,0.12000,-0.69300,83.46000,-0.01000
041225_03.24.12.671,0.43000,0.62700,1.00300,64.75000,-23.11800,-16.39800,0.06800,0.11400,-0.68400,83.74000,0.28000
041225_03.24.12.683,0.23100,0.40800,0.93700,68.05800,-32.44500,-36.94300,0.07300,0.11500,-0.67600,83.29000,-0.45000
041225_03.24.12.694,0.23500,0.31200,0.96400,73.79800,-34.75500,-51.50200,0.08000,0.11700,-0.66700,83.55000,0.26000
041225_03.24.12.706,0.29700,0.30200,0.86100,75.95000,-29.61000,-50.12000,0.08000,0.11700,-0.66700,84.13000,0.58000
041225_03.24.12.717,0.33400,0.34400,0.77400,76.47500,-19.16300,-38.39500,0.08300,0.11600,-0.66700,83.80000,-0.33000
041225_03.24.12.729,0.36300,0.46800,0.76300,71.96000,-5.02300,-25.21800,0.08600,0.11600,-0.65500,83.44000,-0.36000
041225_03.24.12.741,0.34100,0.61400,0.75000,62.73700,8.54000,-16.31000,0.09200,0.11700,-0.64100,83.29000,-0.15000
041225_03.24.12.752,0.34600,0.66500,0.64800,54.95000,20.59700,-15.75000,0.09200,0.11700,-0.64100,83.56000,0.27000
041225_03.24.12.764,0.34400,0.63900,0.60500,38.09700,40.33800,-24.62200,0.10000,0.12300,-0.63600,83.80000,0.24000
041225_03.24.12.776,0.40700,1.13900,0.84400,31.30800,55.94800,-61.49500,0.11100,0.12500,-0.61700,83.67000,-0.13000
041225_03.24.12.787,0.70300,0.50000,0.68800,14.22700,67.20000,-94.76200,0.12800,0.14700,-0.61300,83.58000,-0.09000
041225_03.24.12.799,0.07600,0.29600,0.52000,7.33200,66.06300,-46.63800,0.13500,0.15900,-0.58800,83.81000,0.23000
041225_03.24.12.811,0.00100,0.36900,0.64500,24.18500,66.76200,-38.27200,0.13500,0.15900,-0.58800,83.51000,-0.30000
041225_03.24.12.822,-0.29900,0.14500,0.68100,23.34500,59.02800,-35.57700,0.14500,0.16700,-0.57900,83.90000,0.39000
041225_03.24.12.834,-0.39800,0.03300,0.13000,23.66000,61.49500,-29.82000,0.14800,0.17200,-0.56800,83.52000,-0.38000
041225_03.24.12.845,-0.30900,-0.05300,0.71800,53.44500,36.05000,-17.83300,0.15200,0.17400,-0.55900,83.64000,0.12000
041225_03.24.12.857,-0.01500,0.34800,0.70100,53.76000,-10.29000,16.27500,0.15100,0.16500,-0.55200,83.15000,-0.49000
041225_03.24.12.868,0.08600,0.65500,0.65700,50.20800,-16.50300,36.90800,0.15100,0.16500,-0.55200,83.44000,0.29000
041225_03.24.12.880,0.05600,0.82600,0.72000,50.83800,-4.06000,29.94300,0.14400,0.15500,-0.54800,82.65000,-0.79000
041225_03.24.12.891,0.09800,0.93500,0.64500,53.13000,-3.90200,10.41300,0.14600,0.14500,-0.54500,83.82000,1.17000
041225_03.24.12.903,0.13200,0.98900,0.65200,51.78300,-10.18500,-5.14500,0.14700,0.14700,-0.54400,83.56000,-0.26000
041225_03.24.12.914,0.13200,0.85200,0.68200,39.27000,-2.67800,-8.12000,0.14700,0.14700,-0.54400,83.58000,0.02000
041225_03.24.12.926,0.08400,0.65400,0.75200,16.43300,34.10800,-20.54500,0.14800,0.14900,-0.53200,83.80000,0.22000
041225_03.24.12.937,0.15600,0.70900,0.70600,13.28300,39.30500,-19.28500,0.14800,0.15500,-0.52800,83.90000,0.10000
041225_03.24.12.949,0.16500,0.79800,0.68100,11.48000,41.66700,-17.64000,0.15200,0.15200,-0.52000,83.23000,-0.67000
041225_03.24.12.961,0.19000,0.86100,0.64900,8.61000,42.22800,-17.43000,0.15100,0.15400,-0.51100,83.79000,0.56000
041225_03.24.12.972,0.21600,0.85700,0.60400,5.65300,39.49800,-15.41800,0.15100,0.15400,-0.51100,84.10000,0.31000
041225_03.24.12.984,0.19000,0.76300,0.58100,4.53200,35.50700,-12.65300,0.15000,0.15700,-0.50400,83.93000,-0.17000
041225_03.24.12.996,0.20900,0.68200,0.51800,3.97300,31.25500,-13.40500,0.14700,0.16100,-0.49600,83.24000,-0.69000
041225_03.24.13.007,0.28400,0.77400,0.38900,4.02500,30.32700,-14.35000,0.15200,0.16500,-0.49000,82.95000,-0.29000
041225_03.24.13.018,0.29700,0.72400,0.42700,7.45500,33.63500,-9.17000,0.15200,0.16300,-0.49300,83.66000,0.71000
041225_03.24.13.030,0.18600,0.70700,0.47600,10.58700,34.56300,-4.76000,0.15200,0.16300,-0.49300,83.77000,0.11000
041225_03.24.13.042,0.11500,0.74500,0.45800,11.81300,39.46300,-1.52300,0.15700,0.15700,-0.48100,83.68000,-0.09000
041225_03.24.13.054,-0.05900,0.49300,0.53800,17.53500,42.61200,1.82000,0.16000,0.15700,-0.47100,83.85000,0.17000
041225_03.24.13.066,0.07700,0.55000,0.64300,17.79800,46.70800,5.93200,0.16100,0.15700,-0.46700,83.47000,-0.38000
041225_03.24.13.078,0.00600,0.61500,0.61500,15.08500,47.18000,20.86000,0.16100,0.15700,-0.46700,83.43000,-0.04000
041225_03.24.13.089,-0.01100,1.09800,0.25600,17.88500,69.65000,38.13200,0.15800,0.14400,-0.45500,83.70000,0.27000
041225_03.24.13.101,-0.16700,1.46500,0.04300,36.69700,101.25500,63.24500,0.15300,0.13200,-0.43600,83.67000,-0.03000
041225_03.24.13.113,-0.14200,1.49600,0.57500,70.78700,110.12800,110.26800,0.14500,0.11300,-0.40700,82.89000,-0.78000
041225_03.24.13.125,0.16100,1.14300,0.80800,101.39500,96.96700,150.93700,0.12300,0.08800,-0.38000,83.42000,0.53000
041225_03.24.13.136,0.48700,0.62500,0.36200,94.51800,68.49500,158.32200,0.12300,0.08800,-0.38000,83.33000,-0.09000
041225_03.24.13.148,0.75200,1.29200,0.11000,77.12200,53.88200,157.92000,0.10100,0.06400,-0.35400,83.74000,0.41000
041225_03.24.13.160,0.73000,1.32800,0.61600,88.65500,44.04800,197.38300,0.07300,0.03300,-0.32700,84.02000,0.28000
041225_03.24.13.172,0.59400,1.02400,0.72600,84.33200,18.00700,242.32200,0.03600,0.00400,-0.31400,83.74000,-0.28000
041225_03.24.13.184,0.26900,0.90300,0.52100,67.00700,-11.42700,273.47300,-0.00500,-0.02200,-0.30300,83.31000,-0.43000
041225_03.24.13.196,-0.18900,0.52500,0.48900,67.62000,-19.95000,289.22300,-0.00500,-0.02200,-0.30300,83.26000,-0.05000
041225_03.24.13.207,-1.43900,0.01000,0.33500,75.91500,-0.80500,263.49700,-0.04700,-0.04200,-0.28400,83.04000,-0.22000
041225_03.24.13.219,-0.79400,0.67000,0.12000,93.76500,35.08800,156.04800,-0.08100,-0.04700,-0.26300,83.44000,0.40000
041225_03.24.13.231,0.38200,0.85300,0.26400,132.89500,27.35300,77.01800,-0.09300,-0.03800,-0.23400,83.72000,0.28000
041225_03.24.13.243,0.61200,0.82600,0.27800,154.96200,-2.62500,67.32300,-0.09300,-0.03800,-0.23400,83.69000,-0.03000
041225_03.24.13.254,0.51500,0.73300,0.56300,140.66500,-2.43300,84.01800,-0.10900,-0.02700,-0.20700,83.28000,-0.41000
041225_03.24.13.266,0.43100,0.62600,0.54200,118.56300,18.41000,100.01200,-0.12800,-0.01900,-0.18500,83.86000,0.58000
041225_03.24.13.278,0.48300,0.61800,0.29600,97.94800,40.82700,110.25000,-0.15300,-0.01200,-0.17300,83.51000,-0.35000
041225_03.24.13.289,0.63600,0.52100,0.19900,84.26200,46.00700,108.16800,-0.18300,-0.01000,-0.15900,83.70000,0.19000
041225_03.24.13.301,0.73200,0.45500,0.13500,71.41800,36.80300,95.93500,-0.18300,-0.01000,-0.15900,83.68000,-0.02000
041225_03.24.13.312,0.88600,0.43300,0.02800,54.67000,28.08700,80.32500,-0.20700,-0.00300,-0.14900,83.57000,-0.11000
041225_03.24.13.324,0.80500,0.35400,0.08200,43.13800,13.40500,66.34200,-0.22400,-0.00200,-0.15000,83.87000,0.30000
041225_03.24.13.336,0.79900,0.54400,0.17500,32.77800,1.26000,44.83500,-0.23900,-0.00100,-0.14900,83.31000,-0.56000
041225_03.24.13.348,0.89000,0.70600,0.28100,21.82300,-1.50500,32.06000,-0.24900,-0.00700,-0.14700,83.76000,0.45000
041225_03.24.13.359,0.91600,0.82400,0.13400,5.25000,8.94300,31.46500,-0.24900,-0.00700,-0.14700,82.97000,-0.79000
041225_03.24.13.371,0.97400,0.88300,0.04100,-6.65000,21.50700,32.28700,-0.25700,-0.00600,-0.14900,83.54000,0.57000
041225_03.24.13.382,0.87300,0.82200,0.18500,-20.14200,27.47500,32.04200,-0.27100,-0.01300,-0.15800,83.86000,0.32000
041225_03.24.13.394,0.83500,0.70500,-0.27900,-30.88800,33.61800,28.50700,-0.27800,-0.01800,-0.16000,83.75000,-0.11000
041225_03.24.13.406,0.93900,0.67200,0.00300,-18.69000,10.43000,14.92700,-0.27800,-0.01800,-0.16000,82.67000,-1.08000
041225_03.24.13.418,0.84900,0.55700,0.11700,-18.13000,-1.59200,21.38500,-0.28300,-0.02100,-0.15500,82.90000,0.23000
041225_03.24.13.429,0.74100,0.48000,0.20700,-15.62800,-1.96000,28.75300,-0.29100,-0.02700,-0.15600,83.21000,0.31000
041225_03.24.13.441,0.75600,0.54200,0.18200,-13.05500,4.14800,29.17300,-0.29200,-0.03100,-0.15800,83.68000,0.47000
041225_03.24.13.454,0.77000,0.57300,0.19200,-2.85200,7.73500,30.94000,-0.30200,-0.02600,-0.15200,83.82000,0.14000
041225_03.24.13.465,0.75400,0.54500,0.27400,9.22200,7.78700,36.55700,-0.30200,-0.02600,-0.15200,83.71000,-0.11000
041225_03.24.13.477,0.69900,0.48600,0.31900,15.75000,8.94300,41.70200,-0.31300,-0.02300,-0.15600,83.91000,0.20000
041225_03.24.13.489,0.68600,0.53800,0.33200,19.42500,9.55500,44.29200,-0.32900,-0.02200,-0.15700,84.29000,0.38000
041225_03.24.13.500,0.64600,0.59300,0.19800,29.85500,12.47700,48.21300,-0.33100,-0.01500,-0.14500,83.02000,-1.27000
041225_03.24.13.512,0.77200,0.54100,0.19800,57.47000,17.08000,50.90800,-0.35000,-0.00700,-0.13500,83.28000,0.26000
041225_03.24.13.524,0.67500,0.31600,0.65900,78.31300,12.61800,50.50500,-0.35000,-0.00700,-0.13500,83.53000,0.25000
041225_03.24.13.537,0.62500,0.36100,0.48500,69.66800,12.74000,44.27500,-0.36400,0.00600,-0.13500,83.84000,0.31000
041225_03.24.13.549,0.72700,0.30700,0.44700,66.25500,30.45000,37.22200,-0.37800,0.02000,-0.12800,83.94000,0.10000
041225_03.24.13.560,0.82100,0.13800,0.45300,60.02500,44.99300,27.63200,-0.39100,0.02100,-0.13100,83.27000,-0.67000
041225_03.24.13.572,0.97100,0.08800,0.42000,40.91500,54.91500,16.34500,-0.39100,0.02100,-0.13100,83.48000,0.21000
041225_03.24.13.584,1.12900,0.21700,0.32700,-4.56800,50.34700,17.36000,-0.40500,0.01800,-0.13000,82.98000,-0.50000
041225_03.24.13.596,1.12100,0.43900,0.03400,-14.00000,38.81500,21.21000,-0.42000,0.00800,-0.13800,82.73000,-0.25000
041225_03.24.13.608,1.20600,0.45700,-0.15600,-6.65000,28.73500,24.55200,-0.42900,0.00300,-0.14500,83.21000,0.48000
041225_03.24.13.619,1.30600,0.39000,-0.28100,9.11800,20.94800,28.42000,-0.44200,0.00600,-0.14700,84.38000,1.17000
041225_03.24.13.631,1.37400,0.33400,-0.25200,26.49500,14.52500,37.90500,-0.44200,0.00600,-0.14700,83.23000,-1.15000
041225_03.24.13.643,1.35500,0.27600,-0.13900,37.55500,8.24300,52.69300,-0.44600,0.01400,-0.13700,83.98000,0.75000
041225_03.24.13.654,1.30200,0.23900,-0.05700,42.35000,2.52000,68.07500,-0.45800,0.02500,-0.13100,83.71000,-0.27000
041225_03.24.13.666,1.21200,0.24300,-0.01900,46.58500,-1.54000,78.40000,-0.46900,0.03600,-0.12100,83.09000,-0.62000
041225_03.24.13.677,1.15400,0.21700,0.01600,54.40800,-4.30500,83.30000,-0.48400,0.05700,-0.10700,83.41000,0.32000
041225_03.24.13.689,1.13700,0.19900,0.04100,63.00000,-5.18000,88.60300,-0.48400,0.05700,-0.10700,84.01000,0.60000
041225_03.24.13.700,1.14100,0.15400,0.05100,67.56700,-3.01000,98.08800,-0.49400,0.07800,-0.09500,83.20000,-0.81000
041225_03.24.13.712,1.19600,0.24000,0.15100,65.46700,1.66300,108.95500,-0.50700,0.10200,-0.08600,83.44000,0.24000
041225_03.24.13.724,0.90700,0.26500,0.19200,65.99300,8.36500,115.83300,-0.52100,0.12900,-0.07800,83.37000,-0.07000
041225_03.24.13.736,0.81700,0.21900,0.44100,63.17500,-0.08700,100.52000,-0.52100,0.12900,-0.07800,83.00000,-0.37000
041225_03.24.13.747,0.73800,0.24500,0.87600,-0.26200,-2.38000,71.87200,-0.53200,0.15000,-0.06500,82.99000,-0.01000
041225_03.24.13.759,0.75100,0.47000,0.58100,-40.95000,20.87800,43.36500,-0.54000,0.14900,-0.06800,83.68000,0.69000
041225_03.24.13.770,0.77700,0.58400,0.53600,-57.38200,44.67800,31.93700,-0.54600,0.14000,-0.07700,84.02000,0.34000
041225_03.24.13.782,0.86100,0.67500,0.53700,-55.00200,63.98000,25.97000,-0.55800,0.13000,-0.08900,83.49000,-0.53000
041225_03.24.13.793,0.75700,0.37000,0.63400,-45.90300,78.19000,16.83500,-0.55800,0.13000,-0.08900,83.54000,0.05000
041225_03.24.13.805,0.79100,0.16600,0.48900,-24.37800,81.65500,8.62700,-0.57600,0.12600,-0.10700,83.44000,-0.10000
041225_03.24.13.817,0.95500,0.24200,0.47800,-4.88300,91.42000,15.66300,-0.59200,0.12400,-0.12200,83.35000,-0.09000
041225_03.24.13.829,1.07100,0.26700,0.39600,10.30700,96.02200,29.64500,-0.60900,0.12400,-0.12800,83.36000,0.01000
041225_03.24.13.841,1.11200,0.14100,0.22600,21.42000,91.14000,38.88500,-0.62400,0.12900,-0.14700,83.71000,0.35000
041225_03.24.13.853,1.37600,0.23500,-0.08500,25.09500,82.91500,47.51300,-0.62400,0.12900,-0.14700,83.41000,-0.30000
041225_03.24.13.865,1.92300,0.22300,-1.40400,28.50700,41.24800,36.31300,-0.63600,0.13900,-0.15000,83.80000,0.39000
041225_03.24.13.876,1.66200,0.20700,-0.42700,12.02300,-0.03500,9.10000,-0.63200,0.13800,-0.14300,83.73000,-0.07000
041225_03.24.13.888,1.40700,0.12700,-0.06100,42.80500,-14.03500,30.08300,-0.63500,0.15700,-0.13600,83.35000,-0.38000
041225_03.24.13.900,1.11000,-0.09400,0.18200,55.54500,-7.78700,99.17300,-0.63500,0.15700,-0.13600,83.83000,0.48000
041225_03.24.13.912,1.08200,-0.16800,0.29000,64.24300,-11.69000,100.64300,-0.64600,0.19100,-0.12900,83.37000,-0.46000
041225_03.24.13.924,1.04500,0.07700,0.40300,73.53500,-11.79500,108.53500,-0.64200,0.21200,-0.12000,83.71000,0.34000
041225_03.24.13.935,0.97600,0.06100,0.45500,77.08800,-7.33200,125.35300,-0.64400,0.24500,-0.11500,83.82000,0.11000
041225_03.24.13.947,0.91200,0.06900,0.39800,80.30800,0.94500,141.20800,-0.64500,0.28400,-0.11800,83.79000,-0.03000
041225_03.24.13.959,0.91400,0.09600,0.43800,79.97500,9.22200,148.43500,-0.64500,0.28400,-0.11800,83.25000,-0.54000
041225_03.24.13.971,0.91700,0.11600,0.43600,72.53700,15.76700,149.66000,-0.64300,0.32000,-0.11500,83.58000,0.33000
041225_03.24.13.982,0.86200,0.20200,0.35700,67.20000,18.93500,149.04800,-0.64900,0.35000,-0.11900,83.26000,-0.32000
041225_03.24.13.994,0.82200,0.10000,0.37600,68.93300,24.78000,149.43200,-0.64500,0.38300,-0.11800,83.68000,0.42000
041225_03.24.14.006,0.82000,0.05900,0.40200,68.28500,31.23700,144.90000,-0.64500,0.41100,-0.12800,83.12000,-0.56000
041225_03.24.14.018,0.80500,-0.02700,0.48100,63.84000,37.06500,136.23800,-0.64500,0.41100,-0.12800,83.68000,0.56000
041225_03.24.14.029,0.80000,-0.10500,0.48900,54.25000,40.53000,126.12200,-0.64800,0.44100,-0.13500,83.59000,-0.09000
041225_03.24.14.041,0.78600,-0.25000,0.45900,43.19000,43.69700,114.85300,-0.65300,0.45600,-0.14400,82.98000,-0.61000
041225_03.24.14.053,0.75300,-0.42000,0.44800,34.65000,44.36200,101.41200,-0.64900,0.47400,-0.15700,82.85000,-0.13000
041225_03.24.14.064,0.74300,-0.53000,0.53600,9.78300,39.28700,76.40500,-0.64900,0.47400,-0.15700,83.72000,0.87000
041225_03.24.14.076,0.63300,-0.87800,0.37000,-8.20800,43.64500,71.29500,-0.65600,0.48700,-0.16100,83.46000,-0.26000
041225_03.24.14.087,0.53600,-1.11700,0.34500,-24.65700,46.23500,66.37800,-0.65700,0.49500,-0.16000,82.91000,-0.55000
041225_03.24.14.099,0.52100,-1.18800,0.37200,-38.76300,47.98500,64.13700,-0.65800,0.49700,-0.16400,84.06000,1.15000
041225_03.24.14.111,0.62400,-1.21600,0.24200,-52.27200,43.73300,63.57700,-0.65300,0.49800,-0.16400,83.50000,-0.56000
041225_03.24.14.123,0.71200,-1.17900,0.23400,-58.15300,37.13500,62.14300,-0.65300,0.49800,-0.16400,83.27000,-0.23000
041225_03.24.14.135,0.76700,-1.02400,0.32200,-59.48300,23.57300,66.41200,-0.65200,0.49600,-0.16500,83.44000,0.17000
041225_03.24.14.147,0.79300,-0.87700,0.33100,-56.42000,12.95000,79.83500,-0.63700,0.49800,-0.15600,83.75000,0.31000
041225_03.24.14.158,0.84500,-0.75700,0.40700,-53.42800,8.43500,94.88500,-0.62700,0.49200,-0.14400,83.46000,-0.29000
041225_03.24.14.170,0.81300,-0.65800,0.41600,-50.59200,3.58800,105.08800,-0.60600,0.48800,-0.13600,83.52000,0.06000
041225_03.24.14.182,0.79100,-0.69700,0.44400,-50.52200,-0.03500,110.95000,-0.60600,0.48800,-0.13600,84.31000,0.79000
041225_03.24.14.194,0.76100,-0.69700,0.40700,-55.31800,-1.03300,110.16200,-0.58800,0.48200,-0.13100,83.69000,-0.62000
041225_03.24.14.206,0.75800,-0.69400,0.47400,-56.31500,-3.25500,104.89500,-0.57200,0.48100,-0.11500,83.55000,-0.14000
041225_03.24.14.218,0.71000,-0.69000,0.42600,-56.19300,-2.76500,98.78700,-0.56100,0.47500,-0.10700,83.36000,-0.19000
041225_03.24.14.230,0.68800,-0.75100,0.41700,-50.33000,-7.10500,85.29500,-0.56100,0.47500,-0.10700,83.50000,0.14000
041225_03.24.14.241,0.63600,-0.80400,0.43200,-45.86800,-13.12500,80.48200,-0.55000,0.46900,-0.11100,83.53000,0.03000
041225_03.24.14.253,0.52200,-0.82700,0.47600,-47.05700,-12.95000,81.72500,-0.54300,0.45700,-0.09500,83.40000,-0.13000
041225_03.24.14.265,0.50900,-0.80900,0.45700,-52.01000,-8.36500,84.96300,-0.53600,0.44500,-0.09500,83.32000,-0.08000
041225_03.24.14.277,0.50100,-0.75200,0.42900,-52.23700,-5.37200,86.92300,-0.52600,0.43000,-0.08400,83.91000,0.59000
041225_03.24.14.289,0.51600,-0.74900,0.40700,-44.83500,-6.05500,88.56700,-0.52600,0.43000,-0.08400,83.26000,-0.65000
041225_03.24.14.301,0.54100,-0.76700,0.38000,-36.27800,-7.01700,88.48000,-0.51900,0.42000,-0.08200,83.46000,0.20000
041225_03.24.14.312,0.52700,-0.79700,0.34400,-31.64000,-6.28200,86.71300,-0.51200,0.40600,-0.07900,83.15000,-0.31000
041225_03.24.14.324,0.53900,-0.74300,0.29700,-30.18700,-3.39500,84.28000,-0.50900,0.39600,-0.08300,83.75000,0.60000
041225_03.24.14.336,0.53800,-0.88100,0.29400,-29.75000,0.22800,83.23000,-0.50900,0.38800,-0.08000,83.71000,-0.04000
041225_03.24.14.347,0.53600,-0.88200,0.26700,-33.75700,1.92500,78.96000,-0.50900,0.38800,-0.08000,83.33000,-0.38000
041225_03.24.14.359,0.55000,-0.74100,0.27800,-34.51000,1.08500,74.18300,-0.50600,0.37600,-0.08400,83.62000,0.29000
041225_03.24.14.370,0.53300,-0.68100,0.22700,-28.45500,-1.75000,70.57700,-0.50900,0.36700,-0.08100,83.53000,-0.09000
041225_03.24.14.382,0.45800,-0.69500,0.20200,-17.30800,-2.85200,67.06000,-0.51000,0.36700,-0.08900,83.03000,-0.50000
041225_03.24.14.394,0.54600,-0.66200,0.25500,-5.16200,-7.43700,74.72500,-0.51000,0.36700,-0.09800,83.04000,0.01000
041225_03.24.14.406,0.30700,-0.99700,0.40100,-14.28000,-9.53800,75.65300,-0.51000,0.37000,-0.09800,83.28000,0.24000
041225_03.24.14.418,0.12500,-0.95000,0.40000,-25.84700,-7.40300,72.48500,-0.51100,0.36700,-0.09600,83.46000,0.18000
041225_03.24.14.430,0.05500,-0.96300,0.33700,-35.08800,-1.13800,68.46000,-0.51400,0.36500,-0.10800,83.15000,-0.31000
041225_03.24.14.442,0.20800,-0.90600,0.21200,-41.17800,4.30500,69.21300,-0.51900,0.36200,-0.11700,82.82000,-0.33000
041225_03.24.14.454,0.29500,-0.74900,0.11100,-38.02800,1.20700,84.92700,-0.51900,0.36200,-0.11700,83.08000,0.26000
041225_03.24.14.466,0.33000,-0.76500,0.19800,-24.69200,-2.71300,106.10300,-0.52100,0.36200,-0.11900,83.81000,0.73000
041225_03.24.14.477,0.24600,-0.95300,0.22200,-23.87000,-0.71800,123.25300,-0.52100,0.37100,-0.12400,83.50000,-0.31000
041225_03.24.14.490,0.16700,-0.83600,0.22900,-35.08800,7.43700,136.90200,-0.52700,0.38300,-0.12400,83.72000,0.22000
041225_03.24.14.501,0.09200,-0.77500,0.20400,-41.38800,11.58500,143.16700,-0.53200,0.39900,-0.13900,83.54000,-0.18000
041225_03.24.14.513,-0.02900,-0.89200,0.20600,-42.94500,13.61500,142.24000,-0.53200,0.39900,-0.13900,83.20000,-0.34000
041225_03.24.14.525,-0.13700,-1.01100,0.11800,-46.11200,19.79200,134.33000,-0.53300,0.40800,-0.14500,83.95000,0.75000
041225_03.24.14.537,-0.14000,-1.00800,0.06700,-50.62700,26.56500,123.91800,-0.53400,0.41800,-0.15300,83.53000,-0.42000
041225_03.24.14.549,-0.27800,-1.05000,0.10300,-56.22800,31.09700,103.46000,-0.53600,0.42900,-0.16400,83.92000,0.39000
041225_03.24.14.561,-0.39600,-0.98900,0.12400,-67.37500,50.31300,81.84800,-0.53600,0.42900,-0.17000,84.42000,0.50000
041225_03.24.14.573,-0.76800,-0.92900,0.14500,-63.10500,62.03700,58.69500,-0.53800,0.42900,-0.17000,83.79000,-0.63000
041225_03.24.14.585,-0.47000,-0.88200,0.02600,-57.33000,71.45200,45.13200,-0.54600,0.43100,-0.18000,83.44000,-0.35000
041225_03.24.14.597,-0.08600,-0.87700,0.00300,-48.73700,62.84200,50.85500,-0.56300,0.43800,-0.19400,83.19000,-0.25000
041225_03.24.14.608,-0.10500,-1.01400,-0.00800,-43.34700,35.63000,62.86000,-0.56000,0.44600,-0.19000,82.98000,-0.21000
041225_03.24.14.620,-0.21400,-0.91700,-0.14100,-41.61500,10.50000,61.91500,-0.56000,0.44600,-0.19000,83.75000,0.77000
041225_03.24.14.632,-0.45900,-1.02500,-0.14000,-37.11800,2.41500,53.62000,-0.55400,0.45600,-0.19500,83.30000,-0.45000
041225_03.24.14.644,-0.41600,-0.98600,-0.11400,-37.29200,4.74200,40.61800,-0.55700,0.46200,-0.20400,83.99000,0.69000
041225_03.24.14.656,-0.14900,-0.71500,0.00100,-37.38000,0.94500,37.66000,-0.55300,0.46700,-0.20600,83.61000,-0.38000
041225_03.24.14.667,-0.10000,-0.75000,-0.06100,-31.83300,-13.84200,46.55000,-0.55100,0.47400,-0.19600,83.74000,0.13000
041225_03.24.14.679,-0.18500,-0.85100,-0.08100,-29.78500,-23.53800,52.15000,-0.55100,0.47400,-0.19600,84.35000,0.61000
041225_03.24.14.691,-0.25300,-0.93300,-0.06900,-36.12000,-28.49000,52.92000,-0.53900,0.48400,-0.20800,83.18000,-1.17000
041225_03.24.14.702,-0.29700,-0.87800,-0.13700,-44.66000,-25.60300,50.19000,-0.53400,0.49200,-0.20800,83.15000,-0.03000
041225_03.24.14.714,-0.44200,-0.81300,-0.02800,-47.75700,-18.98700,30.64200,-0.52700,0.49400,-0.20300,83.30000,0.15000
041225_03.24.14.726,-0.52500,-0.73000,0.02400,-50.36500,-2.95700,21.77000,-0.52700,0.49400,-0.19800,83.64000,0.34000
041225_03.24.14.738,-0.64500,-0.62500,-0.02400,-46.91700,1.85500,14.38500,-0.51700,0.50200,-0.19800,84.07000,0.43000
041225_03.24.14.750,-0.62000,-0.64800,-0.04300,-38.18500,2.43300,14.17500,-0.51500,0.50500,-0.19900,82.71000,-1.36000
041225_03.24.14.762,-0.56000,-0.63500,-0.09100,-31.55200,-1.17300,19.61800,-0.51400,0.50600,-0.19600,83.47000,0.76000
041225_03.24.14.774,-0.46800,-0.57400,-0.12500,-25.02500,-2.80000,28.64800,-0.50800,0.51000,-0.18800,83.31000,-0.16000
041225_03.24.14.786,-0.43100,-0.55400,-0.07400,-16.66000,-7.66500,37.78300,-0.50800,0.51000,-0.18800,83.20000,-0.11000
041225_03.24.14.798,-0.31800,-0.41500,-0.00400,-9.69500,-16.13500,48.75500,-0.50300,0.52100,-0.19200,83.47000,0.27000
041225_03.24.14.809,-0.37700,-0.35600,-0.03400,0.66500,-29.73300,61.40800,-0.49300,0.52500,-0.18600,83.74000,0.27000
041225_03.24.14.821,-0.41400,-0.19300,-0.00400,14.85800,-37.45000,77.33200,-0.47500,0.53700,-0.18300,83.07000,-0.67000
041225_03.24.14.833,-0.42900,-0.35600,0.10900,18.55000,-31.41300,98.28000,-0.46100,0.54800,-0.18000,83.20000,0.13000
041225_03.24.14.845,-0.44400,-0.47300,0.05100,16.08300,-25.79500,103.23200,-0.46100,0.54800,-0.18000,83.46000,0.26000
041225_03.24.14.857,-0.35100,-0.37200,0.11900,18.42700,-28.07000,94.41200,-0.44300,0.55800,-0.18500,83.54000,0.08000
041225_03.24.14.869,-0.29700,-0.23900,0.16200,18.46200,-25.30500,88.48000,-0.42200,0.56100,-0.18800,82.94000,-0.60000
041225_03.24.14.881,-0.16600,-0.08100,0.23300,14.56000,-16.62500,102.02500,-0.40400,0.55500,-0.18500,83.64000,0.70000
041225_03.24.14.893,-0.04400,-0.13900,0.23700,14.80500,-19.09300,110.82700,-0.40400,0.55500,-0.17700,83.72000,0.08000
041225_03.24.14.904,0.06700,-0.32200,0.35300,12.39000,-29.27800,115.23800,-0.38000,0.55800,-0.17700,83.96000,0.24000
041225_03.24.14.916,0.02100,-0.37000,0.39700,9.06500,-37.20500,117.25000,-0.35400,0.55000,-0.17900,82.95000,-1.01000
041225_03.24.14.928,-0.05200,-0.35500,0.44800,6.10800,-49.52500,109.69000,-0.33000,0.54700,-0.17500,82.82000,-0.13000
041225_03.24.14.940,-0.22200,-0.37600,0.46600,1.26000,-61.26800,98.21000,-0.29600,0.54400,-0.16700,83.45000,0.63000
041225_03.24.14.952,-0.35100,-0.35200,0.48500,2.03000,-75.28500,84.45500,-0.29600,0.54400,-0.16700,83.55000,0.10000
041225_03.24.14.963,-0.49100,-0.33600,0.45400,5.74000,-90.54500,70.56000,-0.26100,0.53300,-0.16800,83.21000,-0.34000
041225_03.24.14.975,-0.76400,-0.40400,0.37900,7.85800,-95.44500,63.33300,-0.23200,0.53200,-0.16500,83.30000,0.09000
041225_03.24.14.986,-1.01400,-0.51200,0.32500,9.25700,-89.49500,56.36800,-0.19800,0.53300,-0.15600,83.76000,0.46000
041225_03.24.14.998,-1.30600,-0.61300,0.30800,8.80200,-80.71000,44.76500,-0.16300,0.54000,-0.16400,83.44000,-0.32000
041225_03.24.15.010,-1.54200,-0.59300,0.20800,8.08500,-73.25500,29.06800,-0.16300,0.54000,-0.16400,83.24000,-0.20000
041225_03.24.15.022,-1.71700,-0.60100,0.12600,6.10800,-60.23500,20.47500,-0.14400,0.54500,-0.15900,83.48000,0.24000
041225_03.24.15.034,-1.82400,-0.68200,0.05100,5.02300,-48.35300,17.85000,-0.12400,0.55100,-0.16200,83.47000,-0.01000
041225_03.24.15.045,-1.82800,-0.64300,0.00800,2.60800,-42.24500,15.38200,-0.11500,0.56000,-0.16100,82.98000,-0.49000
041225_03.24.15.057,-1.76000,-0.56600,-0.00600,-4.88300,-35.10500,22.64500,-0.11500,0.56000,-0.16300,83.18000,0.20000
041225_03.24.15.069,-1.47500,-0.51100,-0.03800,-8.17200,-29.69800,27.35300,-0.09800,0.56700,-0.16300,82.53000,-0.65000
041225_03.24.15.081,-1.43300,-0.55100,-0.07400,-9.20500,-24.22000,23.88800,-0.08100,0.57000,-0.15900,82.39000,-0.14000
041225_03.24.15.092,-1.35900,-0.52400,-0.04600,-8.43500,-19.33700,16.18700,-0.07900,0.57200,-0.15800,83.31000,0.92000
041225_03.24.15.104,-1.30000,-0.46800,-0.00800,-7.12200,-18.72500,8.97700,-0.06600,0.57600,-0.16500,83.39000,0.08000
041225_03.24.15.116,-1.25300,-0.40400,0.02800,-4.88300,-21.89200,1.55800,-0.06600,0.57600,-0.16500,82.93000,-0.46000
041225_03.24.15.128,-1.20900,-0.32600,0.02400,0.15700,-26.89800,-6.10800,-0.06600,0.58300,-0.16800,83.29000,0.36000
041225_03.24.15.140,-1.21700,-0.38000,-0.00200,4.25300,-29.96000,-13.65000,-0.05900,0.59400,-0.17500,83.25000,-0.04000
041225_03.24.15.152,-1.24800,-0.35800,-0.01800,6.86000,-26.11000,-20.84300,-0.05300,0.60200,-0.17500,83.42000,0.17000
041225_03.24.15.164,-1.24100,-0.31400,-0.01500,8.80200,-19.60000,-23.46800,-0.05500,0.60600,-0.17400,83.43000,0.01000
041225_03.24.15.175,-1.02300,-0.26400,0.03800,11.53300,-17.18500,-21.61200,-0.05500,0.60600,-0.17400,82.85000,-0.58000
041225_03.24.15.187,-1.18900,-0.31900,-0.01000,15.69800,-21.00000,-10.97200,-0.05600,0.61800,-0.17500,83.16000,0.31000
041225_03.24.15.199,-1.29300,-0.43100,0.02800,18.28800,-16.83500,-12.00500,-0.06100,0.62800,-0.18100,83.47000,0.31000
041225_03.24.15.211,-1.11200,-0.43100,0.05400,21.07000,-4.84700,-41.89500,-0.06100,0.63600,-0.18900,82.96000,-0.51000
041225_03.24.15.223,-1.02900,-0.46100,0.17400,33.53000,0.40300,-52.16700,-0.06100,0.63600,-0.18800,82.82000,-0.14000
041225_03.24.15.235,-1.08000,-0.48700,0.20700,39.34000,5.88000,-57.13800,-0.06500,0.65100,-0.18800,82.77000,-0.05000
041225_03.24.15.247,-0.96100,-0.41000,0.31000,44.39700,13.70300,-67.06000,-0.08000,0.66900,-0.19400,82.52000,-0.25000
041225_03.24.15.258,-0.81600,-0.35000,0.40500,52.16700,13.09000,-71.47000,-0.08800,0.68800,-0.19700,82.69000,0.17000
041225_03.24.15.270,-0.92200,-0.36900,0.37800,62.45800,1.82000,-68.46000,-0.09500,0.70600,-0.20300,83.69000,1.00000
041225_03.24.15.282,-1.05200,-0.44400,0.38000,68.63500,-11.88200,-58.74800,-0.09500,0.70600,-0.20300,82.93000,-0.76000
041225_03.24.15.293,-1.02000,-0.42400,0.37600,65.99300,-24.01000,-42.28000,-0.10700,0.71600,-0.21800,82.64000,-0.29000
041225_03.24.15.305,-0.94200,-0.44500,0.38000,64.54000,-33.46000,-26.96800,-0.11100,0.72700,-0.22400,83.13000,0.49000
041225_03.24.15.317,-0.80500,-0.46800,0.39500,67.06000,-36.22500,-16.41500,-0.10800,0.73900,-0.24000,82.78000,-0.35000
041225_03.24.15.329,-0.64200,-0.52500,0.45700,67.77800,-33.95000,-13.35200,-0.10700,0.74300,-0.25100,82.86000,0.08000
041225_03.24.15.341,-0.56000,-0.64200,0.37400,71.82000,-30.53800,-17.36000,-0.10700,0.74300,-0.25100,82.98000,0.12000
041225_03.24.15.352,-0.84000,-0.82800,0.30700,77.07000,-32.39300,-29.24300,-0.10900,0.75400,-0.27300,83.57000,0.59000
041225_03.24.15.364,-1.04600,-0.83400,0.29800,77.49000,-36.55700,-46.97000,-0.11400,0.77000,-0.28400,82.83000,-0.74000
041225_03.24.15.375,-1.03500,-0.78300,0.32900,63.03500,-26.30200,-69.40500,-0.12300,0.78500,-0.29500,82.92000,0.09000
041225_03.24.15.387,-0.96300,-0.73000,0.39300,56.59500,-20.44000,-76.94800,-0.12300,0.79200,-0.31100,82.77000,-0.15000
041225_03.24.15.399,-0.88300,-0.66200,0.38900,55.68500,-16.80000,-82.63500,-0.14200,0.79200,-0.31100,82.15000,-0.62000
041225_03.24.15.411,-0.94600,-0.64800,0.38700,55.31800,-19.98500,-86.53700,-0.15300,0.80200,-0.32100,82.90000,0.75000
041225_03.24.15.423,-0.93500,-0.59800,0.42900,52.37700,-23.24000,-84.29800,-0.17100,0.81600,-0.33400,82.46000,-0.44000
041225_03.24.15.435,-0.85900,-0.61200,0.46200,45.92000,-21.19200,-73.72800,-0.18600,0.82300,-0.34000,83.24000,0.78000
041225_03.24.15.446,-0.76700,-0.63600,0.47300,40.07500,-19.02300,-60.07700,-0.18600,0.82300,-0.34000,82.76000,-0.48000
041225_03.24.15.458,-0.66600,-0.63700,0.49800,37.64300,-15.33000,-47.07500,-0.19400,0.82800,-0.35100,82.55000,-0.21000
041225_03.24.15.470,-0.56900,-0.66300,0.55700,36.59200,-8.87300,-38.20200,-0.19800,0.83800,-0.35900,82.98000,0.43000
041225_03.24.15.482,-0.53400,-0.71700,0.60900,33.98500,-3.39500,-37.01300,-0.21100,0.83900,-0.36700,82.49000,-0.49000
041225_03.24.15.494,-0.51900,-0.69700,0.61000,31.51700,-0.59500,-43.66200,-0.22300,0.84100,-0.37100,83.26000,0.77000
041225_03.24.15.508,-0.50500,-0.66000,0.61600,33.54800,-0.12300,-53.72500,-0.22300,0.84100,-0.37100,82.58000,-0.68000
041225_03.24.15.519,-0.51200,-0.62200,0.66300,38.58800,0.29800,-64.15500,-0.23900,0.84900,-0.37600,83.27000,0.69000
041225_03.24.15.531,-0.47200,-0.57200,0.72200,43.83800,0.75200,-72.27500,-0.25300,0.85100,-0.38200,82.71000,-0.56000
041225_03.24.15.542,-0.38800,-0.52100,0.75400,53.55000,-1.75000,-75.77500,-0.26800,0.86300,-0.39900,83.08000,0.37000
041225_03.24.15.554,-0.33900,-0.57400,0.78100,59.08000,-7.21000,-75.42500,-0.26800,0.86300,-0.40600,82.82000,-0.26000
041225_03.24.15.566,-0.46200,-0.60600,0.78500,61.86200,-12.32000,-77.56000,-0.28300,0.86800,-0.40600,83.16000,0.34000
041225_03.24.15.578,-0.52900,-0.60600,0.77100,62.87700,-13.66800,-81.77800,-0.30500,0.86800,-0.41300,83.54000,0.38000
041225_03.24.15.589,-0.50100,-0.59800,0.78600,65.24000,-12.35500,-85.45200,-0.32400,0.87000,-0.43000,82.83000,-0.71000
041225_03.24.15.601,-0.43100,-0.64300,0.83500,69.35300,-12.95000,-84.00000,-0.33800,0.87200,-0.44500,82.57000,-0.26000
041225_03.24.15.613,-0.42700,-0.72900,0.85200,70.45500,-17.01000,-79.76500,-0.33800,0.87200,-0.44500,82.77000,0.20000
041225_03.24.15.625,-0.47600,-0.78700,0.82500,65.92300,-18.46200,-78.33000,-0.35600,0.86900,-0.45500,83.16000,0.39000
041225_03.24.15.636,-0.54500,-0.85000,0.78100,58.17000,-15.80200,-80.01000,-0.37300,0.87000,-0.46700,83.07000,-0.09000
041225_03.24.15.648,-0.56200,-0.85800,0.71500,53.88200,-15.22500,-81.23500,-0.38800,0.87100,-0.47800,83.14000,0.07000
041225_03.24.15.660,-0.52800,-0.84500,0.65800,54.11000,-16.17000,-77.75300,-0.40800,0.86900,-0.48700,83.53000,0.39000
041225_03.24.15.672,-0.48900,-0.85400,0.69300,55.96500,-16.81700,-72.39700,-0.40800,0.86900,-0.48700,83.13000,-0.40000
041225_03.24.15.683,-0.50600,-0.80900,0.72300,53.39300,-18.67300,-68.40800,-0.42100,0.86500,-0.50000,83.47000,0.34000
041225_03.24.15.695,-0.53400,-0.75400,0.71200,47.35500,-22.69800,-63.56000,-0.43900,0.85700,-0.50500,83.13000,-0.34000
041225_03.24.15.706,-0.46300,-0.61900,0.69000,36.89000,-24.13200,-34.93000,-0.44900,0.85700,-0.50900,83.24000,0.11000
041225_03.24.15.718,-0.33200,-0.43900,1.05400,40.98500,-21.63000,-1.17300,-0.44900,0.85700,-0.51600,83.32000,0.08000
041225_03.24.15.729,-0.29000,-0.35300,1.14600,36.78500,-26.42500,31.93700,-0.45000,0.85900,-0.51600,83.27000,-0.05000
041225_03.24.15.741,-0.34000,-0.30600,1.06500,25.25300,-36.54000,59.39500,-0.44300,0.86400,-0.52100,82.79000,-0.48000
041225_03.24.15.753,-0.43100,-0.31500,0.85200,20.51000,-52.20200,83.44000,-0.43200,0.87000,-0.51800,83.21000,0.42000
041225_03.24.15.764,-0.60900,-0.40400,0.68300,34.45800,-72.43300,98.91000,-0.41500,0.87600,-0.52500,83.41000,0.20000
041225_03.24.15.776,-0.70300,-0.54100,0.64700,61.47800,-89.47800,98.54300,-0.41500,0.87600,-0.52500,83.11000,-0.30000
041225_03.24.15.787,-0.75000,-0.73900,0.65500,83.19500,-91.21000,77.64700,-0.39200,0.87300,-0.53800,83.64000,0.53000
041225_03.24.15.799,-0.73100,-0.91000,0.67600,93.97500,-76.98200,30.80000,-0.38700,0.87100,-0.55500,83.21000,-0.43000
041225_03.24.15.810,-0.55600,-0.91100,0.78500,97.26500,-53.60300,-29.61000,-0.40100,0.87000,-0.57400,82.37000,-0.84000
041225_03.24.15.822,-0.43200,-0.67200,0.82100,101.93800,-43.08500,-78.06700,-0.42200,0.85400,-0.58900,82.38000,0.01000
041225_03.24.15.833,-0.39600,-0.47300,0.83400,107.15300,-45.48300,-95.56700,-0.42200,0.85400,-0.58900,83.34000,0.96000
041225_03.24.15.845,-0.43200,-0.35100,0.84900,103.11000,-45.60500,-96.37200,-0.44600,0.83900,-0.60600,83.32000,-0.02000
041225_03.24.15.856,-0.42400,-0.21700,0.83300,97.00300,-37.20500,-93.36300,-0.46000,0.82500,-0.62200,83.65000,0.33000
041225_03.24.15.868,-0.36900,-0.10500,0.88500,99.83800,-20.12500,-73.09800,-0.48300,0.81200,-0.64100,83.39000,-0.26000
041225_03.24.15.879,-0.27200,-0.10700,0.97300,100.15300,-15.24300,-56.70000,-0.48300,0.81200,-0.66000,83.23000,-0.16000
041225_03.24.15.891,-0.29100,-0.11700,0.99700,102.51500,-9.15300,-43.03300,-0.49300,0.79800,-0.66000,83.50000,0.27000
041225_03.24.15.902,-0.27900,-0.08400,1.05500,105.84000,-2.43300,-31.99000,-0.50500,0.78600,-0.68200,82.91000,-0.59000
041225_03.24.15.914,-0.23900,-0.06000,1.13000,108.95500,0.91000,-20.05500,-0.51200,0.76700,-0.69300,83.46000,0.55000
041225_03.24.15.925,-0.17900,-0.06500,1.13800,111.47500,0.77000,-7.66500,-0.51600,0.75500,-0.71100,83.28000,-0.18000
041225_03.24.15.937,-0.14000,-0.10400,1.14700,115.30800,-2.76500,3.79800,-0.51600,0.75500,-0.71100,83.17000,-0.11000
041225_03.24.15.948,-0.12300,-0.16200,1.04500,121.01200,-11.11300,13.31800,-0.51900,0.74800,-0.73100,83.48000,0.31000
041225_03.24.15.960,-0.10400,-0.31000,1.06000,129.74500,-34.61500,26.30200,-0.52100,0.73200,-0.73400,83.10000,-0.38000
041225_03.24.15.971,-0.36300,-0.21800,1.06500,135.92300,-62.84200,38.29000,-0.53100,0.71300,-0.75500,83.09000,-0.01000
041225_03.24.15.983,-0.40500,-0.08700,1.06100,134.90800,-66.36000,29.92500,-0.54000,0.69300,-0.75900,82.70000,-0.39000
041225_03.24.15.994,-0.23500,0.06100,1.01500,128.74700,-59.67500,9.87000,-0.54000,0.69300,-0.75900,83.55000,0.85000
041225_03.24.16.006,-0.14400,0.10900,1.05700,132.35200,-65.80000,-3.62200,-0.55000,0.67300,-0.76800,82.63000,-0.92000
041225_03.24.16.017,-0.17800,0.12900,1.04800,134.22500,-81.00700,-9.11800,-0.57100,0.64600,-0.76600,82.90000,0.27000
041225_03.24.16.029,-0.12600,0.09800,1.01100,124.70500,-103.33800,-18.77800,-0.58200,0.62200,-0.76200,82.90000,0.00000
041225_03.24.16.041,-0.18800,0.12800,0.76800,116.07700,-106.01500,-17.43000,-0.58200,0.59800,-0.75300,83.07000,0.17000
041225_03.24.16.052,-0.25700,0.08600,0.59700,103.04000,-102.97000,-14.54300,-0.60700,0.59800,-0.75300,82.97000,-0.10000
041225_03.24.16.064,-0.28700,0.07500,0.51200,94.64000,-95.13000,-19.88000,-0.62300,0.58300,-0.74600,82.66000,-0.31000
041225_03.24.16.075,-0.30000,0.15300,0.61500,91.45500,-85.89000,-31.29000,-0.63800,0.56100,-0.73200,83.32000,0.66000
041225_03.24.16.087,-0.21900,0.31900,0.76000,85.55800,-81.55000,-41.12500,-0.64900,0.54000,-0.71800,82.37000,-0.95000
041225_03.24.16.098,-0.08300,0.42700,0.84600,75.93300,-87.34200,-44.01300,-0.64900,0.54000,-0.71800,83.22000,0.85000
041225_03.24.16.110,-0.07200,0.60400,0.81300,68.61800,-100.43300,-43.85500,-0.66400,0.52300,-0.70400,83.27000,0.05000
041225_03.24.16.121,-0.08600,0.58400,0.72000,65.87000,-113.96000,-38.74500,-0.67600,0.50800,-0.68000,82.84000,-0.43000
041225_03.24.16.133,-0.02100,0.62100,0.57400,62.59700,-126.40300,-36.94300,-0.69100,0.49500,-0.66500,82.78000,-0.06000
041225_03.24.16.144,0.06100,0.71300,0.33800,64.62800,-133.17500,-37.06500,-0.70100,0.47700,-0.65100,83.52000,0.74000
041225_03.24.16.156,0.08800,0.64200,0.11800,69.12500,-131.70500,-38.43000,-0.70100,0.47700,-0.65100,83.02000,-0.50000
041225_03.24.16.168,0.20400,0.54800,0.02700,71.75000,-118.05500,-46.49800,-0.71100,0.45900,-0.62600,83.34000,0.32000
041225_03.24.16.179,0.33000,0.54300,0.08200,66.13200,-109.04300,-72.94000,-0.72600,0.43800,-0.61200,83.45000,0.11000
041225_03.24.16.191,0.32600,0.53600,0.06000,63.99800,-97.02000,-79.43300,-0.72800,0.41500,-0.58400,83.13000,-0.32000
041225_03.24.16.203,0.11000,0.58800,0.01100,66.27200,-89.39000,-85.97800,-0.72800,0.39500,-0.57300,82.97000,-0.16000
041225_03.24.16.214,0.13100,0.74900,0.07800,65.17000,-79.18800,-87.76200,-0.73000,0.39500,-0.57300,83.13000,0.16000
041225_03.24.16.226,0.23400,0.80900,0.20600,65.83500,-66.64000,-82.72300,-0.73000,0.36800,-0.56000,83.09000,-0.04000
041225_03.24.16.238,0.22000,0.76800,0.24500,66.76200,-59.02800,-75.91500,-0.72500,0.34200,-0.54700,82.62000,-0.47000
041225_03.24.16.249,0.18700,0.70500,0.29100,68.58200,-55.12500,-74.32300,-0.72000,0.32600,-0.53200,82.88000,0.26000
041225_03.24.16.261,0.19200,0.67100,0.38300,71.34800,-55.12500,-75.89700,-0.72000,0.32600,-0.53200,82.96000,0.08000
041225_03.24.16.272,0.22800,0.75100,0.52600,74.95200,-60.06000,-77.17500,-0.71500,0.30900,-0.51900,83.28000,0.32000
041225_03.24.16.284,0.26400,0.88400,0.55900,76.45700,-71.01500,-77.78700,-0.70700,0.28700,-0.50300,83.51000,0.23000
041225_03.24.16.295,0.25500,0.94700,0.40900,74.65500,-81.49700,-75.35500,-0.70100,0.27000,-0.48300,83.14000,-0.37000
041225_03.24.16.307,0.23500,0.88100,0.22400,67.21700,-82.12800,-71.54000,-0.69400,0.26000,-0.47700,83.24000,0.10000
041225_03.24.16.318,0.24200,0.92400,0.09100,50.26000,-68.11000,-68.86300,-0.69400,0.26000,-0.47700,83.33000,0.09000
041225_03.24.16.330,0.20800,0.87500,0.11100,29.97800,-45.64000,-65.60700,-0.68400,0.24600,-0.46900,82.55000,-0.78000
041225_03.24.16.341,0.19400,0.78300,0.32200,10.85000,-22.29500,-68.35500,-0.66900,0.23700,-0.46300,83.08000,0.53000
041225_03.24.16.353,0.22000,0.69600,0.51500,-18.28800,-17.71000,-76.38700,-0.66600,0.22600,-0.46300,83.34000,0.26000
041225_03.24.16.364,0.12600,0.78400,0.66600,-31.32500,-26.61800,-86.66000,-0.66600,0.20800,-0.46100,83.72000,0.38000
041225_03.24.16.376,0.01400,0.82100,0.57900,-41.75500,-38.29000,-93.20500,-0.64500,0.20800,-0.46100,83.97000,0.25000
041225_03.24.16.387,-0.00500,0.87000,0.49900,-50.57500,-47.61800,-98.24500,-0.63000,0.19500,-0.46700,82.94000,-1.03000
041225_03.24.16.399,-0.05600,0.88100,0.43900,-54.89700,-50.99500,-103.26800,-0.60900,0.18500,-0.46700,83.00000,0.06000
041225_03.24.16.410,-0.06200,0.81000,0.48100,-58.36200,-49.87500,-106.90800,-0.58800,0.17300,-0.46700,83.25000,0.25000
041225_03.24.16.422,-0.08200,0.79300,0.56500,-61.56500,-47.00500,-112.14000,-0.58800,0.17300,-0.46700,82.89000,-0.36000
041225_03.24.16.434,-0.17200,0.80200,0.61000,-58.78300,-46.49800,-118.52800,-0.56100,0.16300,-0.47200,83.29000,0.40000
041225_03.24.16.445,-0.13700,0.73100,0.56300,-54.70500,-47.60000,-122.23800,-0.53700,0.15700,-0.47600,83.02000,-0.27000
041225_03.24.16.457,-0.18000,0.57400,0.46300,-49.47200,-40.61800,-126.03500,-0.51000,0.15000,-0.47900,82.58000,-0.44000
041225_03.24.16.469,-0.19800,0.46100,0.45300,-44.31000,-24.13200,-136.15000,-0.48200,0.15000,-0.49000,82.26000,-0.32000
041225_03.24.16.480,-0.25500,0.55600,0.57100,-38.37700,-8.47000,-152.46000,-0.48200,0.15000,-0.49000,83.04000,0.78000
041225_03.24.16.492,-0.36800,0.62200,0.66800,-30.85300,-4.27000,-167.98200,-0.45000,0.14900,-0.50400,82.32000,-0.72000
041225_03.24.16.503,-0.49200,0.71200,0.73700,-23.64200,-26.40700,-183.96000,-0.41300,0.16100,-0.51900,83.13000,0.81000
041225_03.24.16.515,-0.52700,0.96100,0.72900,-6.98300,-42.33300,-167.59800,-0.38000,0.17400,-0.54200,82.58000,-0.55000
041225_03.24.16.526,-0.78500,0.76900,0.67700,-7.98000,-53.23500,-147.50800,-0.38000,0.19600,-0.56500,82.47000,-0.11000
041225_03.24.16.538,-0.65700,0.77800,0.58500,-11.14800,-61.04000,-131.56500,-0.35800,0.19600,-0.56500,83.10000,0.63000
041225_03.24.16.550,-0.60100,0.81300,0.55400,-17.51700,-55.51000,-108.83300,-0.33700,0.23100,-0.59700,82.67000,-0.43000
041225_03.24.16.561,-0.60200,0.72200,0.55900,-28.63000,-43.73300,-88.63700,-0.34000,0.26000,-0.63700,82.71000,0.04000
041225_03.24.16.573,-0.58700,0.61700,0.55300,-37.88800,-37.66000,-79.64300,-0.33900,0.30300,-0.68200,83.54000,0.83000
041225_03.24.16.584,-0.58100,0.54700,0.61000,-42.19300,-38.51800,-80.71000,-0.33900,0.30300,-0.68200,82.95000,-0.59000
041225_03.24.16.596,-0.57300,0.53300,0.68900,-43.13800,-42.98000,-89.00500,-0.34900,0.35000,-0.72700,82.79000,-0.16000
041225_03.24.16.608,-0.58700,0.53700,0.70200,-41.47500,-45.51800,-101.30800,-0.37700,0.39500,-0.79400,82.62000,-0.17000
041225_03.24.16.619,-0.58900,0.58100,0.74900,-35.92800,-49.42000,-117.84500,-0.41500,0.44600,-0.85900,82.77000,0.15000
041225_03.24.16.631,-0.59500,0.68400,0.69800,-32.18200,-54.61800,-132.40500,-0.48000,0.48600,-0.92400,82.97000,0.20000
041225_03.24.16.642,-0.66000,0.83500,0.48500,-23.99300,-61.28500,-144.69000,-0.48000,0.48600,-0.92400,83.14000,0.17000
041225_03.24.16.654,-0.66500,0.76400,0.57600,-5.35500,-75.23200,-151.48000,-0.57100,0.50600,-1.00200,83.23000,0.09000
041225_03.24.16.666,-0.55600,0.85200,0.64300,-9.25700,-78.43500,-133.99700,-0.67200,0.50900,-1.07200,82.77000,-0.46000
041225_03.24.16.677,-0.60300,0.84000,0.46000,-18.81200,-73.36000,-126.45500,-0.78800,0.50500,-1.14100,82.35000,-0.42000
041225_03.24.16.689,-0.77400,0.73400,0.37800,-25.11200,-63.59500,-123.20000,-0.78800,0.48000,-1.20400,82.70000,0.35000
041225_03.24.16.701,-0.82300,0.67300,0.38600,-27.87800,-50.41700,-117.60000,-0.89600,0.48000,-1.20400,83.03000,0.33000
041225_03.24.16.712,-0.79500,0.60000,0.42400,-30.52000,-37.69500,-107.20500,-0.99300,0.43000,-1.26000,83.28000,0.25000
041225_03.24.16.724,-0.75700,0.51800,0.47800,-33.77500,-27.07300,-94.18500,-1.07000,0.36800,-1.31500,83.04000,-0.24000
041225_03.24.16.735,-0.71900,0.40300,0.50200,-36.27800,-20.00300,-85.80200,-1.11800,0.30600,-1.36900,83.64000,0.60000
041225_03.24.16.747,-0.75700,0.42400,0.50400,-35.42000,-15.64500,-90.84200,-1.11800,0.30600,-1.36900,82.88000,-0.76000
041225_03.24.16.758,-0.78500,0.41000,0.53300,-13.35200,-6.91200,-93.17000,-1.14700,0.21200,-1.41800,83.01000,0.13000
041225_03.24.16.770,-0.78100,0.42600,0.51300,-0.99800,-1.38300,-94.76200,-1.14700,0.10200,-1.45000,82.91000,-0.10000
041225_03.24.16.782,-0.67800,0.40600,0.62000,7.22700,-1.12000,-95.09500,-1.11000,-0.00400,-1.47400,82.70000,-0.21000
041225_03.24.16.793,-0.65100,0.40500,0.76200,5.51200,-0.31500,-91.35000,-1.06900,-0.09700,-1.50100,82.93000,0.23000
041225_03.24.16.805,-0.66300,0.34800,0.79500,-1.54000,0.96200,-84.66500,-1.06900,-0.09700,-1.50100,82.95000,0.02000
041225_03.24.16.817,-0.69700,0.25700,0.79000,-7.29800,-1.12000,-80.93800,-1.02300,-0.17600,-1.51200,83.61000,0.66000
041225_03.24.16.828,-0.70000,0.22700,0.80700,-20.33500,-8.52300,-84.99700,-0.97000,-0.23900,-1.51600,83.97000,0.36000
041225_03.24.16.840,-0.70400,0.20000,0.91300,-28.63000,-14.70000,-83.77200,-0.92000,-0.29300,-1.53200,83.83000,-0.14000
041225_03.24.16.852,-0.58900,0.28900,0.92700,-34.30000,-26.53000,-74.90000,-0.92000,-0.33300,-1.54000,82.89000,-0.94000
041225_03.24.16.863,-0.62700,0.26100,0.91100,-31.30800,-33.18000,-56.17500,-0.88300,-0.33300,-1.54000,83.04000,0.15000
041225_03.24.16.875,-0.60800,0.30200,0.72300,-19.00500,-28.59500,-31.57000,-0.85200,-0.37200,-1.55000,83.19000,0.15000
041225_03.24.16.887,-0.68400,0.07700,0.85700,-5.00500,-23.55500,-10.60500,-0.82900,-0.40200,-1.56100,82.64000,-0.55000
041225_03.24.16.898,-0.72900,0.03700,0.84800,-11.51500,-7.91000,-4.97000,-0.80500,-0.41700,-1.57600,83.16000,0.52000
041225_03.24.16.910,-0.71000,0.03600,0.81700,-21.08700,-0.78800,-11.35800,-0.80500,-0.41700,-1.57600,83.07000,-0.09000
041225_03.24.16.921,-0.64100,0.00100,0.80600,-26.58300,-2.48500,-15.52300,-0.77300,-0.42900,-1.57700,83.44000,0.37000
041225_03.24.16.933,-0.67700,-0.03100,0.83600,-30.01300,-10.01000,-17.65700,-0.74100,-0.43500,-1.58000,83.39000,-0.05000
041225_03.24.16.945,-0.71200,-0.03700,0.87500,-36.03300,-18.13000,-19.63500,-0.71900,-0.43500,-1.58100,83.12000,-0.27000
041225_03.24.16.956,-0.71900,-0.07400,0.87800,-48.37000,-23.24000,-23.01300,-0.69800,-0.41900,-1.59700,83.17000,0.05000
041225_03.24.16.968,-0.72600,-0.12500,0.86300,-62.07300,-25.25300,-30.38000,-0.69800,-0.41900,-1.59700,83.13000,-0.04000
041225_03.24.16.979,-0.57900,-0.07200,0.91000,-70.42000,-25.46200,-41.38800,-0.67600,-0.39800,-1.59400,83.20000,0.07000
041225_03.24.16.991,-0.49200,0.01000,0.93500,-63.57700,-35.92800,-45.39500,-0.65700,-0.38100,-1.59600,82.85000,-0.35000
041225_03.24.17.002,-0.45100,0.04800,0.88500,-54.32000,-38.74500,-34.09000,-0.65000,-0.36400,-1.60400,82.94000,0.09000
041225_03.24.17.014,-0.46700,-0.05600,0.90600,-43.66200,-36.75000,-18.56700,-0.65000,-0.35300,-1.60800,83.70000,0.76000
041225_03.24.17.025,-0.49100,-0.17600,0.94900,-37.06500,-31.58700,-5.79300,-0.64400,-0.35300,-1.60800,82.94000,-0.76000
041225_03.24.17.037,-0.50000,-0.24100,0.96000,-33.96700,-26.23300,1.34700,-0.64600,-0.34700,-1.60600,82.84000,-0.10000
041225_03.24.17.049,-0.54000,-0.25000,0.99200,-31.23700,-26.88000,-0.43700,-0.64500,-0.33900,-1.60800,83.66000,0.82000
041225_03.24.17.060,-0.50200,-0.20300,0.96500,-29.38200,-37.11800,-8.48800,-0.65200,-0.33500,-1.60100,83.01000,-0.65000
041225_03.24.17.072,-0.54200,-0.21400,0.98900,-27.98300,-49.43800,-13.58000,-0.65200,-0.33500,-1.60100,83.35000,0.34000
041225_03.24.17.084,-0.56200,-0.19200,0.99000,-30.24000,-64.26000,-17.06200,-0.66700,-0.33500,-1.58400,83.24000,-0.11000
041225_03.24.17.095,-0.52300,-0.15700,0.98100,-34.93000,-77.36800,-16.64200,-0.70200,-0.33200,-1.58000,83.05000,-0.19000
041225_03.24.17.107,-0.48200,-0.14900,0.98000,-39.65500,-87.34200,-10.74500,-0.74500,-0.32000,-1.56200,83.69000,0.64000
041225_03.24.17.119,-0.44200,-0.14600,0.98000,-42.99800,-93.95700,-2.01300,-0.80300,-0.31000,-1.54500,82.64000,-1.05000
041225_03.24.17.131,-0.42100,-0.16100,0.98000,-43.15500,-97.23000,7.29800,-0.80300,-0.31000,-1.54500,82.73000,0.09000
041225_03.24.17.142,-0.37500,-0.19400,0.99000,-40.51300,-95.93500,14.10500,-0.85700,-0.29400,-1.51900,83.32000,0.59000
041225_03.24.17.154,-0.29600,-0.23200,1.02700,-31.50000,-82.72300,16.74700,-0.91300,-0.28100,-1.49000,83.52000,0.20000
041225_03.24.17.166,-0.13500,-0.30700,1.06200,-25.23500,-73.65800,13.16000,-0.95400,-0.27300,-1.46100,83.54000,0.02000
041225_03.24.17.178,-0.13700,-0.34000,1.04600,-19.25000,-63.87500,8.31300,-0.95400,-0.27200,-1.43300,82.78000,-0.76000
041225_03.24.17.189,-0.15600,-0.34800,1.04400,-16.73000,-55.03700,4.48000,-0.99000,-0.27200,-1.43300,83.02000,0.24000
041225_03.24.17.201,-0.10200,-0.37500,1.10000,-18.42700,-48.38800,-0.99800,-1.02200,-0.27500,-1.40500,82.79000,-0.23000
041225_03.24.17.213,-0.19300,-0.41500,1.18200,-31.50000,-48.79000,-8.17200,-1.04800,-0.27800,-1.38100,83.05000,0.26000
041225_03.24.17.225,-0.20100,-0.36500,1.23400,-59.34200,-28.54200,-6.07300,-1.06900,-0.26300,-1.36800,83.66000,0.61000
041225_03.24.17.236,-0.12500,-0.24800,1.18100,-73.46500,-0.35000,2.74700,-1.06900,-0.26300,-1.36800,83.06000,-0.60000
041225_03.24.17.248,-0.01700,-0.22900,1.13400,-60.16500,1.48700,5.81000,-1.08600,-0.24800,-1.35200,83.40000,0.34000
041225_03.24.17.259,-0.06900,-0.26900,1.00800,-37.13500,-13.31800,3.37800,-1.11100,-0.24400,-1.31900,83.72000,0.32000
041225_03.24.17.271,-0.20700,-0.27200,0.87800,-15.52300,-28.71800,-0.66500,-1.14200,-0.26200,-1.26700,83.27000,-0.45000
041225_03.24.17.282,-0.34100,-0.27200,0.83900,0.07000,-46.09500,-1.33000,-1.18300,-0.27800,-1.20000,83.39000,0.12000
041225_03.24.17.294,-0.34900,-0.26600,0.90400,3.39500,-62.86000,-2.27500,-1.18300,-0.27800,-1.20000,83.11000,-0.28000
041225_03.24.17.305,-0.26900,-0.28000,0.98500,0.77000,-78.73200,2.97500,-1.21700,-0.29100,-1.12700,83.30000,0.19000
041225_03.24.17.317,-0.17900,-0.25600,1.03700,-6.09000,-107.52000,5.21500,-1.25000,-0.31100,-1.04100,83.27000,-0.03000
041225_03.24.17.329,-0.05000,-0.31400,1.03200,-7.19300,-121.18800,10.02800,-1.27900,-0.31700,-0.94400,83.08000,-0.19000
041225_03.24.17.341,0.04200,-0.30300,0.98100,-6.30000,-136.90200,13.40500,-1.27900,-0.33300,-0.83900,83.26000,0.18000
041225_03.24.17.353,0.22900,-0.31500,0.97600,-5.54800,-151.07700,18.53200,-1.30700,-0.33300,-0.83900,83.28000,0.02000
041225_03.24.17.364,0.37000,-0.36500,0.96100,-7.59500,-165.07700,28.12200,-1.32500,-0.34000,-0.72700,83.27000,-0.01000
041225_03.24.17.376,0.37300,-0.38300,0.91300,-13.37000,-176.68000,38.25500,-1.33400,-0.34300,-0.61200,83.29000,0.02000
041225_03.24.17.388,0.35300,-0.35600,0.89000,-17.95500,-184.76500,46.86500,-1.33300,-0.34600,-0.49100,82.71000,-0.58000
041225_03.24.17.400,0.32600,-0.33600,0.90800,-22.82000,-193.13000,54.32000,-1.33300,-0.34600,-0.49100,83.68000,0.97000
041225_03.24.17.411,0.34300,-0.27600,0.95800,-28.57700,-201.79200,59.13200,-1.32200,-0.34800,-0.36800,83.58000,-0.10000
041225_03.24.17.423,0.38600,-0.34400,1.04000,-36.08500,-200.20000,67.13000,-1.29000,-0.34700,-0.26800,83.37000,-0.21000
041225_03.24.17.435,0.32300,-0.43500,1.04700,-44.50200,-181.19500,76.38700,-1.25000,-0.34400,-0.19700,83.93000,0.56000
041225_03.24.17.447,0.32400,-0.31400,0.95700,-50.85500,-147.94500,80.25500,-1.19800,-0.33700,-0.15500,83.51000,-0.42000
041225_03.24.17.458,0.44800,-0.33000,0.94000,-54.58300,-122.36000,82.09200,-1.19800,-0.33700,-0.15500,83.42000,-0.09000
041225_03.24.17.470,0.47300,-0.42900,0.81900,-51.53700,-120.52200,72.97500,-1.14700,-0.33700,-0.10800,83.21000,-0.21000
041225_03.24.17.481,0.42000,-0.51500,0.71900,-34.89500,-125.23000,63.14000,-1.09200,-0.33800,-0.07800,82.52000,-0.69000
041225_03.24.17.493,0.52400,-0.60000,0.73700,-34.40500,-125.49300,55.51000,-1.03700,-0.33600,-0.05900,82.89000,0.37000
041225_03.24.17.505,0.51900,-0.63000,0.75500,-38.69300,-132.05500,55.17800,-1.03700,-0.33500,-0.05100,83.81000,0.92000
041225_03.24.17.516,0.36900,-0.67400,0.66600,-43.80300,-136.99000,60.70800,-0.98000,-0.33500,-0.05100,83.54000,-0.27000
041225_03.24.17.528,0.29300,-0.70000,0.57300,-48.80700,-127.82000,68.58200,-0.92500,-0.33200,-0.04800,84.19000,0.65000
041225_03.24.17.540,0.44000,-0.68300,0.51900,-52.78000,-114.17000,76.51000,-0.88000,-0.32700,-0.05700,83.77000,-0.42000
041225_03.24.17.551,0.60500,-0.75600,0.40300,-59.15000,-112.01800,83.73800,-0.85100,-0.31600,-0.07900,83.91000,0.14000
041225_03.24.17.563,0.60500,-0.70700,0.27400,-69.59800,-116.18300,84.66500,-0.85100,-0.31600,-0.07900,83.96000,0.05000
041225_03.24.17.574,0.61700,-0.70500,0.27500,-76.47500,-110.56500,84.68300,-0.82700,-0.31100,-0.09300,83.21000,-0.75000
041225_03.24.17.586,0.57500,-0.76300,0.31000,-74.88200,-106.22500,85.69800,-0.80200,-0.30600,-0.11900,83.12000,-0.09000
041225_03.24.17.597,0.43800,-0.90000,0.30900,-72.97500,-107.41500,88.51500,-0.78400,-0.30200,-0.14300,83.27000,0.15000
041225_03.24.17.609,0.32000,-0.91000,0.32600,-77.77000,-108.11500,91.66500,-0.77200,-0.28800,-0.17200,83.25000,-0.02000
041225_03.24.17.621,0.35900,-0.84600,0.25300,-88.60300,-100.36300,93.10000,-0.77200,-0.28800,-0.17200,83.30000,0.05000
041225_03.24.17.632,0.49300,-0.81500,0.13400,-90.44000,-85.29500,86.97500,-0.76900,-0.27900,-0.20400,83.36000,0.06000
041225_03.24.17.644,0.55200,-0.87500,0.10600,-75.49500,-67.21700,76.63200,-0.76600,-0.26500,-0.23800,83.42000,0.06000
041225_03.24.17.655,0.57200,-1.02100,0.19900,-78.94200,-68.58200,48.52800,-0.76400,-0.25200,-0.26100,83.57000,0.15000
041225_03.24.17.667,0.54900,-1.04100,0.18400,-67.93500,-73.34200,22.22500,-0.76400,-0.24800,-0.29100,83.26000,-0.31000
041225_03.24.17.678,0.48700,-0.94200,0.04400,-50.29500,-76.87800,3.58800,-0.74800,-0.24800,-0.29100,83.52000,0.26000
041225_03.24.17.690,0.41400,-0.94900,-0.04900,-42.42000,-72.87000,-5.02300,-0.72900,-0.24400,-0.30500,83.26000,-0.26000
041225_03.24.17.701,0.40800,-1.00400,-0.06200,-44.87000,-64.78500,-5.79300,-0.71000,-0.24200,-0.33100,83.59000,0.33000
041225_03.24.17.713,0.54300,-0.98900,-0.01300,-52.25500,-60.20000,-5.89800,-0.69900,-0.23400,-0.35300,83.18000,-0.41000
041225_03.24.17.725,0.70400,-0.95900,0.09600,-63.31500,-71.73200,-2.57200,-0.69900,-0.23400,-0.35300,83.39000,0.21000
041225_03.24.17.736,0.70700,-0.95400,0.12900,-79.88700,-98.77000,6.52800,-0.68800,-0.22700,-0.37700,83.25000,-0.14000
041225_03.24.17.748,0.72000,-0.92600,0.04600,-98.05200,-124.93300,18.58500,-0.68100,-0.21300,-0.40100,83.69000,0.44000
041225_03.24.17.759,0.65500,-0.93000,-0.08800,-110.56500,-141.27700,29.97800,-0.68100,-0.19500,-0.41700,82.95000,-0.74000
041225_03.24.17.771,0.54500,-0.92300,-0.16900,-115.53500,-148.15500,32.60300,-0.68000,-0.17300,-0.43800,83.83000,0.88000
041225_03.24.17.782,0.50600,-0.87600,-0.14700,-116.34000,-144.35700,31.15000,-0.68000,-0.17300,-0.43800,83.35000,-0.48000
041225_03.24.17.794,0.44300,-0.80200,-0.12400,-115.72800,-140.42000,35.24500,-0.68400,-0.15400,-0.45800,83.83000,0.48000
041225_03.24.17.806,0.37100,-0.77400,-0.16200,-113.55800,-139.45800,39.51500,-0.69700,-0.13100,-0.46800,83.40000,-0.43000
041225_03.24.17.817,0.34800,-0.67700,-0.26900,-109.28700,-141.03300,45.22000,-0.70100,-0.10500,-0.47700,83.17000,-0.23000
041225_03.24.17.829,0.42000,-0.67700,-0.29000,-98.33200,-143.62200,48.42300,-0.71700,-0.08400,-0.47100,84.23000,1.06000
041225_03.24.17.840,0.52600,-0.79700,-0.27800,-82.23200,-145.09200,47.07500,-0.71700,-0.08400,-0.47100,83.72000,-0.51000
041225_03.24.17.852,0.57900,-0.80000,-0.21700,-83.42300,-149.62500,42.68200,-0.72300,-0.05700,-0.46500,83.30000,-0.42000
041225_03.24.17.863,0.38100,-0.74200,-0.24700,-87.25500,-155.15500,35.26300,-0.73000,-0.03800,-0.45500,83.25000,-0.05000
041225_03.24.17.875,0.16200,-0.66800,-0.33500,-85.55800,-157.32500,27.07300,-0.73200,-0.02000,-0.43000,83.23000,-0.02000
041225_03.24.17.887,0.06500,-0.67100,-0.38600,-78.75000,-155.97700,23.04800,-0.73200,-0.02000,-0.43000,82.95000,-0.28000
041225_03.24.17.898,0.00400,-0.67200,-0.40500,-72.73000,-154.21000,22.06700,-0.72900,-0.00300,-0.41000,82.99000,0.04000
041225_03.24.17.910,-0.15700,-0.66500,-0.46300,-71.78500,-151.79500,24.48300,-0.73500,0.01500,-0.39000,83.46000,0.47000
041225_03.24.17.921,-0.24700,-0.61500,-0.51700,-72.71300,-146.14300,32.48000,-0.73000,0.03100,-0.37400,83.40000,-0.06000
041225_03.24.17.933,-0.18500,-0.62500,-0.51500,-73.62200,-139.63300,45.22000,-0.73200,0.04600,-0.35900,84.32000,0.92000
041225_03.24.17.944,-0.06200,-0.66600,-0.50900,-75.77500,-136.53500,52.93800,-0.73200,0.04600,-0.35900,83.62000,-0.70000
041225_03.24.17.956,0.03100,-0.66400,-0.52900,-76.63200,-137.76000,43.43500,-0.72500,0.05700,-0.33300,83.74000,0.12000
041225_03.24.17.967,0.04800,-0.66500,-0.53300,-69.80800,-135.01200,32.07700,-0.71800,0.06800,-0.31100,83.62000,-0.12000
041225_03.24.17.979,-0.00200,-0.61300,-0.54600,-66.58800,-128.64300,20.42300,-0.70700,0.07700,-0.29100,83.55000,-0.07000
041225_03.24.17.991,-0.08900,-0.60300,-0.57500,-61.09200,-118.09000,8.85500,-0.69000,0.07800,-0.26400,83.92000,0.37000
041225_03.24.18.002,-0.19600,-0.61000,-0.55500,-56.89300,-106.36500,2.45000,-0.69000,0.07800,-0.26400,83.51000,-0.41000
041225_03.24.18.014,-0.28500,-0.61200,-0.52700,-57.26000,-98.26200,0.91000,-0.67100,0.08300,-0.25000,83.24000,-0.27000
041225_03.24.18.025,-0.33700,-0.63500,-0.53200,-59.11500,-98.75300,1.45200,-0.65300,0.08600,-0.22900,83.50000,0.26000
041225_03.24.18.037,-0.38700,-0.64500,-0.52900,-62.09000,-105.01800,1.19000,-0.62700,0.08600,-0.22000,83.93000,0.43000
041225_03.24.18.048,-0.44300,-0.64000,-0.53900,-65.62500,-112.82300,-0.21000,-0.62700,0.08600,-0.22000,83.77000,-0.16000
041225_03.24.18.060,-0.52900,-0.64300,-0.58500,-69.38700,-118.51000,-2.29300,-0.60400,0.08400,-0.20800,83.85000,0.08000
041225_03.24.18.071,-0.57000,-0.60000,-0.58200,-73.39500,-119.12200,-2.01300,-0.57500,0.08600,-0.19000,83.78000,-0.07000
041225_03.24.18.083,-0.36500,-0.48300,-0.41500,-74.21700,-120.05000,3.09800,-0.54800,0.08600,-0.17900,83.54000,-0.24000
041225_03.24.18.094,-0.68500,-0.56800,-0.51100,-81.44500,-129.08000,17.72800,-0.51900,0.08400,-0.17200,84.01000,0.47000
041225_03.24.18.106,-0.75600,-0.48300,-0.51700,-83.07300,-124.51200,18.20000,-0.51900,0.08400,-0.17200,83.31000,-0.70000
041225_03.24.18.117,-0.65900,-0.43100,-0.48500,-67.39300,-116.27000,3.90200,-0.49100,0.08200,-0.16300,83.86000,0.55000
041225_03.24.18.129,-0.63600,-0.35700,-0.31400,-62.91200,-113.29500,-0.36800,-0.45900,0.07800,-0.15200,84.14000,0.28000
041225_03.24.18.141,-0.73200,-0.34500,-0.33500,-59.23700,-111.56300,-4.86500,-0.42900,0.07300,-0.14200,83.46000,-0.68000
041225_03.24.18.152,-0.83700,-0.32000,-0.36700,-55.47500,-105.40300,-7.64800,-0.39800,0.07300,-0.14300,84.25000,0.79000
041225_03.24.18.164,-0.91000,-0.31100,-0.37900,-49.70000,-96.42500,-8.87300,-0.39800,0.07300,-0.14300,83.26000,-0.99000
041225_03.24.18.175,-0.95700,-0.30900,-0.37200,-45.51800,-85.97800,-8.57500,-0.37400,0.07000,-0.14100,83.60000,0.34000
041225_03.24.18.187,-0.99900,-0.32400,-0.36500,-42.31500,-76.52800,-7.57700,-0.35300,0.06600,-0.13900,83.02000,-0.58000
041225_03.24.18.198,-1.02900,-0.33100,-0.39800,-39.56800,-67.53300,-6.73800,-0.33100,0.06800,-0.13300,83.27000,0.25000
041225_03.24.18.210,-0.99800,-0.32500,-0.38100,-37.69500,-57.99500,-5.60000,-0.33100,0.06800,-0.13300,83.74000,0.47000
041225_03.24.18.221,-0.96400,-0.31300,-0.34000,-36.41700,-51.83500,-5.32000,-0.31500,0.06500,-0.13100,83.46000,-0.28000
041225_03.24.18.233,-0.91200,-0.26500,-0.28100,-35.33300,-49.70000,-5.32000,-0.29900,0.06600,-0.12700,83.32000,-0.14000
041225_03.24.18.244,-0.89600,-0.25300,-0.24300,-34.87700,-50.87300,-4.00800,-0.28400,0.06500,-0.12700,83.21000,-0.11000
041225_03.24.18.256,-0.90600,-0.24000,-0.25800,-34.14300,-52.29000,-4.37500,-0.26800,0.06500,-0.13300,83.74000,0.53000
041225_03.24.18.267,-0.93500,-0.18200,-0.30900,-33.21500,-51.34500,-6.14200,-0.26800,0.06500,-0.13300,83.81000,0.07000
041225_03.24.18.279,-0.95900,-0.14000,-0.34000,-35.00000,-43.87300,-2.04700,-0.25600,0.06100,-0.13700,83.09000,-0.72000
041225_03.24.18.290,-0.93400,-0.19600,-0.04800,-36.06800,-42.89300,-1.90800,-0.24800,0.06000,-0.13700,83.01000,-0.08000
041225_03.24.18.302,-1.25400,0.11700,0.26200,-34.94700,-52.81500,-5.18000,-0.23300,0.05600,-0.13600,83.88000,0.87000
041225_03.24.18.314,-1.41800,0.39600,-0.19300,-25.81200,-70.47300,4.60200,-0.21900,0.05200,-0.13900,84.10000,0.22000
041225_03.24.18.325,-1.40600,-0.09100,-0.47500,-45.64000,-79.53700,41.16000,-0.21900,0.05200,-0.13900,83.73000,-0.37000
041225_03.24.18.337,-1.11400,-0.30900,-0.26600,-53.42800,-80.78000,36.01500,-0.21200,0.04600,-0.15200,83.35000,-0.38000
041225_03.24.18.348,-0.91200,-0.08700,-0.24300,-63.59500,-81.46300,26.12800,-0.20400,0.03800,-0.16400,84.08000,0.73000
041225_03.24.18.360,-0.80300,0.21700,-0.02500,-64.69800,-78.20700,34.35300,-0.19600,0.02600,-0.17700,83.86000,-0.22000
041225_03.24.18.371,-1.08400,0.13000,-0.11600,-68.74000,-59.32500,56.36800,-0.19600,0.02600,-0.17700,84.48000,0.62000
041225_03.24.18.382,-1.30900,0.00700,-0.26600,-70.33200,-37.31000,64.15500,-0.19400,0.01100,-0.19100,83.80000,-0.68000
041225_03.24.18.394,-1.16600,-0.11100,-0.33400,-62.45800,-20.58000,53.86500,-0.20000,0.00100,-0.20100,83.47000,-0.33000
041225_03.24.18.406,-0.94600,-0.11500,-0.26400,-57.99500,-12.88000,42.59500,-0.20600,-0.00800,-0.20900,83.60000,0.13000
041225_03.24.18.417,-0.89100,-0.11300,-0.24600,-60.67300,-13.56300,38.97200,-0.20600,-0.01800,-0.22000,83.64000,0.04000
041225_03.24.18.429,-0.82600,-0.06000,-0.26900,-63.50700,-18.58500,41.42300,-0.20600,-0.01800,-0.22000,83.90000,0.26000
041225_03.24.18.440,-0.82600,-0.01000,-0.37200,-56.64700,-11.44500,52.53500,-0.21500,-0.02700,-0.22500,83.86000,-0.04000
041225_03.24.18.452,-0.81300,-0.09200,-0.35100,-60.35800,-3.99000,68.21500,-0.22000,-0.03900,-0.24000,84.10000,0.24000
041225_03.24.18.463,-0.98500,-0.00500,-0.24400,-61.30300,-6.54500,80.72800,-0.22700,-0.04400,-0.24800,83.85000,-0.25000
041225_03.24.18.475,-1.11700,-0.02200,-0.20700,-59.34200,-20.30000,85.12000,-0.24700,-0.05300,-0.26300,83.96000,0.11000
041225_03.24.18.486,-1.13800,0.03900,-0.22700,-62.73700,-36.20800,88.16500,-0.24700,-0.05300,-0.26300,83.78000,-0.18000
041225_03.24.18.498,-1.15200,0.13400,-0.33900,-67.16500,-49.28000,89.14500,-0.25400,-0.06600,-0.28100,83.58000,-0.20000
041225_03.24.18.509,-1.02900,0.31400,-0.47800,-68.51200,-55.68500,90.87800,-0.26500,-0.07300,-0.29200,83.94000,0.36000
041225_03.24.18.521,-0.79700,0.53900,-0.67500,-57.40000,-57.47000,99.22500,-0.27700,-0.08000,-0.29500,83.41000,-0.53000
041225_03.24.18.533,-0.78800,0.42400,-0.61300,-36.78500,-56.15800,111.77200,-0.27700,-0.08000,-0.29500,84.01000,0.60000
041225_03.24.18.544,-0.69300,0.49800,-0.56400,-23.15300,-51.38000,123.67300,-0.30100,-0.08300,-0.29200,83.73000,-0.28000
041225_03.24.18.556,-0.79800,0.38800,-0.39800,-11.90000,-47.44300,137.13000,-0.31900,-0.08200,-0.30200,83.53000,-0.20000
041225_03.24.18.567,-1.16100,0.10800,0.07600,-7.10500,-40.74000,139.61500,-0.33900,-0.07300,-0.30500,83.39000,-0.14000
041225_03.24.18.579,-1.33000,0.42400,0.03300,-17.20200,-31.29000,110.77500,-0.35500,-0.07700,-0.30200,83.99000,0.60000
041225_03.24.18.590,-1.25100,0.68900,-0.04600,-26.21500,-20.61500,87.36000,-0.35500,-0.07700,-0.30200,83.55000,-0.44000
041225_03.24.18.602,-1.18000,0.71400,-0.13300,-15.20800,-34.93000,50.66200,-0.36500,-0.07200,-0.30600,83.53000,-0.02000
041225_03.24.18.613,-0.93900,0.43500,-0.10500,-23.52000,-51.60800,36.97800,-0.37100,-0.07400,-0.31200,83.24000,-0.29000
041225_03.24.18.625,-1.01700,0.26800,-0.11600,-38.79800,-58.24000,35.05300,-0.37300,-0.07300,-0.31400,83.89000,0.65000
041225_03.24.18.636,-1.02400,0.14400,-0.10900,-59.72800,-51.97500,42.91000,-0.37600,-0.07300,-0.32000,83.17000,-0.72000
041225_03.24.18.648,-0.92800,0.10100,-0.07900,-80.16800,-44.18800,61.70500,-0.37600,-0.07300,-0.32000,83.73000,0.56000
041225_03.24.18.659,-0.88200,0.38400,0.04000,-81.28700,-39.27000,82.65300,-0.38200,-0.07100,-0.33300,83.63000,-0.10000
041225_03.24.18.671,-0.82900,0.46300,0.13800,-69.63200,-40.75700,86.03000,-0.40100,-0.07400,-0.33600,83.94000,0.31000
041225_03.24.18.682,-0.83800,0.44300,0.15400,-61.35500,-44.10000,78.22500,-0.40500,-0.07100,-0.34900,83.66000,-0.28000
041225_03.24.18.694,-0.82600,0.50800,0.18500,-56.07000,-45.64000,71.29500,-0.40500,-0.07100,-0.34900,83.78000,0.12000
041225_03.24.18.705,-0.77800,0.59400,0.25200,-51.11800,-49.68200,66.09800,-0.41200,-0.06900,-0.35200,83.95000,0.17000
041225_03.24.18.717,-0.73500,0.65700,0.28100,-47.23300,-56.85800,60.77800,-0.42100,-0.07000,-0.35600,84.03000,0.08000
041225_03.24.18.728,-0.73600,0.66300,0.25900,-43.24300,-61.37300,57.75000,-0.42700,-0.06300,-0.35600,83.48000,-0.55000
041225_03.24.18.740,-0.74700,0.65300,0.25600,-40.14500,-62.12500,54.96700,-0.42900,-0.06200,-0.36300,83.37000,-0.11000
041225_03.24.18.751,-0.73800,0.63900,0.25700,-38.79800,-61.37300,51.03000,-0.42900,-0.06200,-0.36300,83.94000,0.57000
041225_03.24.18.763,-0.62600,0.86300,0.44700,-16.60800,-68.60000,57.24300,-0.43600,-0.06000,-0.36100,83.93000,-0.01000
041225_03.24.18.774,-0.67400,0.67800,0.33300,-4.62000,-68.96700,51.78300,-0.44200,-0.05500,-0.35300,83.11000,-0.82000
041225_03.24.18.786,-0.68500,0.53600,0.37200,-2.55500,-67.93500,41.42300,-0.44500,-0.05000,-0.34700,83.62000,0.51000
041225_03.24.18.797,-0.68500,0.57800,0.47600,-4.91800,-63.99800,38.97200,-0.45100,-0.04500,-0.34200,83.61000,-0.01000
041225_03.24.18.809,-0.61800,0.65900,0.43600,-6.03700,-54.72200,39.88200,-0.45100,-0.04500,-0.34200,83.58000,-0.03000
041225_03.24.18.821,-0.59600,0.64100,0.39200,-5.46000,-47.77500,42.08800,-0.45000,-0.04400,-0.33500,83.39000,-0.19000
041225_03.24.18.832,-0.62600,0.60100,0.37100,-8.05000,-41.51000,46.55000,-0.45400,-0.04100,-0.33000,83.59000,0.20000
041225_03.24.18.844,-0.64900,0.55400,0.30800,-13.86000,-32.32200,51.50200,-0.46200,-0.04000,-0.33100,83.16000,-0.43000
041225_03.24.18.856,-0.55200,0.62200,0.31000,-18.77800,-24.37800,54.75700,-0.46200,-0.04000,-0.33100,84.43000,1.27000
041225_03.24.18.868,-0.51500,0.67700,0.35600,-22.52300,-22.54000,56.40300,-0.47300,-0.03500,-0.33500,83.45000,-0.98000
041225_03.24.18.879,-0.54200,0.70500,0.36700,-25.09500,-21.59500,56.12300,-0.48200,-0.03600,-0.34100,84.06000,0.61000
041225_03.24.18.891,-0.52000,0.74000,0.36800,-25.86500,-18.56700,55.75500,-0.48900,-0.03300,-0.34600,84.12000,0.06000
041225_03.24.18.903,-0.50600,0.70800,0.36400,-26.07500,-16.11800,56.80500,-0.49200,-0.02800,-0.34300,83.69000,-0.43000
041225_03.24.18.914,-0.46000,0.71800,0.39300,-27.38800,-14.77000,57.99500,-0.49200,-0.02800,-0.34300,83.75000,0.06000
041225_03.24.18.926,-0.44600,0.74900,0.42800,-24.95500,-15.19000,55.61500,-0.49800,-0.02200,-0.34600,83.94000,0.19000
041225_03.24.18.938,-0.37900,0.82000,0.50300,-24.50000,-14.47200,53.20000,-0.50700,-0.01800,-0.34500,83.67000,-0.27000
041225_03.24.18.950,-0.37900,0.87000,0.48000,-16.87000,-19.68700,53.30500,-0.51500,-0.02300,-0.34700,83.32000,-0.35000
041225_03.24.18.961,-0.37200,0.91900,0.47700,-4.49700,-23.52000,52.60500,-0.52400,-0.01200,-0.34000,84.27000,0.95000
041225_03.24.18.973,-0.38800,0.97000,0.46300,7.21000,-21.82300,55.03700,-0.52400,-0.01200,-0.34000,83.30000,-0.97000
041225_03.24.18.985,-0.38700,0.85700,0.44400,19.11000,-14.84000,59.30700,-0.53000,-0.00100,-0.33400,83.59000,0.29000
041225_03.24.18.996,-0.37100,0.71400,0.47900,25.74300,-9.66000,58.04800,-0.53900,0.00700,-0.33300,83.49000,-0.10000
041225_03.24.19.008,-0.22700,0.81400,0.36600,26.23300,-11.76000,53.28700,-0.54500,0.01700,-0.32900,83.46000,-0.03000
041225_03.24.19.020,-0.26400,0.78800,0.37600,26.72200,-21.59500,53.00700,-0.54500,0.01700,-0.32900,83.36000,-0.10000
041225_03.24.19.031,-0.28300,0.77000,0.36700,22.19000,-31.99000,55.89500,-0.55000,0.01900,-0.31300,83.64000,0.28000
041225_03.24.19.043,-0.36400,0.76600,0.48400,15.61000,-41.35300,56.78700,-0.55100,0.02800,-0.30800,83.69000,0.05000
041225_03.24.19.055,-0.28900,0.95400,0.44400,12.16300,-43.47000,56.21000,-0.56000,0.03800,-0.30300,83.72000,0.03000
041225_03.24.19.066,-0.26800,0.88200,0.48300,11.93500,-42.08800,49.84000,-0.56000,0.04100,-0.29700,83.96000,0.24000
041225_03.24.19.078,-0.23100,0.87000,0.51700,5.40700,-31.57000,28.84000,-0.56000,0.04100,-0.29700,83.36000,-0.60000
041225_03.24.19.090,-0.11400,0.91500,0.31200,8.97700,-39.48000,22.03200,-0.55700,0.04300,-0.29000,83.56000,0.20000
041225_03.24.19.101,-0.18500,0.94800,0.27000,11.02500,-52.67500,12.93200,-0.55500,0.04700,-0.28300,83.57000,0.01000
041225_03.24.19.113,-0.12700,0.86600,0.38400,20.75500,-57.99500,19.65300,-0.55600,0.04900,-0.26700,84.08000,0.51000
041225_03.24.19.125,-0.08500,0.79500,0.34600,30.31000,-56.28000,36.05000,-0.55300,0.05900,-0.25600,83.57000,-0.51000
041225_03.24.19.136,-0.15000,0.42600,0.51400,40.47800,-51.45000,53.63800,-0.55300,0.05900,-0.25600,83.47000,-0.10000
041225_03.24.19.148,0.08500,0.66000,0.56900,40.88000,-52.41200,60.56800,-0.56200,0.06600,-0.24800,83.57000,0.10000
041225_03.24.19.160,0.19800,1.06300,0.50700,33.70500,-44.10000,66.53500,-0.56200,0.07500,-0.24400,84.01000,0.44000
041225_03.24.19.171,0.06300,1.06300,0.38100,26.09300,-24.74500,72.69500,-0.56800,0.08500,-0.23900,83.31000,-0.70000
041225_03.24.19.183,0.02000,0.91900,0.33300,36.52200,-1.59200,78.19000,-0.56800,0.08500,-0.23900,83.94000,0.63000
041225_03.24.19.194,0.00900,0.76300,0.44300,52.41200,9.94000,87.76200,-0.58100,0.10100,-0.22800,83.77000,-0.17000
041225_03.24.19.206,0.09900,0.93300,0.12500,62.47500,8.40000,99.62800,-0.58500,0.12500,-0.22300,83.99000,0.22000
041225_03.24.19.217,-0.03000,0.77600,0.59000,82.60000,14.15800,115.79800,-0.60100,0.14300,-0.22300,84.09000,0.10000
041225_03.24.19.229,-0.19000,0.91600,0.80300,72.25700,21.47200,108.78000,-0.61400,0.16100,-0.22600,83.59000,-0.50000
041225_03.24.19.240,-0.17900,1.03800,0.00900,66.41200,80.30800,73.62200,-0.61400,0.16100,-0.22600,83.51000,-0.08000
041225_03.24.19.252,0.12600,0.80900,1.00900,81.28700,75.42500,63.40300,-0.62500,0.17900,-0.23200,84.15000,0.64000
041225_03.24.19.263,0.07100,0.79600,0.74800,58.87000,39.58500,56.10500,-0.63300,0.19700,-0.23400,83.87000,-0.28000
041225_03.24.19.275,-0.04800,0.87100,0.78400,46.39300,-6.33500,45.93800,-0.64300,0.20800,-0.22500,84.06000,0.19000
041225_03.24.19.286,-0.00700,0.93000,0.77100,32.04200,-51.15300,28.66500,-0.63500,0.21600,-0.21800,84.22000,0.16000
041225_03.24.19.298,-0.02300,0.86600,0.68300,10.22000,-89.56500,13.16000,-0.63500,0.21600,-0.21800,83.91000,-0.31000
041225_03.24.19.310,0.10900,0.54600,0.47200,-6.61500,-114.01200,-1.01500,-0.63200,0.21700,-0.19700,84.70000,0.79000
041225_03.24.19.321,0.18000,0.49800,0.07800,-1.38300,-110.44200,-18.63800,-0.61500,0.21400,-0.18400,83.12000,-1.58000
041225_03.24.19.333,0.22000,0.67500,-0.14200,27.80800,-86.24000,-26.47800,-0.60300,0.21600,-0.17100,83.61000,0.49000
041225_03.24.19.344,0.20900,0.93200,-0.11800,60.65500,-64.31300,-23.87000,-0.60300,0.21600,-0.17100,83.82000,0.21000
041225_03.24.19.356,-0.04700,1.12500,0.18400,47.72200,-77.59500,-33.84500,-0.59700,0.21700,-0.15900,83.40000,-0.42000
041225_03.24.19.367,-0.05400,1.14000,0.61300,-3.97300,-101.32500,-59.55300,-0.57700,0.20400,-0.14800,83.74000,0.34000
041225_03.24.19.379,-0.21800,1.30200,-0.18400,-39.76000,-127.64500,-75.98500,-0.55100,0.19400,-0.13500,83.83000,0.09000
041225_03.24.19.390,0.20800,1.19800,0.25100,-13.49300,-141.17300,-51.83500,-0.53800,0.18600,-0.12700,84.06000,0.23000
041225_03.24.19.402,0.13700,1.55900,0.23000,-23.59000,-44.48500,16.62500,-0.53800,0.18600,-0.12700,83.71000,-0.35000
041225_03.24.19.413,-0.21100,1.08300,0.23800,50.43500,-44.76500,14.15800,-0.52900,0.19000,-0.11900,83.47000,-0.24000
041225_03.24.19.425,0.15700,0.66300,0.14600,62.54500,-44.32700,23.85300,-0.52300,0.20000,-0.10700,84.44000,0.97000
041225_03.24.19.437,0.08200,0.80900,0.09200,72.64300,-46.06000,36.48700,-0.52000,0.21800,-0.09800,83.71000,-0.73000
041225_03.24.19.448,0.05100,0.77000,0.06900,81.83000,-47.39000,43.43500,-0.51200,0.23400,-0.09700,83.74000,0.03000
041225_03.24.19.460,0.08500,0.77700,-0.04800,84.40300,-47.79200,48.89500,-0.51200,0.23400,-0.09700,84.26000,0.52000
041225_03.24.19.471,0.13500,0.82700,-0.11000,84.77000,-46.77800,54.25000,-0.50400,0.25200,-0.07900,84.19000,-0.07000
041225_03.24.19.483,0.18500,0.82500,-0.09500,83.70200,-47.12700,56.68200,-0.50300,0.27000,-0.07300,84.00000,-0.19000
041225_03.24.19.495,0.21800,0.87300,-0.13900,79.81700,-50.19000,57.69800,-0.49700,0.29200,-0.07300,84.01000,0.01000
041225_03.24.19.506,0.19800,0.92700,-0.16900,76.63200,-52.02800,59.43000,-0.49700,0.29200,-0.07300,83.66000,-0.35000
041225_03.24.19.518,0.21000,0.96400,-0.14700,76.80800,-50.31300,62.54500,-0.48900,0.31100,-0.06600,84.20000,0.54000
041225_03.24.19.529,0.19300,0.98900,-0.13500,79.60700,-45.23700,64.96000,-0.48000,0.33100,-0.06100,83.74000,-0.46000
041225_03.24.19.541,0.19700,0.99000,-0.13600,84.64700,-39.62000,67.14700,-0.47200,0.35300,-0.05900,84.17000,0.43000
041225_03.24.19.552,0.20200,0.96000,-0.13100,90.80800,-36.01500,72.13500,-0.47200,0.37800,-0.05400,83.93000,-0.24000
041225_03.24.19.564,0.21000,0.90700,-0.18500,111.00300,-25.74300,89.21500,-0.47200,0.37800,-0.05400,84.39000,0.46000
041225_03.24.19.575,0.24300,0.87700,-0.34100,116.09500,-10.97200,100.55500,-0.46900,0.40200,-0.05700,83.32000,-1.07000
041225_03.24.19.587,0.45700,0.70700,-0.32000,115.99000,-2.03000,111.44000,-0.45900,0.43300,-0.05400,83.96000,0.64000
041225_03.24.19.599,0.52100,0.74300,-0.44400,112.85700,-0.64700,122.36000,-0.46000,0.46100,-0.06100,84.14000,0.18000
041225_03.24.19.610,0.44100,0.83900,-0.72600,118.30000,7.59500,136.09800,-0.45700,0.49000,-0.06900,83.80000,-0.34000
041225_03.24.19.622,0.57800,0.36000,-0.56200,125.49300,29.43500,144.06000,-0.45700,0.49000,-0.06900,83.43000,-0.37000
041225_03.24.19.634,1.27000,-0.63400,-0.14300,102.51500,35.77000,120.17300,-0.45400,0.52300,-0.07500,84.06000,0.63000
041225_03.24.19.645,1.65000,-0.93700,0.11100,41.45800,-10.37700,54.60000,-0.45400,0.53200,-0.07000,83.78000,-0.28000
041225_03.24.19.657,0.93500,0.56300,-0.52800,-15.38200,-77.17500,11.44500,-0.43900,0.53000,-0.06000,83.55000,-0.23000
041225_03.24.19.669,-0.12800,1.38800,-1.01900,8.54000,-89.46000,21.96200,-0.43900,0.53000,-0.06000,84.06000,0.51000
041225_03.24.19.680,0.01200,0.71400,-0.84300,44.52000,-32.91700,36.90800,-0.42200,0.54400,-0.06600,83.64000,-0.42000
041225_03.24.19.692,0.83900,0.46500,-0.69600,48.82500,9.34500,39.02500,-0.42600,0.55500,-0.06700,84.16000,0.52000
041225_03.24.19.703,0.65000,0.61900,-0.90900,52.48300,14.08700,41.65000,-0.42500,0.57000,-0.07800,83.48000,-0.68000
041225_03.24.19.715,0.59000,0.57700,-0.89400,59.55300,28.38500,48.72000,-0.42300,0.58000,-0.08600,84.07000,0.59000
041225_03.24.19.726,0.67500,0.58900,-0.87100,65.78300,49.84000,50.52200,-0.42300,0.58000,-0.08600,83.91000,-0.16000
041225_03.24.19.738,0.69100,0.54900,-0.67400,62.89500,53.28700,47.09200,-0.42900,0.59200,-0.09200,84.27000,0.36000
041225_03.24.19.749,1.20400,0.39600,-0.37200,59.55300,39.70800,26.42500,-0.43400,0.61000,-0.09800,84.07000,-0.20000
041225_03.24.19.761,0.78100,0.57800,-0.41800,53.51500,9.60800,-11.34000,-0.43900,0.61200,-0.11200,83.48000,-0.59000
041225_03.24.19.772,0.48900,0.55000,-0.47000,54.40800,-1.54000,-26.32000,-0.44000,0.62000,-0.11800,83.56000,0.08000
041225_03.24.19.784,0.45500,0.50300,-0.43800,52.53500,1.47000,-20.79000,-0.44000,0.62000,-0.11800,83.84000,0.28000
041225_03.24.19.795,0.59800,0.51000,-0.36300,49.14000,7.82300,-11.58500,-0.43800,0.62800,-0.12300,84.15000,0.31000
041225_03.24.19.807,0.69800,0.39300,-0.21000,56.96300,9.01200,-10.97200,-0.44600,0.63400,-0.12900,83.85000,-0.30000
041225_03.24.19.818,0.73400,0.37000,-0.19200,67.81300,6.93000,-15.89000,-0.44600,0.64800,-0.14200,83.83000,-0.02000
041225_03.24.19.830,0.70900,0.23900,-0.12800,83.51000,5.56500,-19.51300,-0.44600,0.64800,-0.15800,83.66000,-0.17000
041225_03.24.19.841,0.68600,0.14000,-0.30600,91.05200,10.39500,-21.87500,-0.45000,0.66500,-0.15800,83.50000,-0.16000
041225_03.24.19.853,0.80100,0.13000,-0.37800,88.88200,20.00300,-17.67500,-0.45800,0.67600,-0.16700,84.09000,0.59000
041225_03.24.19.864,0.83100,0.08400,-0.59100,83.12500,26.58300,-10.16800,-0.45800,0.68600,-0.18300,83.74000,-0.35000
041225_03.24.19.876,0.80500,0.26600,-0.39500,71.31300,40.49500,-13.84200,-0.46600,0.69900,-0.19200,83.68000,-0.06000
041225_03.24.19.887,0.81800,0.47200,-0.47500,58.27500,8.31300,2.15200,-0.46600,0.69900,-0.19200,83.83000,0.15000
041225_03.24.19.898,0.79900,0.62000,-0.72100,61.84500,6.21300,33.04000,-0.46500,0.71300,-0.19900,84.20000,0.37000
041225_03.24.19.910,-0.14600,0.60800,-0.71600,42.35000,30.27500,74.91800,-0.46400,0.73400,-0.20500,83.78000,-0.42000
041225_03.24.19.921,0.02000,0.28000,-0.81000,45.99000,66.83200,68.53000,-0.46300,0.74200,-0.21900,83.67000,-0.11000
041225_03.24.19.933,0.66200,0.28300,-0.51300,59.93800,92.33000,51.87000,-0.46700,0.75200,-0.24000,83.34000,-0.33000
041225_03.24.19.944,0.72200,0.09200,-0.54000,56.01800,97.14300,64.38200,-0.46700,0.75200,-0.24000,83.16000,-0.18000
041225_03.24.19.956,0.80000,-0.00300,-0.59500,51.18800,92.10300,67.37500,-0.46900,0.76400,-0.25100,83.45000,0.29000
041225_03.24.19.967,0.72300,-0.07300,-0.79900,49.70000,85.96000,53.93500,-0.46800,0.76900,-0.26300,84.02000,0.57000
041225_03.24.19.979,0.85700,-0.23900,-0.74800,50.78500,93.10000,27.63200,-0.47200,0.77700,-0.27900,83.57000,-0.45000
041225_03.24.19.990,1.24500,0.08400,-0.43200,38.74500,103.14500,7.98000,-0.47200,0.77700,-0.30100,83.96000,0.39000
041225_03.24.20.002,1.21900,0.08800,-0.68100,28.61200,107.87000,9.71200,-0.47700,0.77500,-0.30100,83.99000,0.03000
041225_03.24.20.013,1.46800,0.06900,-0.15100,34.54500,109.77800,11.41000,-0.48900,0.78000,-0.31600,84.00000,0.01000
041225_03.24.20.025,1.23200,0.15800,-0.20400,22.87200,95.20000,29.90700,-0.48800,0.78800,-0.33300,83.80000,-0.20000
041225_03.24.20.036,0.89100,0.06000,-0.41600,23.36200,77.64700,41.40500,-0.48300,0.80000,-0.33500,83.74000,-0.06000
041225_03.24.20.047,0.65400,0.14300,-1.21700,68.77500,57.27800,43.34700,-0.48300,0.80000,-0.33500,83.89000,0.15000
041225_03.24.20.059,0.98200,0.20300,-0.24500,59.92000,49.19300,56.96300,-0.48500,0.80900,-0.35500,84.17000,0.28000
041225_03.24.20.070,0.83400,0.03600,-0.43600,47.16200,58.62500,70.35000,-0.47000,0.81400,-0.37300,83.07000,-1.10000
041225_03.24.20.082,0.86200,-0.00500,-0.31200,41.10800,74.00700,71.01500,-0.46000,0.81900,-0.38600,83.16000,0.09000
041225_03.24.20.093,0.90300,-0.12700,-0.20800,35.96300,82.35500,68.51200,-0.45400,0.82400,-0.40000,83.67000,0.51000
041225_03.24.20.105,0.98400,-0.09300,-0.31000,33.16200,88.49700,60.76000,-0.45400,0.82400,-0.40000,84.18000,0.51000
041225_03.24.20.116,1.02400,-0.19400,-0.13300,33.95000,93.55500,54.12700,-0.43900,0.83000,-0.41300,83.60000,-0.58000
041225_03.24.20.128,0.92500,-0.17400,-0.08500,29.94300,94.46500,49.56000,-0.43700,0.83700,-0.42800,83.43000,-0.17000
041225_03.24.20.139,0.91500,-0.18400,0.01000,25.93500,101.55200,46.46300,-0.43100,0.83800,-0.43700,83.91000,0.48000
041225_03.24.20.151,0.95100,-0.23500,0.14100,21.42000,113.57500,49.05300,-0.43100,0.83800,-0.44800,83.70000,-0.21000
041225_03.24.20.162,0.95000,-0.17000,-0.02100,18.00700,123.90000,56.10500,-0.42100,0.84400,-0.44800,83.78000,0.08000
041225_03.24.20.174,0.98200,-0.28700,0.13000,18.86500,131.81000,65.99300,-0.40900,0.85000,-0.46400,83.78000,0.00000
041225_03.24.20.185,1.12900,-0.10400,-0.12800,17.81500,130.63700,77.89300,-0.39000,0.85500,-0.47500,83.24000,-0.54000
041225_03.24.20.197,1.02800,-0.23000,0.01300,26.16300,124.30200,113.99500,-0.36900,0.86000,-0.48100,83.50000,0.26000
041225_03.24.20.208,1.06000,-0.23600,0.01000,31.88500,111.45800,126.75300,-0.36900,0.86000,-0.48100,84.12000,0.62000
041225_03.24.20.220,1.02500,-0.36200,0.16800,29.17300,105.21000,129.58700,-0.34300,0.86100,-0.49300,83.58000,-0.54000
041225_03.24.20.231,1.05500,-0.51400,0.29100,26.68700,93.67700,124.91500,-0.31400,0.86200,-0.49300,83.89000,0.31000
041225_03.24.20.243,1.04300,-0.49100,0.26100,22.33000,82.26800,114.80000,-0.28500,0.86600,-0.49800,84.10000,0.21000
041225_03.24.20.254,0.98100,-0.56400,0.31000,21.05200,76.91200,105.43800,-0.26400,0.85700,-0.50200,83.07000,-1.03000
041225_03.24.20.265,1.05400,-0.47800,0.34700,17.53500,71.64500,95.11300,-0.26400,0.85700,-0.50200,83.76000,0.69000
041225_03.24.20.277,1.04200,-0.40900,0.34400,13.72000,60.65500,92.68000,-0.24100,0.85800,-0.50000,84.01000,0.25000
041225_03.24.20.289,1.00700,-0.28800,0.30100,12.91500,47.12700,95.88200,-0.22000,0.85800,-0.50500,84.06000,0.05000
041225_03.24.20.300,0.95600,-0.20700,0.23000,16.31000,37.59000,102.25300,-0.19200,0.84900,-0.50500,84.02000,-0.04000
041225_03.24.20.312,0.83300,-0.26600,0.25900,23.60800,31.34300,100.53700,-0.19200,0.84900,-0.51500,82.97000,-1.05000
041225_03.24.20.324,0.74600,-0.37400,0.34300,38.99000,27.94800,92.55800,-0.17600,0.84000,-0.51500,83.95000,0.98000
041225_03.24.20.335,0.78600,-0.41600,0.42500,50.33000,30.57300,85.99500,-0.16200,0.83700,-0.51600,84.07000,0.12000
041225_03.24.20.347,0.80700,-0.43600,0.48100,59.72800,35.35000,84.28000,-0.14000,0.82300,-0.52800,83.60000,-0.47000
041225_03.24.20.358,0.78900,-0.64600,0.49500,66.51800,38.51800,84.91000,-0.12400,0.81600,-0.53600,84.00000,0.40000
041225_03.24.20.370,0.68600,-0.79600,0.48500,54.84500,47.84500,83.23000,-0.12400,0.81600,-0.53600,83.33000,-0.67000
041225_03.24.20.382,0.68300,-0.68700,0.43700,49.75200,52.55300,80.44800,-0.10600,0.81000,-0.53600,83.38000,0.05000
041225_03.24.20.393,0.60000,-0.63400,0.37900,52.53500,51.80000,74.55000,-0.08700,0.79400,-0.54100,83.82000,0.44000
041225_03.24.20.405,0.53700,-0.60200,0.41900,63.26300,53.77800,62.28300,-0.07800,0.78300,-0.54800,83.25000,-0.57000
041225_03.24.20.417,0.63000,-0.53400,0.52500,75.93300,53.79500,53.62000,-0.06500,0.77400,-0.55100,84.12000,0.87000
041225_03.24.20.428,0.68700,-0.48800,0.61700,86.59000,45.72800,52.51800,-0.06500,0.77400,-0.55100,83.61000,-0.51000
041225_03.24.20.440,0.65000,-0.54500,0.71600,91.01800,38.88500,56.19300,-0.05600,0.75600,-0.55900,83.64000,0.03000
041225_03.24.20.451,0.72000,-0.42100,0.71200,90.02000,36.31300,63.98000,-0.04000,0.74600,-0.56700,83.91000,0.27000
041225_03.24.20.463,0.76000,-0.29300,0.62600,94.92000,32.02500,78.99500,-0.02400,0.73200,-0.57800,83.59000,-0.32000
041225_03.24.20.474,0.45500,-0.73300,0.68400,100.73000,31.36000,93.94000,-0.02400,0.73200,-0.58700,83.30000,-0.29000
041225_03.24.20.486,0.37800,-0.84600,0.75900,93.39700,36.78500,91.68300,-0.01000,0.71700,-0.58700,84.18000,0.88000
041225_03.24.20.497,0.46200,-0.66900,0.78600,83.07300,41.84200,81.25300,0.00300,0.70100,-0.59200,83.97000,-0.21000
041225_03.24.20.508,0.52800,-0.56400,0.80800,79.29300,47.53000,77.05200,0.01800,0.68200,-0.59400,84.35000,0.38000
041225_03.24.20.520,0.59700,-0.44100,0.77200,78.27800,57.62700,91.96300,0.03500,0.66200,-0.59200,83.12000,-1.23000
041225_03.24.20.531,0.56400,-0.38600,0.75400,90.37000,54.14500,101.44800,0.03500,0.66200,-0.59200,83.96000,0.84000
041225_03.24.20.543,0.28600,-0.49000,0.75300,103.16200,47.37300,105.28000,0.04900,0.64300,-0.59700,84.02000,0.06000
041225_03.24.20.554,0.11700,-0.50900,0.82500,123.74300,43.69700,99.41800,0.05900,0.61700,-0.59500,84.07000,0.05000
041225_03.24.20.566,0.00600,-0.40100,0.90400,142.22300,40.91500,84.80500,0.07000,0.59000,-0.60400,84.40000,0.33000
041225_03.24.20.577,-0.05000,-0.34200,0.89300,147.38500,40.91500,64.96000,0.07400,0.57000,-0.60300,83.59000,-0.81000
041225_03.24.20.589,-0.07600,-0.40300,0.87500,142.15200,47.04000,47.91500,0.07400,0.57000,-0.60300,83.61000,0.02000
041225_03.24.20.600,-0.05500,-0.34400,0.94800,126.64700,45.74500,38.58800,0.08000,0.55100,-0.60100,83.51000,-0.10000
041225_03.24.20.611,-0.05400,-0.28700,1.03900,102.74300,36.03300,29.33000,0.08700,0.53800,-0.60000,83.35000,-0.16000
041225_03.24.20.623,-0.07400,-0.27400,1.11400,83.31700,24.51700,11.95300,0.08700,0.52900,-0.60000,83.91000,0.56000
041225_03.24.20.634,0.02400,-0.27200,1.07300,70.47300,17.32500,-3.60500,0.08700,0.52900,-0.59800,83.53000,-0.38000
041225_03.24.20.646,0.13700,-0.21600,1.06900,71.64500,12.37300,-15.96000,0.09200,0.52100,-0.59800,83.74000,0.21000
041225_03.24.20.657,0.13600,-0.20700,1.09500,79.38000,4.02500,-23.90500,0.09000,0.52200,-0.59600,83.98000,0.24000
041225_03.24.20.669,0.14800,-0.17800,1.07600,84.33200,-5.60000,-29.59300,0.08300,0.52000,-0.60400,84.06000,0.08000
041225_03.24.20.680,0.20400,-0.12400,1.03400,91.35000,-32.88200,-35.35000,0.08000,0.51800,-0.60600,83.90000,-0.16000
041225_03.24.20.692,0.24100,-0.02400,1.02300,122.37800,-44.01300,-37.17000,0.08000,0.51800,-0.60600,83.78000,-0.12000
041225_03.24.20.703,0.24900,-0.02100,1.04400,131.58300,-46.00700,-39.65500,0.07200,0.52000,-0.62100,83.89000,0.11000
041225_03.24.20.715,0.23300,-0.10700,1.04400,135.20500,-41.65000,-41.40500,0.06900,0.51900,-0.62700,83.15000,-0.74000
041225_03.24.20.727,0.22300,-0.14600,1.03600,138.07500,-36.19000,-40.25000,0.06600,0.51200,-0.63900,83.63000,0.48000
041225_03.24.20.738,0.23300,-0.14000,1.06600,140.84000,-31.64000,-35.73500,0.06200,0.50300,-0.64600,83.83000,0.20000
041225_03.24.20.750,0.20600,-0.11600,1.06000,141.80300,-29.97800,-30.20500,0.06200,0.50300,-0.64600,83.36000,-0.47000
041225_03.24.20.762,0.17900,-0.05400,1.03700,138.12800,-25.60300,-25.65500,0.05800,0.50000,-0.64800,83.09000,-0.27000
041225_03.24.20.773,0.24000,0.06400,1.05400,130.49700,-18.13000,-21.42000,0.05500,0.49200,-0.66000,83.65000,0.56000
041225_03.24.20.785,0.17700,0.11800,1.08900,124.82700,-10.41300,-16.99300,0.05500,0.48200,-0.65600,83.74000,0.09000
041225_03.24.20.797,0.27400,0.16000,1.00100,121.31000,-1.69700,-15.66300,0.05500,0.48200,-0.65800,83.38000,-0.36000
041225_03.24.20.808,0.27200,0.19500,0.98600,127.76800,-1.55800,-12.07500,0.05400,0.47600,-0.65800,83.90000,0.52000
041225_03.24.20.820,0.23200,0.22100,0.95200,135.27500,-7.92800,-5.32000,0.04900,0.46300,-0.66900,83.45000,-0.45000
041225_03.24.20.831,0.20300,0.19800,0.92600,139.51000,-15.64500,5.35500,0.05000,0.44700,-0.67100,83.54000,0.09000
041225_03.24.20.843,0.21200,0.19900,0.94800,136.83300,-31.69300,42.57700,0.04600,0.42700,-0.68100,83.41000,-0.13000
041225_03.24.20.854,0.24500,0.26800,0.86200,134.64500,-38.20200,62.59700,0.04600,0.42700,-0.68100,83.91000,0.50000
041225_03.24.20.866,0.31000,0.27400,0.78900,136.71000,-36.61000,72.29300,0.04400,0.40700,-0.69200,84.06000,0.15000
041225_03.24.20.878,0.45400,0.22400,0.75500,139.82500,-36.40000,73.22000,0.03600,0.37600,-0.69000,83.28000,-0.78000
041225_03.24.20.890,0.69900,0.43100,0.80900,138.74000,-50.19000,77.59500,0.02700,0.35200,-0.69400,83.46000,0.18000
041225_03.24.20.901,0.50100,0.52400,0.70200,132.16000,-63.10500,94.79800,0.01500,0.31400,-0.70200,83.48000,0.02000
041225_03.24.20.914,0.13700,0.57700,0.73400,135.66000,-68.53000,92.22500,0.01500,0.31400,-0.70200,83.78000,0.30000
041225_03.24.20.925,0.16300,0.49200,0.69100,130.44500,-74.46300,69.35300,0.00200,0.29000,-0.70600,83.92000,0.14000
041225_03.24.20.937,0.21200,0.47900,0.54500,115.81500,-77.96300,47.56500,-0.01100,0.27300,-0.71700,83.38000,-0.54000
041225_03.24.20.948,0.21300,0.51100,0.48100,109.16500,-79.13500,36.57500,-0.02300,0.25100,-0.70900,83.96000,0.58000
041225_03.24.20.960,0.29400,0.46200,0.43000,106.85500,-81.39300,35.49000,-0.02300,0.25100,-0.72000,83.85000,-0.11000
041225_03.24.20.971,0.27200,0.49400,0.40900,103.44200,-82.74000,40.58300,-0.03700,0.22900,-0.72000,84.35000,0.50000
041225_03.24.20.983,0.21600,0.47200,0.40000,100.55500,-76.96500,44.43200,-0.05100,0.20900,-0.72300,84.01000,-0.34000
041225_03.24.20.996,0.13900,0.77400,0.36400,97.12500,-64.41800,34.03700,-0.06300,0.19000,-0.71400,83.23000,-0.78000
041225_03.24.21.008,0.49700,0.72200,0.39100,78.89000,-55.54500,-32.67300,-0.06900,0.17800,-0.72200,83.57000,0.34000
041225_03.24.21.019,0.58000,0.81600,0.24500,82.75700,-59.20200,-38.51800,-0.06900,0.17800,-0.72200,83.83000,0.26000
041225_03.24.21.031,0.60500,0.75100,0.24700,90.73800,-65.59000,-41.49300,-0.07600,0.16600,-0.71500,83.17000,-0.66000
041225_03.24.21.043,0.60100,0.74500,0.18400,88.58500,-71.66200,-34.24800,-0.08000,0.15200,-0.71300,84.08000,0.91000
041225_03.24.21.055,0.79100,0.60600,-0.05700,77.31500,-73.90300,-15.97700,-0.09200,0.14400,-0.71000,83.89000,-0.19000
041225_03.24.21.066,0.44000,1.10100,-0.03900,28.03500,-92.13700,-19.16300,-0.09200,0.12900,-0.71600,83.95000,0.06000
041225_03.24.21.078,0.38300,0.99700,-0.11200,9.39800,-91.12200,-31.04500,-0.09200,0.12900,-0.71600,83.53000,-0.42000
041225_03.24.21.090,0.34500,1.04900,-0.09800,17.27300,-69.73800,-34.89500,-0.10100,0.12900,-0.72100,83.29000,-0.24000
041225_03.24.21.102,0.37100,0.95800,-0.03800,21.96200,-44.97500,-38.29000,-0.10500,0.12800,-0.72000,83.41000,0.12000
041225_03.24.21.113,0.41300,0.93000,-0.01700,18.97000,-23.66000,-41.54500,-0.09600,0.13000,-0.72200,83.51000,0.10000
041225_03.24.21.125,0.43900,0.92900,-0.05100,13.05500,-6.33500,-44.64300,-0.09600,0.13000,-0.71500,84.41000,0.90000
041225_03.24.21.137,0.46100,0.92400,-0.03300,12.04000,7.17500,-47.77500,-0.09200,0.13000,-0.71500,83.66000,-0.75000
041225_03.24.21.149,0.42200,1.01600,-0.02000,13.58000,17.78000,-47.61800,-0.08900,0.13300,-0.71300,84.19000,0.53000
041225_03.24.21.160,0.38900,1.04700,0.03800,15.83700,26.86200,-43.33000,-0.08000,0.13200,-0.70900,83.24000,-0.95000
041225_03.24.21.173,0.37000,0.99500,0.03100,17.85000,45.13200,-33.63500,-0.06400,0.13700,-0.69600,83.33000,0.09000
041225_03.24.21.185,0.34300,0.84500,0.09300,16.67700,54.58300,-32.00700,-0.06400,0.13700,-0.69600,83.66000,0.33000
041225_03.24.21.196,0.31300,0.84900,0.15200,11.46200,62.80700,-32.35800,-0.04900,0.13600,-0.69500,83.09000,-0.57000
041225_03.24.21.208,0.30400,0.84400,0.18500,3.16800,69.80800,-32.63800,-0.04100,0.14200,-0.68200,83.77000,0.68000
041225_03.24.21.220,0.27800,0.86200,0.19100,-8.97700,78.59200,-33.42500,-0.02600,0.14800,-0.67700,83.59000,-0.18000
041225_03.24.21.231,0.19800,0.88100,0.11000,-24.95500,93.52000,-33.82700,-0.00900,0.15000,-0.67000,83.80000,0.21000
041225_03.24.21.243,0.09100,0.80100,0.01100,-44.10000,120.92500,-33.58300,-0.00900,0.15000,-0.67000,83.75000,-0.05000
041225_03.24.21.255,0.05400,0.77500,-0.12100,-63.36800,164.06200,-33.67000,0.01300,0.16500,-0.65700,83.74000,-0.01000
041225_03.24.21.267,0.18700,0.72700,0.37800,-75.63500,208.75800,-32.69000,0.03800,0.17900,-0.63300,83.51000,-0.23000
041225_03.24.21.278,0.08000,0.56300,0.55300,-82.67000,206.34200,-33.75700,0.05800,0.19300,-0.60600,83.80000,0.29000
041225_03.24.21.290,-0.02400,0.73600,0.21700,-96.37200,201.58300,-41.37000,0.05800,0.19300,-0.57500,83.41000,-0.39000
041225_03.24.21.302,0.04200,0.88400,0.38000,-111.79000,222.14500,-44.94000,0.08100,0.20100,-0.57500,83.34000,-0.07000
041225_03.24.21.314,0.13000,1.02800,0.51300,-112.99700,226.39800,-43.26000,0.09800,0.21900,-0.55000,84.11000,0.77000
041225_03.24.21.325,0.12200,1.00800,0.53400,-98.82300,217.03500,-38.16700,0.11100,0.22100,-0.52200,83.29000,-0.82000
041225_03.24.21.337,0.10300,1.06100,0.69800,-67.41000,187.63500,-11.90000,0.12000,0.22700,-0.49300,83.69000,0.40000
041225_03.24.21.349,0.25000,0.80400,0.88300,-56.50700,162.12000,-8.50500,0.12000,0.22700,-0.49300,83.79000,0.10000
041225_03.24.21.361,0.36200,0.58400,0.86800,-50.61000,131.75800,-17.92000,0.12600,0.22800,-0.47000,83.52000,-0.27000
041225_03.24.21.372,0.42300,0.32800,0.59200,-47.21500,110.40800,-29.45200,0.13200,0.23300,-0.44900,83.55000,0.03000
041225_03.24.21.384,0.39400,0.61000,0.45900,-26.91500,108.22000,-32.16500,0.13400,0.23500,-0.43300,83.56000,0.01000
041225_03.24.21.396,0.11500,0.77300,0.39300,3.81500,108.65800,-31.83300,0.13100,0.23800,-0.39800,83.62000,0.06000
041225_03.24.21.407,-0.12200,0.70800,0.49600,17.90300,122.65800,-37.94000,0.13100,0.23800,-0.39800,83.87000,0.25000
041225_03.24.21.419,-0.22300,0.62600,0.59300,17.48300,138.21500,-52.99000,0.13000,0.24400,-0.37100,84.10000,0.23000
041225_03.24.21.431,-0.31600,0.65500,0.65500,15.64500,143.55300,-69.59800,0.12600,0.25600,-0.34600,84.00000,-0.10000
041225_03.24.21.443,-0.37700,0.71600,0.82000,18.56700,134.10200,-78.82000,0.12400,0.26700,-0.32600,83.16000,-0.84000
041225_03.24.21.454,-0.38800,0.75000,0.63200,21.99700,102.72500,-83.17700,0.12400,0.26700,-0.30300,84.14000,0.98000
041225_03.24.21.466,-0.38800,0.82400,0.40000,23.24000,86.55500,-90.61500,0.11800,0.28600,-0.30300,83.70000,-0.44000
041225_03.24.21.478,-0.34000,0.74300,0.37800,15.57500,96.07500,-103.14500,0.11600,0.29900,-0.28400,83.55000,-0.15000
041225_03.24.21.490,-0.34900,0.73300,0.52200,5.47700,97.49300,-113.61000,0.11300,0.31500,-0.26300,83.09000,-0.46000
041225_03.24.21.501,-0.43300,0.76000,0.60600,-32.37500,68.53000,-107.66000,0.10000,0.33200,-0.25200,83.30000,0.21000
041225_03.24.21.513,-0.47600,0.75700,0.67500,-43.66200,53.84700,-92.94200,0.10000,0.33200,-0.25200,82.87000,-0.43000
041225_03.24.21.525,-0.48300,0.75400,0.64800,-39.48000,44.74800,-74.27000,0.09900,0.33400,-0.24400,83.55000,0.68000
041225_03.24.21.536,-0.59100,0.71500,0.59700,-26.91500,45.16700,-59.57000,0.10100,0.33800,-0.23500,84.12000,0.57000
041225_03.24.21.548,-0.73200,0.60800,0.49200,-14.45500,57.73300,-58.11800,0.08700,0.34900,-0.22200,84.00000,-0.12000
041225_03.24.21.560,-0.85100,0.49500,0.40900,-5.42500,82.89700,-69.21300,0.08600,0.35900,-0.20300,83.73000,-0.27000
041225_03.24.21.571,-0.91800,0.48200,0.34500,-1.71500,116.14700,-85.33000,0.08600,0.35900,-0.20300,83.82000,0.09000
041225_03.24.21.583,-0.84800,0.43400,0.20900,-0.78800,146.66700,-99.73200,0.06200,0.36600,-0.17900,83.64000,-0.18000
041225_03.24.21.595,-0.78700,0.44100,0.10500,-1.52300,178.04500,-111.10700,0.03500,0.38600,-0.15200,83.07000,-0.57000
041225_03.24.21.606,-0.73900,0.48200,0.00400,6.37000,202.30000,-116.93500,0.01400,0.40100,-0.12400,83.81000,0.74000
041225_03.24.21.618,-0.79800,0.55600,-0.10200,20.84300,213.60500,-119.07000,0.01400,0.40100,-0.10000,83.73000,-0.08000
041225_03.24.21.630,-0.95600,0.58800,-0.03200,35.22800,215.16300,-118.28300,-0.02800,0.41500,-0.10000,83.69000,-0.04000
041225_03.24.21.642,-1.13600,0.54200,0.13300,41.10800,211.22500,-122.01000,-0.06800,0.44100,-0.07100,83.38000,-0.31000
041225_03.24.21.654,-1.07300,0.46100,0.29800,35.92800,197.19000,-128.24000,-0.11100,0.46000,-0.05900,83.38000,0.00000
041225_03.24.21.665,-0.96200,0.57000,0.38600,11.86500,117.19800,-112.89300,-0.14000,0.46900,-0.04800,83.49000,0.11000
041225_03.24.21.677,-1.09000,0.44500,0.25900,-2.55500,81.32300,-103.18000,-0.14000,0.46900,-0.04800,83.01000,-0.48000
041225_03.24.21.689,-1.18400,0.37000,0.21600,-8.34700,57.87300,-100.27500,-0.15800,0.48000,-0.04400,83.68000,0.67000
041225_03.24.21.701,-1.13800,0.32100,0.17700,-12.05700,44.31000,-95.21700,-0.16800,0.48300,-0.03800,83.65000,-0.03000
041225_03.24.21.712,-1.07500,0.31100,0.08200,-16.39800,39.49800,-81.97000,-0.18300,0.48700,-0.04200,83.38000,-0.27000
041225_03.24.21.724,-1.07700,0.30700,-0.04200,-16.57300,41.40500,-66.15000,-0.18600,0.49000,-0.03600,83.05000,-0.33000
041225_03.24.21.736,-1.12200,0.29500,-0.17800,-11.34000,46.07700,-54.95000,-0.18600,0.49000,-0.03600,83.32000,0.27000
041225_03.24.21.747,-1.13300,0.29500,-0.37200,-1.68000,51.92300,-49.82200,-0.19900,0.48600,-0.03100,83.24000,-0.08000
041225_03.24.21.759,-1.14100,0.31000,-0.50400,14.87500,60.02500,-50.01500,-0.21300,0.49600,-0.03400,83.47000,0.23000
041225_03.24.21.771,-1.16700,0.26800,-0.51200,33.58300,70.84000,-51.27500,-0.23600,0.51100,-0.03000,83.36000,-0.11000
041225_03.24.21.782,-1.15300,0.15900,-0.43200,49.56000,82.16200,-52.57000,-0.23600,0.51100,-0.03100,83.77000,0.41000
041225_03.24.21.794,-1.09500,0.08700,-0.32600,57.52200,88.83000,-57.19000,-0.26200,0.51800,-0.03100,83.00000,-0.77000
041225_03.24.21.806,-1.05100,0.08200,-0.29900,57.92500,88.84800,-62.21300,-0.28900,0.53900,-0.04000,84.15000,1.15000
041225_03.24.21.817,-0.98800,0.10900,-0.28800,56.12300,69.19500,-61.74000,-0.30700,0.55500,-0.04200,83.67000,-0.48000
041225_03.24.21.829,-0.99000,0.10400,-0.27500,58.29200,54.35500,-63.64700,-0.33200,0.56700,-0.05000,83.57000,-0.10000
041225_03.24.21.840,-1.04800,-0.11400,-0.23500,55.70200,48.56300,-73.32500,-0.33200,0.56700,-0.05000,84.27000,0.70000
041225_03.24.21.852,-0.99500,-0.12600,-0.27600,49.78700,53.27000,-84.54300,-0.35200,0.58200,-0.05600,83.48000,-0.79000
041225_03.24.21.864,-0.91500,-0.16400,-0.25400,41.91200,66.34200,-90.33500,-0.37300,0.58400,-0.06400,84.16000,0.68000
041225_03.24.21.876,-0.97100,-0.02900,-0.46500,38.34200,92.78500,-88.34000,-0.39400,0.58300,-0.07500,83.00000,-1.16000
041225_03.24.21.887,-1.05900,0.07100,-0.55800,50.52200,130.48000,-85.17300,-0.42900,0.59500,-0.09000,83.54000,0.54000
041225_03.24.21.899,-1.01900,0.02900,-0.43300,67.84800,164.02700,-92.48800,-0.42900,0.59500,-0.09000,83.91000,0.37000
041225_03.24.21.911,-0.86400,0.01500,-0.35700,80.27200,178.74500,-105.82300,-0.47700,0.60800,-0.11500,83.66000,-0.25000
041225_03.24.21.923,-0.73500,-0.05500,-0.33700,85.13700,168.70000,-115.06300,-0.51600,0.61800,-0.14600,83.79000,0.13000
041225_03.24.21.934,-0.58100,-0.13200,-0.30000,84.08800,142.32700,-119.01800,-0.55200,0.62200,-0.17000,83.63000,-0.16000
041225_03.24.21.946,-0.54900,-0.18800,-0.32600,80.06300,112.10500,-118.16000,-0.55200,0.62200,-0.19300,83.91000,0.28000
041225_03.24.21.958,-0.62200,-0.25700,-0.37800,73.55200,88.34000,-113.05000,-0.57700,0.62100,-0.19300,83.86000,-0.05000
041225_03.24.21.970,-0.71100,-0.29600,-0.43000,66.93800,69.52800,-107.50300,-0.59700,0.62100,-0.21100,83.29000,-0.57000
041225_03.24.21.981,-0.79800,-0.31900,-0.55400,66.79800,42.87500,-110.04000,-0.61200,0.62200,-0.21900,83.61000,0.32000
041225_03.24.21.993,-0.86500,-0.49800,-0.57400,78.36500,46.97000,-114.76500,-0.63000,0.61500,-0.24400,84.04000,0.43000
041225_03.24.22.005,-0.79200,-0.52600,-0.66300,80.23800,55.33500,-119.31500,-0.63000,0.61500,-0.24400,83.48000,-0.56000
041225_03.24.22.017,-0.67300,-0.52500,-0.62200,81.23500,61.61800,-121.95800,-0.64500,0.60800,-0.25500,83.51000,0.03000
041225_03.24.22.028,-0.57300,-0.43200,-0.55200,80.85000,63.56000,-117.74000,-0.66200,0.59900,-0.28100,83.68000,0.17000
041225_03.24.22.040,-0.42800,-0.37900,-0.45900,80.44800,62.56300,-97.96500,-0.67700,0.58400,-0.31100,84.02000,0.34000
041225_03.24.22.052,-0.20700,-0.77100,-0.33100,66.95500,59.50000,-63.45500,-0.68500,0.58100,-0.31100,84.00000,-0.02000
041225_03.24.22.064,-0.22000,-0.87000,-0.44100,35.22800,50.48700,-41.61500,-0.68500,0.58100,-0.31100,83.60000,-0.40000
041225_03.24.22.075,-0.21100,-0.82000,-0.59300,8.69800,48.84200,-29.85500,-0.68900,0.57100,-0.32500,83.59000,-0.01000
041225_03.24.22.087,-0.24000,-0.79300,-0.67400,-5.91500,55.70200,-18.86500,-0.69200,0.56900,-0.33300,83.85000,0.26000
041225_03.24.22.099,-0.29300,-0.72400,-0.63800,-9.94000,69.00300,-10.48300,-0.69600,0.57200,-0.34600,83.81000,-0.04000
041225_03.24.22.111,-0.35100,-0.66000,-0.56600,-10.11500,81.30500,-3.32500,-0.69600,0.57200,-0.35900,83.50000,-0.31000
041225_03.24.22.122,-0.31000,-0.70200,-0.50700,-8.26000,82.16200,2.69500,-0.70000,0.56500,-0.35900,83.57000,0.07000
041225_03.24.22.134,-0.27900,-0.67200,-0.57700,-3.81500,64.34800,0.92800,-0.69900,0.56700,-0.37000,83.58000,0.01000
041225_03.24.22.146,-0.23600,-0.69900,-0.55800,1.62800,22.15500,3.34200,-0.70000,0.57000,-0.37300,83.97000,0.39000
041225_03.24.22.157,-0.30600,-0.62600,-0.57400,-0.59500,-1.90800,11.86500,-0.69500,0.56700,-0.37200,84.04000,0.07000
041225_03.24.22.169,-0.38200,-0.81800,-0.77500,-3.55300,-10.81500,12.28500,-0.69500,0.56700,-0.37200,83.63000,-0.41000
041225_03.24.22.181,-0.31200,-0.67100,-0.66100,1.54000,7.22700,-3.62200,-0.69200,0.57100,-0.37800,83.66000,0.03000
041225_03.24.22.192,-0.28100,-0.70400,-0.65100,1.34700,12.11000,-14.28000,-0.69200,0.56800,-0.38100,83.91000,0.25000
041225_03.24.22.204,-0.44200,-0.77600,-0.70900,1.66300,13.61500,-26.70500,-0.69500,0.57000,-0.38600,83.30000,-0.61000
041225_03.24.22.216,-0.69000,-0.76100,-0.57400,7.91000,12.04000,-45.16700,-0.70000,0.56100,-0.38800,83.67000,0.37000
041225_03.24.22.227,-0.63600,-0.69400,-0.62300,19.56500,-4.13000,-67.14700,-0.70000,0.56100,-0.38800,83.69000,0.02000
041225_03.24.22.239,-0.60300,-0.67300,-0.58900,26.28500,-20.59700,-86.39700,-0.70800,0.55000,-0.38800,84.00000,0.31000
041225_03.24.22.251,-0.50000,-0.64200,-0.64300,30.99300,-31.44800,-106.40000,-0.71000,0.53600,-0.38300,83.61000,-0.39000
041225_03.24.22.263,-0.00900,-0.91700,-0.60400,33.72200,-37.69500,-116.95200,-0.71300,0.51700,-0.37900,83.37000,-0.24000
041225_03.24.22.274,0.08700,-0.85200,-0.61500,26.74000,-43.76800,-107.81700,-0.71300,0.51700,-0.37500,84.20000,0.83000
041225_03.24.22.286,0.14300,-0.77700,-0.66500,18.95200,-46.77800,-97.07300,-0.71600,0.49500,-0.37500,83.49000,-0.71000
041225_03.24.22.298,0.22600,-0.74600,-0.66600,17.64000,-42.28000,-88.21700,-0.71900,0.48300,-0.37200,83.02000,-0.47000
041225_03.24.22.310,0.36600,-0.78400,-0.67900,18.79500,-37.11800,-55.58000,-0.72400,0.47300,-0.37100,83.97000,0.95000
041225_03.24.22.321,0.36300,-0.78200,-0.58200,31.43000,-38.04500,-37.48500,-0.71700,0.46500,-0.35800,83.50000,-0.47000
041225_03.24.22.333,0.19300,-0.67400,-0.35700,56.57700,-36.24300,-20.70200,-0.71700,0.46500,-0.35800,83.77000,0.27000
041225_03.24.22.345,-0.11200,-0.74200,-0.33800,19.79200,-16.99300,-13.14200,-0.71900,0.46400,-0.35700,83.45000,-0.32000
041225_03.24.22.356,-0.32000,-0.93700,-0.73500,4.13000,13.63200,-12.04000,-0.71300,0.46300,-0.35600,83.95000,0.50000
041225_03.24.22.368,-0.12200,-0.75400,-0.50300,7.91000,33.72200,-10.74500,-0.72000,0.45800,-0.36100,84.35000,0.40000
041225_03.24.22.380,-0.18900,-0.78500,-0.71200,1.10200,40.98500,-1.15500,-0.71700,0.45300,-0.36800,84.33000,-0.02000
041225_03.24.22.391,0.04600,-0.86200,-0.75500,11.83000,31.58700,4.35800,-0.71700,0.45300,-0.36800,83.51000,-0.82000
041225_03.24.22.403,0.04600,-0.89900,-0.44200,17.06200,29.71500,9.52000,-0.71800,0.46200,-0.37600,83.02000,-0.49000
041225_03.24.22.415,0.05000,-0.86400,-0.48900,16.39800,28.94500,11.00700,-0.71800,0.45800,-0.38100,83.26000,0.24000
041225_03.24.22.427,0.02800,-0.92000,-0.52200,20.10800,24.08000,8.90800,-0.71900,0.46300,-0.38400,83.28000,0.02000
041225_03.24.22.438,0.00000,-1.00100,-0.55500,21.22800,17.95500,3.97300,-0.71900,0.46300,-0.38700,83.75000,0.47000
041225_03.24.22.450,-0.03100,-1.05600,-0.57500,17.85000,11.77800,-1.24200,-0.72000,0.46600,-0.38700,83.81000,0.06000
041225_03.24.22.462,-0.03500,-1.09000,-0.58500,11.98800,8.40000,-4.44500,-0.72100,0.45800,-0.38900,83.77000,-0.04000
041225_03.24.22.473,-0.03900,-1.09200,-0.60000,-0.19200,7.85800,-11.28800,-0.72000,0.45600,-0.39200,83.75000,-0.02000
041225_03.24.22.485,-0.13700,-1.05400,-0.64000,-4.70700,16.39800,-15.73300,-0.72400,0.45200,-0.39400,83.96000,0.21000
041225_03.24.22.497,-0.06300,-0.98000,-0.58700,-6.21300,28.00000,-18.48000,-0.72400,0.45200,-0.39400,83.29000,-0.67000
041225_03.24.22.509,0.00500,-0.88800,-0.54600,-5.95000,36.40000,-18.41000,-0.72500,0.44900,-0.40400,83.55000,0.26000
041225_03.24.22.520,0.02500,-0.82800,-0.55800,-1.99500,38.48300,-15.34700,-0.72200,0.44700,-0.41700,83.83000,0.28000
041225_03.24.22.532,0.03400,-0.84700,-0.56600,5.14500,35.00000,-11.42700,-0.72500,0.44900,-0.42500,83.39000,-0.44000
041225_03.24.22.544,0.06000,-0.98700,-0.59600,13.10800,29.48700,-9.94000,-0.72700,0.44700,-0.43600,83.51000,0.12000
041225_03.24.22.555,0.02600,-1.06000,-0.78400,22.61000,24.57000,-18.04200,-0.72700,0.44700,-0.43600,83.48000,-0.03000
041225_03.24.22.567,-0.00300,-1.04100,-0.78100,33.39000,28.73500,-30.13500,-0.73400,0.44400,-0.44700,83.25000,-0.23000
041225_03.24.22.579,0.05300,-1.07200,-0.68000,46.27000,32.67300,-38.74500,-0.73000,0.44000,-0.45400,83.17000,-0.08000
041225_03.24.22.590,0.09600,-1.13500,-0.61600,58.04800,35.66500,-43.76800,-0.72900,0.43000,-0.46800,83.28000,0.11000
041225_03.24.22.602,0.10600,-1.21500,-0.59500,70.24500,41.33500,-49.29800,-0.72900,0.43000,-0.49200,83.74000,0.46000
041225_03.24.22.614,0.03400,-1.26800,-0.62200,85.22500,57.89000,-66.23800,-0.73100,0.41600,-0.49200,83.78000,0.04000
041225_03.24.22.626,-0.08300,-1.17700,-0.71200,107.24000,88.21700,-97.66800,-0.73000,0.39000,-0.51700,83.59000,-0.19000
041225_03.24.22.637,-0.14900,-0.90600,-0.77300,157.90200,157.01000,-156.76500,-0.72400,0.35900,-0.55200,83.45000,-0.14000
041225_03.24.22.649,-0.06800,-0.37100,-0.47300,141.82000,174.09000,-138.79200,-0.71400,0.32400,-0.57900,83.72000,0.27000
041225_03.24.22.661,0.30100,-0.45400,0.04900,106.76800,174.35200,-87.34200,-0.71400,0.32400,-0.57900,83.78000,0.06000
041225_03.24.22.673,0.94900,-0.91300,0.16100,84.05200,139.38700,-32.09500,-0.68100,0.29200,-0.61400,82.91000,-0.87000
041225_03.24.22.684,0.96400,-1.27600,0.25900,86.08200,99.69800,-11.91800,-0.66600,0.27700,-0.63000,83.64000,0.73000
041225_03.24.22.696,0.66600,-1.33400,0.13300,92.05000,66.04500,-24.81500,-0.65500,0.26100,-0.63800,83.18000,-0.46000
041225_03.24.22.708,0.38300,-1.23400,-0.10200,99.22500,51.13500,-50.82000,-0.63600,0.24500,-0.65600,83.92000,0.74000
041225_03.24.22.719,0.34600,-1.05200,-0.14800,110.61800,59.18500,-70.14000,-0.63600,0.24500,-0.65600,83.49000,-0.43000
041225_03.24.22.731,0.25700,-0.97200,-0.15000,125.87800,75.07500,-74.83000,-0.62400,0.22000,-0.66200,83.00000,-0.49000
041225_03.24.22.743,0.23300,-0.93000,-0.07200,139.70200,87.43000,-72.06500,-0.60400,0.19200,-0.67200,83.51000,0.51000
041225_03.24.22.755,0.43900,-0.87900,0.08500,143.64000,93.32700,-68.18000,-0.58000,0.16000,-0.68400,83.39000,-0.12000
041225_03.24.22.766,0.40900,-0.84600,0.17600,154.47300,90.03700,-58.25700,-0.58000,0.16000,-0.68600,83.72000,0.33000
041225_03.24.22.778,0.38400,-0.79500,0.39200,158.09500,93.66000,-49.92800,-0.56200,0.12800,-0.68600,83.40000,-0.32000
041225_03.24.22.790,0.45100,-0.73000,0.50700,145.67000,85.97800,-50.61000,-0.53400,0.09700,-0.68100,83.77000,0.37000
041225_03.24.22.801,0.45600,-0.68000,0.47700,122.67500,46.23500,-47.21500,-0.51300,0.07500,-0.67700,83.28000,-0.49000
041225_03.24.22.813,0.45900,-0.64500,0.49000,115.60500,34.05500,-46.97000,-0.50000,0.05300,-0.67100,83.28000,0.00000
041225_03.24.22.825,0.45900,-0.62400,0.52600,112.49000,26.07500,-49.68200,-0.50000,0.05300,-0.67100,83.21000,-0.07000
041225_03.24.22.836,0.46900,-0.59700,0.62300,110.86300,19.42500,-53.34000,-0.48300,0.03400,-0.66300,83.87000,0.66000
041225_03.24.22.848,0.53300,-0.60000,0.70000,108.20200,10.99000,-57.19000,-0.46700,0.01000,-0.65600,83.46000,-0.41000
041225_03.24.22.860,0.58500,-0.61400,0.65500,108.69200,3.01000,-61.02200,-0.44600,-0.01300,-0.64500,83.47000,0.01000
041225_03.24.22.871,0.57700,-0.61500,0.53200,117.21500,1.15500,-66.83200,-0.42700,-0.03200,-0.63300,83.08000,-0.39000
041225_03.24.22.883,0.52100,-0.58700,0.50200,131.98500,7.21000,-75.35500,-0.42700,-0.03200,-0.63300,83.53000,0.45000
041225_03.24.22.895,0.46000,-0.46400,0.61600,139.45800,13.65000,-82.98500,-0.40400,-0.05300,-0.61800,83.97000,0.44000
041225_03.24.22.906,0.51800,-0.56800,0.53000,124.60000,5.82700,-81.27000,-0.38500,-0.07500,-0.60500,82.82000,-1.15000
041225_03.24.22.918,0.59300,-0.59200,0.39700,116.53300,-4.63700,-77.78700,-0.36400,-0.08900,-0.58800,83.49000,0.67000
041225_03.24.22.930,0.53800,-0.61300,0.28800,119.61300,-4.58500,-77.40300,-0.36400,-0.08900,-0.57100,83.22000,-0.27000
041225_03.24.22.942,0.38600,-0.58400,0.15800,120.45200,5.09300,-80.18500,-0.33700,-0.10300,-0.57100,83.89000,0.67000
041225_03.24.22.955,0.30500,-0.47300,-0.03800,115.46500,17.08000,-83.12500,-0.31200,-0.11400,-0.55000,83.55000,-0.34000
041225_03.24.22.967,0.04300,-0.29400,-0.00400,110.25000,89.58200,-95.90000,-0.27900,-0.12600,-0.52300,83.39000,-0.16000
041225_03.24.22.979,0.45000,0.08300,0.39300,123.98800,124.46000,-111.72000,-0.23500,-0.13600,-0.49000,83.56000,0.17000
041225_03.24.22.990,0.24200,0.11400,0.20800,123.42700,101.13200,-83.65000,-0.23500,-0.13600,-0.49000,83.38000,-0.18000
041225_03.24.23.002,0.12500,0.04400,0.38400,114.50300,107.99300,-62.44000,-0.21000,-0.13600,-0.45300,83.42000,0.04000
041225_03.24.23.014,0.16500,0.14700,0.57500,101.32500,117.00500,-59.90300,-0.18800,-0.13800,-0.41000,83.21000,-0.21000
041225_03.24.23.026,0.22000,0.25800,0.75000,90.33500,116.69000,-55.33500,-0.17400,-0.12600,-0.37400,83.48000,0.27000
041225_03.24.23.038,0.20100,0.29700,0.63600,77.10500,110.16200,-40.18000,-0.16800,-0.12600,-0.34300,83.40000,-0.08000
041225_03.24.23.049,0.15500,0.16200,0.48800,64.64500,107.50300,-21.01700,-0.16800,-0.12600,-0.34300,83.29000,-0.11000
041225_03.24.23.061,0.11300,-0.03700,0.35700,58.08300,118.37000,-7.38500,-0.18400,-0.11100,-0.31600,83.19000,-0.10000
041225_03.24.23.072,0.03900,0.08500,0.39100,55.87700,134.82000,11.25200,-0.20200,-0.09800,-0.27600,83.39000,0.20000
041225_03.24.23.084,0.12200,0.12300,0.56200,59.90300,144.41000,19.09300,-0.23500,-0.08500,-0.25200,83.67000,0.28000
041225_03.24.23.096,0.08600,0.08700,0.62600,65.20500,151.53300,8.33000,-0.23500,-0.08500,-0.22800,84.06000,0.39000
041225_03.24.23.107,0.03900,-0.03500,0.62600,66.93800,157.99000,-13.72000,-0.27300,-0.06600,-0.22800,83.74000,-0.32000
041225_03.24.23.119,0.01500,-0.12500,0.64900,61.61800,151.86500,-42.80500,-0.29900,-0.05100,-0.21200,83.44000,-0.30000
041225_03.24.23.130,-0.10500,-0.01600,0.81600,52.09700,134.33000,-45.81500,-0.33000,-0.03100,-0.20300,83.51000,0.07000
041225_03.24.23.143,-0.20000,0.11400,1.04700,47.26800,121.08300,-51.29200,-0.35200,-0.01600,-0.19900,83.79000,0.28000
041225_03.24.23.154,-0.11200,0.29400,1.23000,47.75700,112.08800,-55.58000,-0.35200,-0.01600,-0.19900,83.22000,-0.57000
041225_03.24.23.166,-0.11100,0.42000,1.30000,48.21300,99.05000,-54.05700,-0.38200,0.00400,-0.19500,83.27000,0.05000
041225_03.24.23.178,-0.13800,0.47800,1.30600,49.24500,85.64500,-52.02800,-0.40300,0.02500,-0.19600,83.36000,0.09000
041225_03.24.23.190,-0.11600,0.54200,1.34300,51.88800,75.40800,-54.30300,-0.43100,0.04300,-0.19300,83.85000,0.49000
041225_03.24.23.201,-0.14100,0.65100,1.33000,55.94800,64.22500,-56.68200,-0.45200,0.06000,-0.19300,83.19000,-0.66000
041225_03.24.23.213,-0.15600,0.69800,1.27900,58.97500,54.05700,-54.68800,-0.45200,0.06000,-0.19300,83.54000,0.35000
041225_03.24.23.225,-0.31500,0.67900,1.06200,55.75500,44.87000,-41.75500,-0.47200,0.07700,-0.19500,82.92000,-0.62000
041225_03.24.23.238,-0.28600,0.69300,1.11800,57.75000,48.30000,-30.08300,-0.49500,0.08800,-0.19900,83.29000,0.37000
041225_03.24.23.250,-0.26000,0.69500,1.15800,58.73000,50.59200,-21.15700,-0.51600,0.10400,-0.19500,83.61000,0.32000
041225_03.24.23.262,-0.28800,0.55900,1.04400,62.68500,45.86800,-14.59500,-0.51600,0.10400,-0.19700,83.86000,0.25000
041225_03.24.23.274,-0.43200,0.45900,0.97900,66.53500,47.79200,-12.74000,-0.53500,0.11700,-0.19700,83.09000,-0.77000
041225_03.24.23.285,-0.50900,0.48400,0.94100,66.06300,59.99000,-34.63200,-0.55900,0.13100,-0.19900,83.45000,0.36000
041225_03.24.23.297,-0.64600,0.54200,0.79700,53.30500,62.59700,-49.92800,-0.57000,0.13700,-0.20800,83.77000,0.32000
041225_03.24.23.309,-0.34800,0.82700,0.98200,35.38500,50.85500,-48.77200,-0.58300,0.14400,-0.23000,83.90000,0.13000
041225_03.24.23.322,-0.41900,0.88700,0.91000,22.13800,40.26800,-37.76500,-0.58300,0.14400,-0.23000,83.67000,-0.23000
041225_03.24.23.334,-0.45100,0.90100,0.94300,10.83300,38.79800,-24.76300,-0.59500,0.13800,-0.23400,83.12000,-0.55000
041225_03.24.23.345,-0.41300,0.82800,1.05200,5.32000,36.22500,-12.58300,-0.59900,0.13600,-0.25000,83.98000,0.86000
041225_03.24.23.357,-0.39400,0.71700,1.03900,3.60500,27.75500,-4.44500,-0.60900,0.14400,-0.25800,83.22000,-0.76000
041225_03.24.23.368,-0.43200,0.61400,0.90800,4.62000,18.58500,0.21000,-0.61100,0.14400,-0.25600,83.94000,0.72000
041225_03.24.23.380,-0.45900,0.51900,0.78000,4.55000,14.19300,2.18800,-0.61100,0.14400,-0.25600,83.64000,-0.30000
041225_03.24.23.391,-0.47300,0.45200,0.71400,2.60800,13.45800,4.60200,-0.61700,0.15500,-0.26200,83.60000,-0.04000
041225_03.24.23.403,-0.50700,0.38200,0.64700,-1.78500,14.54300,6.79000,-0.62400,0.15500,-0.26400,83.42000,-0.18000
041225_03.24.23.415,-0.52300,0.32300,0.54400,-9.94000,17.55200,7.31500,-0.62600,0.15800,-0.26600,83.21000,-0.21000
041225_03.24.23.427,-0.45800,0.36200,0.59400,-14.78800,21.31500,5.14500,-0.62600,0.15800,-0.27400,83.38000,0.17000
041225_03.24.23.439,-0.41500,0.38700,0.66400,-16.60800,21.01700,0.61300,-0.63500,0.16400,-0.27400,83.02000,-0.36000
041225_03.24.23.451,-0.40500,0.40700,0.63900,-19.49500,13.79000,-8.26000,-0.63700,0.16400,-0.28200,83.56000,0.54000
041225_03.24.23.463,-0.41400,0.44800,0.43700,-16.50300,15.75000,-8.96000,-0.64400,0.16200,-0.28700,83.24000,-0.32000
041225_03.24.23.475,-0.49200,0.50900,0.41300,-13.77300,22.01500,-3.95500,-0.65000,0.15900,-0.30000,83.38000,0.14000
041225_03.24.23.486,-0.55900,0.55900,0.40500,-11.07800,32.04200,3.27300,-0.65000,0.15900,-0.30000,83.62000,0.24000
041225_03.24.23.498,-0.56500,0.62700,0.45200,-8.71500,44.03000,10.79700,-0.65500,0.15900,-0.32000,83.48000,-0.14000
041225_03.24.23.511,-0.50500,0.57900,0.58500,-6.00300,54.07500,17.30800,-0.66200,0.15700,-0.34100,83.29000,-0.19000
041225_03.24.23.522,-0.47300,0.52300,0.66300,-5.72200,56.70000,22.54000,-0.66800,0.15800,-0.36900,83.46000,0.17000
041225_03.24.23.534,-0.47200,0.55900,0.62400,-5.84500,54.02200,25.42700,-0.67100,0.15800,-0.39400,83.23000,-0.23000
041225_03.24.23.546,-0.49700,0.63500,0.54300,-6.79000,52.29000,28.14000,-0.67100,0.15800,-0.39400,82.94000,-0.29000
041225_03.24.23.557,-0.53500,0.68200,0.48000,-10.97200,53.49800,32.91700,-0.67500,0.15900,-0.41200,82.84000,-0.10000
041225_03.24.23.569,-0.58300,0.71200,0.44500,-16.67700,56.92800,40.14500,-0.67300,0.16000,-0.45300,83.79000,0.95000
041225_03.24.23.581,-0.65000,0.76500,0.43700,-19.33700,62.79000,49.07000,-0.66800,0.15400,-0.48200,84.15000,0.36000
041225_03.24.23.592,-0.64900,0.76400,0.41700,-19.98500,72.18800,60.35800,-0.66800,0.15400,-0.51600,83.16000,-0.99000
041225_03.24.23.605,-0.59900,0.86600,0.53100,-23.34500,83.52800,74.04300,-0.66400,0.15200,-0.51600,83.46000,0.30000
041225_03.24.23.617,-0.57800,1.10100,0.67600,-47.77500,85.26000,128.64300,-0.66000,0.15700,-0.54500,83.45000,-0.01000
041225_03.24.23.628,-0.75600,0.59700,0.60300,-66.39500,91.85700,129.71000,-0.63700,0.16000,-0.57600,83.10000,-0.35000
041225_03.24.23.640,-0.53300,0.32200,0.66300,-87.79800,84.87500,127.03300,-0.63100,0.16700,-0.61300,83.72000,0.62000
041225_03.24.23.652,-0.65500,0.20100,0.64100,-102.20000,73.09800,120.06700,-0.63100,0.16700,-0.61300,83.14000,-0.58000
041225_03.24.23.663,-0.76800,0.12700,0.54600,-112.28000,59.41200,109.97000,-0.61100,0.17900,-0.63200,83.84000,0.70000
041225_03.24.23.675,-0.81900,0.06300,0.40700,-119.24500,51.55500,102.91800,-0.59900,0.19100,-0.65800,83.30000,-0.54000
041225_03.24.23.687,-0.78000,0.11900,0.51400,-115.81500,58.11800,99.54000,-0.58200,0.20200,-0.68400,83.52000,0.22000
041225_03.24.23.699,-0.74200,0.00500,0.91800,-76.19500,76.72000,107.48500,-0.56200,0.21000,-0.69900,83.39000,-0.13000
041225_03.24.23.711,-0.58000,0.32600,1.11400,-56.92800,81.14700,102.42700,-0.56200,0.21000,-0.69900,83.38000,-0.01000
041225_03.24.23.722,-0.40700,0.50200,1.18300,-48.47500,70.94500,85.59200,-0.54400,0.21400,-0.72200,83.89000,0.51000
041225_03.24.23.734,-0.31400,0.51500,1.26000,-25.72500,68.49500,70.26200,-0.52600,0.21400,-0.73400,83.40000,-0.49000
041225_03.24.23.746,-0.28700,0.53200,1.09100,-5.09300,69.05500,56.42000,-0.50300,0.21500,-0.74400,82.83000,-0.57000
041225_03.24.23.757,-0.58100,0.66600,0.89600,3.69300,63.17500,41.12500,-0.50300,0.21500,-0.76100,83.47000,0.64000
041225_03.24.23.769,-0.65100,0.67300,0.79200,10.95500,56.52500,33.07500,-0.49400,0.21000,-0.76100,83.98000,0.51000
041225_03.24.23.780,-0.69600,0.59900,0.71500,-2.32800,75.88000,30.66000,-0.48400,0.21000,-0.76400,82.80000,-1.18000
041225_03.24.23.792,-0.83000,0.58300,0.41600,-56.36800,92.41800,51.50200,-0.47300,0.21100,-0.77500,84.04000,1.24000
041225_03.24.23.804,-0.84200,0.50700,0.13100,-197.27700,100.50300,85.85500,-0.46200,0.25200,-0.81100,83.43000,-0.61000
