timestamp,ax,ay,az,gx,gy,gz,mx,my,mz,altitude,relative_altitude
041225_03.14.01.344,0.09700,1.03400,0.44400,15.94300,0.05300,51.38000,0.05500,0.21300,-0.68400,83.68000,0.00000
041225_03.14.01.356,0.13900,1.00300,0.27400,13.35200,-3.30800,52.62300,0.05000,0.20200,-0.67600,83.09000,-0.59000
041225_03.14.01.367,0.19100,0.97400,0.18300,9.04700,-1.68000,55.42300,0.03800,0.19300,-0.67900,83.55000,0.46000
041225_03.14.01.379,0.20100,0.92200,0.16500,10.27300,-0.73500,55.59700,0.03300,0.18800,-0.68500,83.48000,-0.07000
041225_03.14.01.390,0.14800,0.84100,0.21500,15.94300,-0.08700,51.01300,0.03300,0.18800,-0.68500,83.50000,0.02000
041225_03.14.01.402,0.13500,0.80300,0.28100,16.90500,6.03700,43.01500,0.02800,0.18300,-0.68200,83.97000,0.47000
041225_03.14.01.413,0.00900,0.73900,0.20400,3.04500,22.99500,18.27000,0.02700,0.18200,-0.67300,83.38000,-0.59000
041225_03.14.01.425,-0.00700,0.68700,0.13900,-8.26000,28.03500,2.59000,0.03000,0.17800,-0.66900,83.49000,0.11000
041225_03.14.01.436,0.16400,0.90500,0.21000,-13.09000,32.86500,-13.42200,0.03500,0.18300,-0.67000,83.38000,-0.11000
041225_03.14.01.448,0.30000,0.98000,0.21500,-14.45500,30.03000,-23.36200,0.03500,0.18300,-0.67000,83.46000,0.08000
041225_03.14.01.459,0.29500,0.96200,0.32200,-14.68200,28.07000,-23.29200,0.03900,0.18500,-0.66700,84.00000,0.54000
041225_03.14.01.471,0.27100,1.01900,0.36000,-20.49300,30.41500,-21.47200,0.04100,0.19300,-0.66500,83.00000,-1.00000
041225_03.14.01.482,0.21700,1.05100,0.38100,-26.89800,31.20200,-19.35500,0.04600,0.19900,-0.66400,83.32000,0.32000
041225_03.14.01.494,0.14500,1.03700,0.39100,-33.32000,31.57000,-18.11200,0.04800,0.20500,-0.65900,82.55000,-0.77000
041225_03.14.01.505,0.08300,1.02500,0.40000,-40.16200,33.63500,-19.96800,0.04800,0.20500,-0.65900,83.42000,0.87000
041225_03.14.01.517,0.03700,1.02000,0.46200,-46.63800,35.61200,-24.65700,0.05200,0.21500,-0.66000,83.31000,-0.11000
041225_03.14.01.529,-0.00500,1.04800,0.49000,-52.64000,34.49300,-30.29200,0.05500,0.23000,-0.66000,83.77000,0.46000
041225_03.14.01.541,-0.13400,1.04100,0.56600,-62.16000,32.02500,-39.44500,0.06100,0.24300,-0.65500,83.28000,-0.49000
041225_03.14.01.553,-0.24600,0.88800,0.47600,-76.30000,38.22000,-53.90000,0.06100,0.24300,-0.65500,83.39000,0.11000
041225_03.14.01.565,-0.25500,0.84700,0.56500,-89.09200,49.64700,-68.60000,0.06800,0.26300,-0.65600,83.44000,0.05000
041225_03.14.01.576,-0.11900,0.96900,0.68400,-99.62800,56.29800,-88.65500,0.07700,0.28800,-0.65500,83.95000,0.51000
041225_03.14.01.588,-0.03700,0.90600,0.71000,-124.21500,65.01200,-89.19800,0.08200,0.31200,-0.64700,83.75000,-0.20000
041225_03.14.01.600,0.39700,1.21800,1.21200,-129.67500,48.82500,-90.91200,0.09000,0.33800,-0.64600,83.37000,-0.38000
041225_03.14.01.611,0.38500,0.83400,0.98000,-140.91000,23.94000,-83.73800,0.09000,0.33800,-0.64600,83.55000,0.18000
041225_03.14.01.623,0.24300,0.56200,0.76500,-149.94000,17.88500,-68.12800,0.09000,0.36900,-0.64800,83.35000,-0.20000
041225_03.14.01.635,0.23600,0.89100,0.75400,-152.56500,19.14500,-53.91700,0.08600,0.39100,-0.65200,83.44000,0.09000
041225_03.14.01.647,-0.02800,0.80800,0.67700,-149.81800,15.80200,-45.71000,0.07800,0.41900,-0.65100,83.78000,0.34000
041225_03.14.01.658,-0.12400,0.80000,0.64800,-141.75000,15.54000,-45.86800,0.07800,0.41900,-0.64900,83.64000,-0.14000
041225_03.14.01.670,-0.30800,0.68900,0.63500,-134.26000,23.78200,-44.52000,0.07700,0.44500,-0.64900,83.38000,-0.26000
041225_03.14.01.682,-0.44100,0.62800,0.56400,-128.74700,38.79800,-49.96300,0.07700,0.46500,-0.64700,83.69000,0.31000
041225_03.14.01.694,-0.58800,0.90000,0.57500,-121.39700,59.02800,-59.72800,0.07800,0.49000,-0.63500,83.14000,-0.55000
041225_03.14.01.705,-0.67300,0.63800,0.53900,-108.18500,71.62800,-69.10700,0.07100,0.51000,-0.61900,83.47000,0.33000
041225_03.14.01.717,-0.66900,0.53600,0.76700,-94.58800,86.50300,-85.17300,0.07100,0.51000,-0.61900,83.13000,-0.34000
041225_03.14.01.729,-0.61400,0.78500,0.87000,-86.60700,86.39700,-99.52200,0.07100,0.53200,-0.60500,83.26000,0.13000
041225_03.14.01.741,-0.40900,0.72800,0.79800,-78.80200,69.82500,-100.20500,0.06700,0.55800,-0.59100,83.64000,0.38000
041225_03.14.01.753,-0.34900,0.58800,0.66300,-71.90800,68.56500,-104.49300,0.06200,0.58100,-0.58700,84.23000,0.59000
041225_03.14.01.764,-0.35700,0.48200,0.78400,-61.04000,78.40000,-106.87200,0.05300,0.60800,-0.57400,83.64000,-0.59000
041225_03.14.01.776,-0.19700,0.44500,0.92500,-55.33500,78.89000,-105.89300,0.05300,0.60800,-0.57400,83.35000,-0.29000
041225_03.14.01.788,-0.23500,0.31900,0.92500,-54.07500,70.21000,-100.85300,0.04700,0.62900,-0.56600,83.01000,-0.34000
041225_03.14.01.800,-0.38200,0.19500,0.96500,-56.36800,62.59700,-97.94800,0.03900,0.64400,-0.54800,83.43000,0.42000
041225_03.14.01.811,-0.53300,0.15900,0.96500,-62.38800,59.16700,-101.72800,0.02100,0.66400,-0.54100,83.44000,0.01000
041225_03.14.01.823,-0.61400,0.19100,1.09000,-66.51800,57.20800,-110.07500,0.02100,0.66400,-0.54100,82.89000,-0.55000
041225_03.14.01.835,-0.62700,0.24400,1.20600,-70.29800,45.16700,-110.79300,0.01200,0.68600,-0.52900,83.70000,0.81000
041225_03.14.01.847,-0.60300,0.21300,1.18200,-76.09000,22.64500,-104.38700,-0.00800,0.70500,-0.52000,83.05000,-0.65000
041225_03.14.01.858,-0.57600,0.11200,0.98700,-85.66200,1.89000,-100.55500,-0.02300,0.72300,-0.51500,83.80000,0.75000
041225_03.14.01.870,-0.60900,0.05900,0.72800,-95.70700,-3.93800,-103.19800,-0.04000,0.74400,-0.50100,83.47000,-0.33000
041225_03.14.01.882,-0.32500,0.36900,0.29300,-100.69500,10.97200,-117.39000,-0.04000,0.74400,-0.50100,83.92000,0.45000
041225_03.14.01.894,-0.44500,0.41800,0.99800,-74.09500,15.76700,-138.09200,-0.06500,0.76500,-0.48900,83.56000,-0.36000
041225_03.14.01.906,-0.56800,-0.29800,0.87800,-74.65500,13.68500,-105.12200,-0.08200,0.78000,-0.48300,84.23000,0.67000
041225_03.14.01.917,-0.29900,0.10000,0.88800,-80.02800,21.03500,-100.31000,-0.10400,0.79000,-0.46600,83.63000,-0.60000
041225_03.14.01.929,-0.41600,0.08600,0.70700,-88.13000,30.27500,-93.10000,-0.10400,0.79000,-0.45300,83.44000,-0.19000
041225_03.14.01.941,-0.69600,-0.34500,0.79600,-100.11800,42.91000,-95.98800,-0.11800,0.80500,-0.45300,83.61000,0.17000
041225_03.14.01.953,-0.79700,-0.24400,0.74500,-111.31700,56.63000,-105.98000,-0.14300,0.81100,-0.43200,83.48000,-0.13000
041225_03.14.01.965,-0.72100,-0.05700,0.82000,-112.57700,67.53300,-114.57300,-0.16800,0.82000,-0.41300,83.83000,0.35000
041225_03.14.01.976,-0.58400,-0.09100,0.84900,-106.19000,64.43500,-111.63200,-0.19100,0.83400,-0.39200,83.40000,-0.43000
041225_03.14.01.988,-0.54200,-0.08500,0.78200,-104.58000,54.47800,-100.95700,-0.19100,0.83400,-0.39200,83.01000,-0.39000
041225_03.14.02.000,-0.50000,-0.06500,0.66100,-99.27800,49.52500,-91.70000,-0.21300,0.83400,-0.37500,84.12000,1.11000
041225_03.14.02.011,-0.56600,-0.14100,0.57800,-91.43800,50.69700,-83.79000,-0.23300,0.84100,-0.35800,83.80000,-0.32000
041225_03.14.02.023,-0.59300,-0.21400,0.56800,-82.46000,51.01300,-82.05800,-0.25600,0.83700,-0.35100,83.33000,-0.47000
041225_03.14.02.035,-0.57600,-0.25700,0.50300,-78.48800,52.25500,-79.81700,-0.27200,0.83600,-0.33000,83.53000,0.20000
041225_03.14.02.047,-0.62700,-0.38700,0.41900,-79.69500,58.27500,-78.78500,-0.27200,0.83600,-0.33000,84.03000,0.50000
041225_03.14.02.058,-0.66600,-0.45900,0.46400,-84.08800,70.38500,-78.13700,-0.29600,0.83800,-0.31600,83.23000,-0.80000
041225_03.14.02.070,-0.64700,-0.57500,0.62500,-80.06300,78.87200,-88.16500,-0.32600,0.83600,-0.30100,84.29000,1.06000
041225_03.14.02.082,-0.53700,-0.28600,0.67300,-77.70000,80.57000,-100.50300,-0.34300,0.82000,-0.29200,83.71000,-0.58000
041225_03.14.02.094,-0.42900,-0.20000,0.92200,-60.21700,50.08500,-90.93000,-0.34300,0.82000,-0.29200,83.66000,-0.05000
041225_03.14.02.105,-0.32300,-0.29600,1.03900,-18.02500,29.08500,-79.59000,-0.35900,0.82200,-0.28600,83.54000,-0.12000
041225_03.14.02.117,-0.22600,-0.22400,0.68100,-1.64500,3.65800,-66.16800,-0.38100,0.81600,-0.28700,83.65000,0.11000
041225_03.14.02.129,-0.43600,-0.57200,0.45300,9.20500,-17.79800,-55.87700,-0.39500,0.81300,-0.29600,84.14000,0.49000
041225_03.14.02.140,-0.33600,-0.66700,0.49600,5.60000,-26.54800,-51.76500,-0.40500,0.81300,-0.28700,83.95000,-0.19000
041225_03.14.02.152,-0.47100,-0.75100,0.35200,-1.68000,-32.79500,-48.65000,-0.40500,0.81300,-0.28700,83.31000,-0.64000
041225_03.14.02.163,-0.52100,-0.81400,0.43200,-14.54300,-26.44200,-41.70200,-0.41400,0.81700,-0.27500,83.53000,0.22000
041225_03.14.02.175,-0.32300,-0.75300,0.57600,-27.10800,-27.26500,-37.80000,-0.41700,0.80800,-0.27600,84.43000,0.90000
041225_03.14.02.187,-0.21200,-0.68500,0.53200,-33.53000,-36.43500,-35.17500,-0.42100,0.80500,-0.26000,83.74000,-0.69000
041225_03.14.02.199,-0.19600,-0.67500,0.43800,-36.03300,-41.31800,-32.55000,-0.42100,0.79900,-0.25200,83.35000,-0.39000
041225_03.14.02.210,-0.25900,-0.70300,0.30300,-36.73300,-41.44000,-32.93500,-0.42000,0.79900,-0.25200,83.87000,0.52000
041225_03.14.02.222,-0.31800,-0.66700,0.16100,-35.49000,-36.61000,-36.38200,-0.42300,0.79200,-0.24300,83.96000,0.09000
041225_03.14.02.234,-0.31800,-0.60200,0.06700,-31.27300,-26.88000,-39.07700,-0.42600,0.78500,-0.24300,83.19000,-0.77000
041225_03.14.02.245,-0.29200,-0.54300,0.01500,-25.28800,-13.66800,-34.65000,-0.42800,0.78000,-0.23900,84.01000,0.82000
041225_03.14.02.257,-0.27100,-0.53000,0.01300,-18.97000,0.61300,-24.02800,-0.42800,0.78000,-0.23900,83.07000,-0.94000
041225_03.14.02.268,-0.23100,-0.58500,0.04300,-11.25200,15.50500,-5.32000,-0.42400,0.77300,-0.23100,83.57000,0.50000
041225_03.14.02.280,-0.16800,-0.60700,0.18800,-6.52800,17.93700,0.28000,-0.42600,0.77000,-0.22800,83.65000,0.08000
041225_03.14.02.292,-0.10000,-0.64200,0.21100,1.15500,12.75700,5.58200,-0.42400,0.76400,-0.22600,83.53000,-0.12000
041225_03.14.02.303,-0.14100,-0.77000,0.20000,6.47500,4.06000,9.52000,-0.42700,0.76600,-0.22100,83.76000,0.23000
041225_03.14.02.315,-0.20600,-0.95500,0.24700,7.24500,-1.52300,7.47200,-0.42700,0.76600,-0.22100,83.87000,0.11000
041225_03.14.02.327,-0.25500,-1.03200,0.31600,3.46500,-4.72500,-0.22800,-0.42100,0.76000,-0.22500,83.78000,-0.09000
041225_03.14.02.338,-0.26800,-1.04300,0.32200,-2.87000,-8.62700,-9.27500,-0.41900,0.75800,-0.22200,83.72000,-0.06000
041225_03.14.02.350,-0.25300,-0.99600,0.29200,-10.39500,-13.12500,-16.06500,-0.41900,0.75100,-0.22100,83.79000,0.07000
041225_03.14.02.362,-0.23700,-0.92400,0.22900,-14.45500,-18.21800,-22.01500,-0.41900,0.75100,-0.22100,84.18000,0.39000
041225_03.14.02.374,-0.22500,-0.80100,0.20300,-13.75500,-22.97800,-26.75700,-0.42100,0.74500,-0.21500,83.88000,-0.30000
041225_03.14.02.386,-0.22100,-0.69200,0.21400,-6.44000,-26.09300,-26.53000,-0.41800,0.73500,-0.21100,83.81000,-0.07000
041225_03.14.02.398,-0.48300,-1.20400,-0.04600,5.72200,-28.61200,-22.40000,-0.42200,0.73500,-0.21500,83.04000,-0.77000
041225_03.14.02.409,-1.52000,-2.47100,0.18400,-16.06500,-5.74000,-49.50700,-0.44400,0.71900,-0.21200,84.12000,1.08000
041225_03.14.02.421,-0.97100,-1.05300,0.48600,-39.07700,0.42000,-90.51000,-0.44400,0.71900,-0.21200,84.26000,0.14000
041225_03.14.02.433,-0.46500,-0.98700,0.08000,-28.87500,-7.40300,-82.25000,-0.45000,0.71100,-0.21200,83.64000,-0.62000
041225_03.14.02.445,-0.46200,-1.18000,-0.14700,21.36800,0.87500,-80.01000,-0.47000,0.71300,-0.21200,83.43000,-0.21000
041225_03.14.02.456,-0.25800,-0.75300,0.28100,24.25500,7.03500,-74.93500,-0.48300,0.70900,-0.22100,83.86000,0.43000
041225_03.14.02.468,-0.04700,-0.82400,0.44100,20.79000,7.00000,-72.43300,-0.49200,0.70700,-0.22200,83.95000,0.09000
041225_03.14.02.480,0.01700,-0.93700,0.57600,11.20000,7.85800,-66.64000,-0.49200,0.70700,-0.22200,83.68000,-0.27000
041225_03.14.02.492,-0.02700,-1.05200,0.43300,0.84000,4.77800,-58.06500,-0.50500,0.70000,-0.22500,83.62000,-0.06000
041225_03.14.02.503,-0.02600,-1.05000,0.32700,-2.92200,-0.78800,-50.59200,-0.51200,0.69100,-0.22600,83.08000,-0.54000
041225_03.14.02.515,-0.02800,-1.00400,0.30200,-3.25500,-4.41000,-44.34500,-0.51600,0.68800,-0.22800,83.49000,0.41000
041225_03.14.02.527,-0.00500,-0.98200,0.27400,-0.59500,-8.89000,-40.07500,-0.51600,0.68800,-0.22800,84.19000,0.70000
041225_03.14.02.538,0.02900,-0.97300,0.27700,2.69500,-13.09000,-37.57200,-0.52300,0.68200,-0.22100,84.03000,-0.16000
041225_03.14.02.550,0.02200,-0.98200,0.28700,4.97000,-17.09700,-34.93000,-0.52200,0.68500,-0.22400,83.71000,-0.32000
041225_03.14.02.562,0.03800,-1.00400,0.32200,5.46000,-18.37500,-32.00700,-0.52500,0.68200,-0.22100,83.26000,-0.45000
041225_03.14.02.574,0.06400,-1.01800,0.35100,4.30500,-17.11500,-28.24500,-0.52400,0.67300,-0.21700,84.02000,0.76000
041225_03.14.02.586,0.05500,-1.01500,0.36100,2.11800,-15.08500,-23.78200,-0.52400,0.67300,-0.21700,83.41000,-0.61000
041225_03.14.02.597,0.06300,-1.01100,0.37000,-0.49000,-13.49300,-20.26500,-0.52400,0.66700,-0.21800,84.01000,0.60000
041225_03.14.02.609,0.08600,-1.03100,0.39700,-7.78700,-8.73300,-10.13200,-0.52400,0.67300,-0.21500,83.18000,-0.83000
041225_03.14.02.621,0.05500,-1.08100,-0.20800,8.48800,-4.44500,-4.46300,-0.51900,0.66700,-0.22200,83.82000,0.64000
041225_03.14.02.632,0.05600,-0.89800,0.52100,34.93000,8.96000,7.42000,-0.51900,0.66700,-0.22200,83.62000,-0.20000
041225_03.14.02.644,0.01700,-0.88500,0.76400,17.65700,5.39000,13.21200,-0.51800,0.67900,-0.22100,84.20000,0.58000
041225_03.14.02.656,-0.01900,-1.01400,0.49800,0.75200,-3.39500,9.97500,-0.51900,0.67700,-0.22100,83.70000,-0.50000
041225_03.14.02.667,-0.01400,-1.06500,0.38500,-4.28700,-2.73000,8.36500,-0.52400,0.67400,-0.21700,83.91000,0.21000
041225_03.14.02.679,0.01000,-1.04300,0.28500,-4.65500,-1.82000,11.69000,-0.52100,0.67600,-0.22200,83.50000,-0.41000
041225_03.14.02.691,-0.00700,-0.97600,0.34800,1.73200,1.57500,17.15000,-0.52100,0.67600,-0.22200,83.57000,0.07000
041225_03.14.02.702,-0.00200,-0.91600,0.47300,2.83500,3.15000,21.12200,-0.51500,0.67900,-0.22300,83.38000,-0.19000
041225_03.14.02.714,0.02900,-0.96400,0.48000,-1.68000,-0.08700,22.06700,-0.51200,0.68200,-0.21700,83.63000,0.25000
041225_03.14.02.726,0.00900,-1.10300,0.36000,-7.54300,-2.41500,22.97800,-0.50900,0.68100,-0.21600,83.61000,-0.02000
041225_03.14.02.738,-0.02500,-1.12700,0.28400,-7.71800,-2.06500,26.53000,-0.50700,0.68100,-0.21300,83.55000,-0.06000
041225_03.14.02.750,-0.07700,-1.11400,0.33900,-4.14800,3.97300,32.18200,-0.50700,0.68100,-0.21300,83.62000,0.07000
041225_03.14.02.762,-0.07500,-1.14600,0.42400,-6.56200,5.40700,34.12500,-0.50000,0.68600,-0.21800,83.83000,0.21000
041225_03.14.02.773,-0.15400,-1.00600,0.36200,-13.38700,2.41500,39.04200,-0.49600,0.68400,-0.21000,83.79000,-0.04000
041225_03.14.02.785,-0.13000,-1.00300,0.37200,-11.02500,14.99800,41.79000,-0.49300,0.68600,-0.21800,84.20000,0.41000
041225_03.14.02.797,-0.49200,-0.88000,0.38300,-12.98500,17.76300,39.62000,-0.49300,0.68600,-0.21800,84.27000,0.07000
041225_03.14.02.809,0.12600,-0.91000,0.52400,-19.72200,19.46000,27.40500,-0.49100,0.69000,-0.21400,83.75000,-0.52000
041225_03.14.02.821,-0.08900,-0.94600,0.31800,-26.89800,12.40800,34.23000,-0.48400,0.68600,-0.21500,83.66000,-0.09000
041225_03.14.02.832,-0.27900,-0.94600,0.31400,-25.14800,14.43800,34.84200,-0.48300,0.68800,-0.20800,83.51000,-0.15000
041225_03.14.02.844,-0.03500,-0.98900,0.41500,-27.24700,13.96500,34.24800,-0.47800,0.68600,-0.20300,83.33000,-0.18000
041225_03.14.02.856,-0.22700,-0.95400,0.39700,-37.45000,5.05700,35.45500,-0.47800,0.68600,-0.20300,84.06000,0.73000
041225_03.14.02.868,-0.48600,-0.95400,0.31800,-41.66700,5.16200,34.35300,-0.47300,0.68300,-0.20300,83.51000,-0.55000
041225_03.14.02.879,-0.20600,-1.05500,0.41300,-45.39500,9.59000,28.89200,-0.47100,0.67900,-0.19400,83.76000,0.25000
041225_03.14.02.891,-0.34800,-1.28700,0.59400,-66.69200,-13.86000,23.43300,-0.46200,0.66700,-0.18000,83.89000,0.13000
041225_03.14.02.903,-0.62000,-1.23100,0.31400,-112.35000,-46.93500,9.04700,-0.46200,0.66700,-0.15900,83.53000,-0.36000
041225_03.14.02.915,-0.59500,-1.00700,0.12800,-120.43500,-28.59500,18.18300,-0.45600,0.64600,-0.15900,83.96000,0.43000
041225_03.14.02.926,-0.51300,-1.09300,-0.00200,-96.56500,11.86500,35.70000,-0.45000,0.63800,-0.14500,84.07000,0.11000
041225_03.14.02.938,-0.40300,-1.08700,-0.06400,-92.40000,25.14800,46.00700,-0.44900,0.62700,-0.14800,83.55000,-0.52000
041225_03.14.02.950,-0.43300,-0.76700,-0.05000,-88.09500,29.47000,94.90300,-0.44000,0.62300,-0.14100,84.03000,0.48000
041225_03.14.02.962,-0.68900,-0.62700,-0.45100,-70.68300,55.66700,120.97800,-0.44000,0.62300,-0.14100,83.97000,-0.06000
041225_03.14.02.974,-0.61400,-1.04500,-0.37100,-83.00300,78.36500,108.83300,-0.44200,0.62300,-0.13500,83.47000,-0.50000
041225_03.14.02.985,-0.46900,-0.88000,-0.20000,-85.87200,85.90800,101.93800,-0.44200,0.61700,-0.13000,84.03000,0.56000
041225_03.14.02.997,-0.47900,-0.84800,-0.16300,-76.80800,84.33200,102.16500,-0.44600,0.61500,-0.12500,83.58000,-0.45000
041225_03.14.03.009,-0.40100,-0.88500,-0.11000,-67.83000,81.95200,102.55000,-0.45000,0.61500,-0.12300,83.89000,0.31000
041225_03.14.03.021,-0.39600,-0.86700,-0.12300,-62.49300,76.19500,104.09000,-0.45000,0.61500,-0.12300,83.95000,0.06000
041225_03.14.03.033,-0.38700,-0.79700,-0.14800,-61.07500,73.11500,108.29000,-0.45200,0.61800,-0.12100,84.17000,0.22000
041225_03.14.03.044,-0.37400,-0.73900,-0.14400,-63.47200,70.75300,116.18300,-0.45400,0.62100,-0.11900,83.67000,-0.50000
041225_03.14.03.056,-0.36900,-0.72300,-0.14300,-68.30200,69.93000,126.73500,-0.45400,0.61900,-0.11700,84.29000,0.62000
041225_03.14.03.068,-0.40900,-0.75100,-0.13200,-72.76500,67.83000,136.36000,-0.45400,0.61900,-0.11700,84.16000,-0.13000
041225_03.14.03.080,-0.43700,-0.75600,-0.15600,-78.52200,62.59700,143.36000,-0.44600,0.61900,-0.10600,84.31000,0.15000
041225_03.14.03.091,-0.40900,-0.73500,-0.17600,-83.38700,55.16000,146.91300,-0.44300,0.61600,-0.10900,83.69000,-0.62000
041225_03.14.03.103,-0.40900,-0.65000,-0.21700,-87.01000,46.13000,149.32700,-0.43300,0.61400,-0.10900,84.02000,0.33000
041225_03.14.03.115,-0.45900,-0.51100,-0.29300,-88.51500,36.99500,154.15800,-0.42800,0.60400,-0.10300,84.14000,0.12000
041225_03.14.03.127,-0.46000,-0.46700,-0.28800,-94.16800,25.63800,170.57200,-0.42800,0.60400,-0.10300,83.91000,-0.23000
041225_03.14.03.139,-0.51300,-0.61000,-0.24800,-96.82700,19.65300,171.20200,-0.41700,0.60300,-0.09300,84.02000,0.11000
041225_03.14.03.151,-0.56900,-0.57800,-0.23300,-94.55200,8.48800,168.40200,-0.39800,0.59500,-0.07900,84.15000,0.13000
041225_03.14.03.162,-0.56900,-0.49800,-0.24100,-92.54000,-1.64500,167.05500,-0.38500,0.58600,-0.08000,83.91000,-0.24000
041225_03.14.03.174,-0.53200,-0.41600,-0.21800,-94.51800,-9.18800,165.51500,-0.38500,0.57500,-0.07200,83.35000,-0.56000
041225_03.14.03.186,-0.55800,-0.42200,-0.17200,-99.29500,-17.39500,166.07500,-0.37300,0.57500,-0.07200,84.00000,0.65000
041225_03.14.03.198,-0.68300,-0.34700,-0.25300,-101.93800,-25.30500,165.04200,-0.35100,0.55600,-0.05900,84.04000,0.04000
041225_03.14.03.210,-0.78400,-0.21400,-0.32300,-101.06300,-29.08500,160.61500,-0.33300,0.53900,-0.04700,83.80000,-0.24000
041225_03.14.03.222,-0.77100,-0.09200,-0.34400,-103.72300,-31.50000,154.63000,-0.31800,0.51400,-0.04700,84.28000,0.48000
041225_03.14.03.233,-0.81300,0.00700,-0.31600,-108.06300,-32.09500,152.28500,-0.31800,0.51400,-0.04700,84.49000,0.21000
041225_03.14.03.245,-0.85000,-0.00700,-0.34500,-108.27200,-33.53000,151.74300,-0.30400,0.48900,-0.04200,84.13000,-0.36000
041225_03.14.03.257,-0.94400,-0.00500,-0.38100,-106.73200,-32.37500,148.48800,-0.28500,0.46800,-0.03600,83.99000,-0.14000
041225_03.14.03.269,-0.97700,0.01800,-0.40000,-103.54800,-24.20200,142.78300,-0.27600,0.44700,-0.03900,83.72000,-0.27000
041225_03.14.03.281,-0.94700,0.16900,-0.39100,-101.65800,-20.98300,136.32500,-0.27100,0.42200,-0.03300,83.84000,0.12000
041225_03.14.03.293,-0.91200,0.20600,-0.32300,-101.37800,-20.66700,136.85000,-0.27100,0.42200,-0.03300,83.37000,-0.47000
041225_03.14.03.304,-0.86700,0.06100,-0.26800,-106.17300,-17.23700,131.30300,-0.26500,0.39700,-0.03200,83.76000,0.39000
041225_03.14.03.316,-0.93600,-0.05000,-0.27600,-109.74300,-11.39200,113.54000,-0.25800,0.37000,-0.03300,84.05000,0.29000
041225_03.14.03.328,-0.85700,0.11500,-0.24900,-109.67300,-4.69000,93.24000,-0.26100,0.34400,-0.03700,83.62000,-0.43000
041225_03.14.03.340,-0.77400,0.28600,-0.19800,-106.96000,1.38300,79.97500,-0.26100,0.34400,-0.03700,84.43000,0.81000
041225_03.14.03.352,-0.74600,0.47600,-0.17300,-103.96700,4.30500,72.76500,-0.26300,0.31800,-0.03700,83.85000,-0.58000
041225_03.14.03.363,-0.73700,0.49800,-0.18400,-102.51500,3.88500,69.58000,-0.27000,0.29600,-0.03900,83.83000,-0.02000
041225_03.14.03.375,-0.78600,0.44100,-0.21100,-103.79300,2.36200,67.37500,-0.26800,0.27000,-0.05300,84.35000,0.52000
041225_03.14.03.387,-0.78000,0.37900,-0.17800,-105.08800,5.70500,64.10300,-0.27800,0.24700,-0.04900,83.40000,-0.95000
041225_03.14.03.399,-0.80400,0.41400,-0.16700,-104.38700,11.65500,59.37700,-0.27800,0.24700,-0.04900,83.95000,0.55000
041225_03.14.03.410,-0.75700,0.50100,-0.09500,-98.92700,18.70800,54.86200,-0.28100,0.22300,-0.05400,83.38000,-0.57000
041225_03.14.03.422,-0.68200,0.68200,-0.00600,-94.97300,19.82700,51.95800,-0.28800,0.20500,-0.06200,83.39000,0.01000
041225_03.14.03.434,-0.60800,0.84800,0.01800,-93.81700,15.41800,53.86500,-0.29300,0.18600,-0.08200,83.59000,0.20000
041225_03.14.03.446,-0.56800,0.84100,0.05600,-93.06500,7.92800,60.21700,-0.29700,0.16100,-0.08000,83.56000,-0.03000
041225_03.14.03.457,-0.59900,0.78000,0.06700,-92.43500,3.69300,66.01000,-0.29700,0.16100,-0.08000,83.67000,0.11000
041225_03.14.03.469,-0.66300,0.75900,0.04300,-89.70500,1.73200,65.22300,-0.30400,0.14800,-0.09200,83.95000,0.28000
041225_03.14.03.481,-0.69200,0.90100,0.01000,-87.41200,5.53000,61.25000,-0.31100,0.13200,-0.10400,83.71000,-0.24000
041225_03.14.03.492,-0.45600,0.87800,0.15500,-84.38500,8.29500,60.93500,-0.31800,0.12300,-0.11200,83.75000,0.04000
041225_03.14.03.504,-0.57200,0.89600,0.08900,-81.63700,6.24700,62.65000,-0.31800,0.12300,-0.11200,84.24000,0.49000
041225_03.14.03.516,-0.57900,0.92000,0.06400,-75.96700,11.06000,65.46700,-0.32200,0.10500,-0.12200,83.77000,-0.47000
041225_03.14.03.527,-0.53100,0.77700,0.10400,-67.48000,13.86000,66.43000,-0.33400,0.09600,-0.13500,83.63000,-0.14000
041225_03.14.03.539,-0.47200,0.68500,0.11400,-62.21300,12.35500,62.54500,-0.34400,0.09000,-0.13800,83.60000,-0.03000
041225_03.14.03.551,-0.45500,0.63300,0.14000,-57.19000,11.48000,56.56000,-0.35300,0.08400,-0.14900,84.37000,0.77000
041225_03.14.03.562,-0.52900,0.75900,0.16300,-52.88500,8.13700,49.98000,-0.35300,0.08400,-0.14900,83.91000,-0.46000
041225_03.14.03.574,-0.64700,1.33700,0.01900,-54.11000,1.34700,50.80300,-0.36200,0.07400,-0.15600,83.35000,-0.56000
041225_03.14.03.586,-0.67200,1.73100,-0.02400,-48.89500,-14.59500,89.93300,-0.37100,0.07400,-0.15900,84.32000,0.97000
041225_03.14.03.598,-0.68000,0.06000,-0.21800,-21.40300,12.65300,117.58300,-0.38300,0.07000,-0.16800,83.79000,-0.53000
041225_03.14.03.609,-0.12300,1.31500,0.45100,-9.83500,42.36800,40.63500,-0.38300,0.07000,-0.16800,84.16000,0.37000
041225_03.14.03.621,-0.60800,1.01000,0.17100,35.19300,7.96300,-3.02700,-0.39100,0.07200,-0.16200,83.79000,-0.37000
041225_03.14.03.633,-0.51600,0.73000,0.09100,62.93000,-0.84000,10.64000,-0.38800,0.08100,-0.15800,84.07000,0.28000
041225_03.14.03.644,-0.34200,0.75600,0.19600,88.88200,11.51500,13.17700,-0.39200,0.09500,-0.14800,83.08000,-0.99000
041225_03.14.03.656,-0.36000,0.77300,-0.03700,105.42000,10.71000,7.35000,-0.39200,0.11100,-0.14200,83.81000,0.73000
041225_03.14.03.668,-0.39200,1.01600,-0.01700,105.49000,5.12800,-1.71500,-0.39200,0.11100,-0.14200,83.79000,-0.02000
041225_03.14.03.679,-0.51100,1.12100,-0.19200,91.63000,4.02500,-4.93500,-0.39200,0.12200,-0.13500,83.98000,0.19000
041225_03.14.03.691,-0.46900,0.94800,-0.07600,67.23500,17.55200,3.08000,-0.39500,0.13800,-0.12500,84.04000,0.06000
041225_03.14.03.703,-0.46200,0.77800,-0.02400,43.80300,27.59700,5.68700,-0.40200,0.14000,-0.12500,83.72000,-0.32000
041225_03.14.03.714,-0.53000,0.74300,0.07000,19.98500,28.10500,4.04300,-0.40200,0.13900,-0.12600,83.73000,0.01000
041225_03.14.03.726,-0.49100,0.86100,-0.03300,-4.63700,17.06200,5.63500,-0.40200,0.13900,-0.12600,83.93000,0.20000
041225_03.14.03.738,-0.41600,0.74500,-0.04000,-19.21500,8.47000,11.84700,-0.40300,0.14100,-0.13500,83.51000,-0.42000
041225_03.14.03.750,-0.30000,0.77700,0.04200,-31.60500,0.52500,1.31200,-0.40800,0.13600,-0.13200,83.77000,0.26000
041225_03.14.03.761,-0.41800,0.76500,0.12500,-26.93300,-1.94200,-5.54800,-0.40900,0.13000,-0.13700,84.38000,0.61000
041225_03.14.03.773,-0.47400,0.76300,0.05000,-22.57500,-7.10500,-8.45300,-0.40900,0.13000,-0.13700,83.82000,-0.56000
041225_03.14.03.785,-0.47900,0.82800,-0.04100,-13.44000,-12.70500,-21.21000,-0.40300,0.12700,-0.13500,83.65000,-0.17000
041225_03.14.03.797,-0.52500,0.92600,-0.09200,-5.81000,-12.44300,-33.21500,-0.40000,0.12300,-0.13500,84.04000,0.39000
041225_03.14.03.809,-0.53600,1.04100,-0.12500,-3.06300,-10.48300,-37.41500,-0.39700,0.11500,-0.13700,84.08000,0.04000
041225_03.14.03.820,-0.54100,1.12900,-0.07100,-8.43500,-8.40000,-31.23700,-0.39000,0.11500,-0.13600,83.53000,-0.55000
041225_03.14.03.832,-0.55800,1.20200,-0.06100,-13.16000,-8.73300,-22.08500,-0.39000,0.11500,-0.13600,84.14000,0.61000
041225_03.14.03.844,-0.53700,1.17700,-0.04700,-13.45800,-13.49300,-14.31500,-0.38400,0.10800,-0.13700,84.01000,-0.13000
041225_03.14.03.856,-0.50900,1.09400,0.02100,-15.50500,-18.25300,-4.32300,-0.38600,0.10500,-0.14900,83.20000,-0.81000
041225_03.14.03.867,-0.49000,1.07600,0.01000,-19.51300,-20.45800,5.58200,-0.38200,0.10400,-0.15300,83.83000,0.63000
041225_03.14.03.879,-0.49600,1.03600,-0.04600,-20.17700,-22.45200,9.92200,-0.38200,0.10400,-0.14100,83.20000,-0.63000
041225_03.14.03.891,-0.49300,0.96700,-0.10600,-18.16500,-20.58000,11.16500,-0.38400,0.09900,-0.14100,83.63000,0.43000
041225_03.14.03.903,-0.48900,0.91600,-0.13700,-15.10200,-13.87800,11.72500,-0.38300,0.09500,-0.14600,83.71000,0.08000
041225_03.14.03.914,-0.47900,0.87600,-0.19200,-9.87000,-6.23000,10.51700,-0.38300,0.10000,-0.15000,84.25000,0.54000
041225_03.14.03.926,-0.47200,0.85000,-0.29300,-3.50000,2.90500,6.02000,-0.38400,0.09500,-0.15300,84.18000,-0.07000
041225_03.14.03.938,-0.48800,0.84400,-0.27100,3.79800,14.89200,1.20700,-0.38400,0.09500,-0.15300,84.08000,-0.10000
041225_03.14.03.949,-0.49400,0.91300,-0.31900,12.07500,23.24000,-2.36200,-0.39000,0.09900,-0.15200,83.75000,-0.33000
041225_03.14.03.961,-0.51600,0.97200,-0.38300,21.71800,31.43000,-4.77800,-0.39600,0.10400,-0.15300,83.86000,0.11000
041225_03.14.03.973,-0.55900,1.01900,-0.42000,29.96000,41.58000,-5.81000,-0.40000,0.10800,-0.15200,83.81000,-0.05000
041225_03.14.03.985,-0.57200,1.02500,-0.41800,33.77500,67.35700,-11.95300,-0.40500,0.11200,-0.14700,84.04000,0.23000
041225_03.14.03.996,-0.61000,1.05700,-0.40200,34.52800,94.01000,-13.70300,-0.40500,0.11200,-0.14700,83.13000,-0.91000
041225_03.14.04.008,-0.61400,0.99300,-0.30500,40.28500,101.43000,-9.36300,-0.41600,0.12100,-0.15500,83.36000,0.23000
041225_03.14.04.020,-0.55500,0.96300,-0.27600,46.37500,97.44000,-6.31800,-0.43100,0.12600,-0.15200,83.80000,0.44000
041225_03.14.04.032,-0.55700,0.94600,-0.36200,51.38000,91.78700,-4.69000,-0.44100,0.13500,-0.15300,83.72000,-0.08000
041225_03.14.04.043,-0.55500,0.96300,-0.40300,54.40800,91.63000,-7.82300,-0.44100,0.13500,-0.15300,83.62000,-0.10000
041225_03.14.04.055,-0.51500,0.94900,-0.37000,58.25700,97.58000,-14.36800,-0.45000,0.14400,-0.15900,83.15000,-0.47000
041225_03.14.04.067,-0.57600,0.98000,-0.40700,65.06500,102.53300,-23.85300,-0.46000,0.15500,-0.15000,83.64000,0.49000
041225_03.14.04.079,-0.70800,1.05000,-0.56500,75.81000,110.81000,-36.15500,-0.47900,0.16700,-0.15400,84.06000,0.42000
041225_03.14.04.090,-0.66400,0.93200,-0.44100,87.67500,123.44500,-46.42800,-0.49100,0.17200,-0.15800,83.53000,-0.53000
041225_03.14.04.102,-0.66000,0.82600,-0.45200,87.76200,127.97800,-51.97500,-0.49100,0.17200,-0.15800,83.53000,0.00000
041225_03.14.04.114,-0.58000,0.75600,-0.40200,79.94000,128.17000,-52.11500,-0.50800,0.18400,-0.15500,83.60000,0.07000
041225_03.14.04.126,-0.54100,0.74700,-0.44000,71.76800,121.17000,-50.97800,-0.51600,0.19000,-0.15700,83.62000,0.02000
041225_03.14.04.137,-0.54000,0.75800,-0.45900,65.39700,115.32500,-52.74500,-0.53000,0.19400,-0.16300,83.53000,-0.09000
041225_03.14.04.149,-0.55300,0.65500,-0.42600,58.48500,117.88000,-69.73800,-0.53000,0.19400,-0.17400,83.95000,0.42000
041225_03.14.04.161,-0.59500,0.63100,-0.39900,39.70800,125.96500,-85.68000,-0.53600,0.19600,-0.17400,83.83000,-0.12000
041225_03.14.04.173,-0.46900,0.52300,-0.44600,25.23500,131.77500,-102.63700,-0.55200,0.19200,-0.18200,83.94000,0.11000
041225_03.14.04.185,-0.49500,0.53600,-0.49000,17.78000,129.22000,-114.48500,-0.56200,0.18600,-0.18900,83.72000,-0.22000
041225_03.14.04.196,-0.51300,0.61400,-0.53000,14.94500,122.86800,-125.54500,-0.56900,0.17100,-0.19800,83.95000,0.23000
041225_03.14.04.208,-0.55500,0.61500,-0.57300,9.95800,126.19200,-132.75500,-0.56900,0.17100,-0.19800,83.53000,-0.42000
041225_03.14.04.220,-0.56100,0.62000,-0.53900,3.81500,137.88300,-137.14800,-0.57300,0.16200,-0.21700,83.57000,0.04000
041225_03.14.04.232,-0.56300,0.58500,-0.58800,-1.55800,146.91300,-138.86300,-0.57700,0.14200,-0.23500,84.15000,0.58000
041225_03.14.04.243,-0.45100,0.56400,-0.63500,-3.01000,147.85700,-138.05700,-0.57800,0.12600,-0.24700,83.61000,-0.54000
041225_03.14.04.255,-0.01900,0.45500,-0.58900,-0.38500,130.76000,-131.56500,-0.57900,0.11100,-0.26200,83.56000,-0.05000
041225_03.14.04.267,0.46300,0.39800,-0.25100,3.64000,84.45500,-112.71700,-0.57900,0.11100,-0.26200,83.84000,0.28000
041225_03.14.04.279,0.21300,-0.04200,0.11800,-2.52000,-5.82700,-88.62000,-0.57000,0.10000,-0.25700,84.00000,0.16000
041225_03.14.04.290,-0.90400,0.17900,-0.47900,-22.41700,-78.82000,-91.28000,-0.55000,0.08600,-0.25600,83.67000,-0.33000
041225_03.14.04.302,-0.83200,0.54300,-0.82100,-28.68300,-52.29000,-101.69200,-0.54000,0.06800,-0.25900,83.33000,-0.34000
041225_03.14.04.314,-0.53800,0.55800,-0.72000,-19.37200,15.61000,-82.51200,-0.54000,0.06800,-0.25900,84.18000,0.85000
041225_03.14.04.326,-0.66100,0.45400,-0.62600,-2.31000,102.09500,-25.51500,-0.53600,0.06300,-0.27200,84.00000,-0.18000
041225_03.14.04.338,-0.76600,0.62500,-0.91300,16.18700,121.20500,-8.15500,-0.53500,0.06100,-0.27800,83.50000,-0.50000
041225_03.14.04.349,-0.55700,0.51500,-0.95600,31.08000,134.22500,3.44700,-0.54900,0.06300,-0.29400,83.91000,0.41000
041225_03.14.04.361,-0.40400,0.49900,-1.06700,34.03700,136.78000,3.76300,-0.56400,0.07400,-0.30100,84.07000,0.16000
041225_03.14.04.373,-0.25900,0.46300,-1.09000,29.17300,132.31800,-2.62500,-0.56400,0.07400,-0.30100,83.47000,-0.60000
041225_03.14.04.384,-0.23400,0.41100,-1.05700,20.82500,120.29500,-12.65300,-0.57300,0.07200,-0.31800,84.41000,0.94000
041225_03.14.04.396,-0.34300,0.33600,-0.99000,10.46500,106.05000,-25.39200,-0.57600,0.07000,-0.32700,84.33000,-0.08000
041225_03.14.04.408,-0.40500,0.35500,-0.96400,-0.43700,99.17300,-38.83300,-0.57900,0.06200,-0.33800,83.66000,-0.67000
041225_03.14.04.419,-0.37300,0.42900,-0.93500,-8.99500,104.44000,-45.46500,-0.57900,0.05400,-0.35000,83.94000,0.28000
041225_03.14.04.431,-0.35500,0.46300,-0.87700,-11.79500,115.95500,-40.37300,-0.58100,0.05400,-0.35000,84.12000,0.18000
041225_03.14.04.443,-0.42900,0.48200,-0.83300,-8.41800,128.69500,-29.26000,-0.58000,0.05200,-0.37500,83.43000,-0.69000
041225_03.14.04.455,-0.41800,0.51700,-0.85900,-1.68000,142.83500,-19.39000,-0.58100,0.04600,-0.39600,83.94000,0.51000
041225_03.14.04.466,-0.32900,0.54400,-0.95200,3.79800,159.67000,-11.06000,-0.58400,0.04700,-0.41700,83.89000,-0.05000
041225_03.14.04.478,-0.18400,0.54800,-1.04700,7.85800,176.47000,-5.21500,-0.58400,0.04700,-0.41700,83.78000,-0.11000
041225_03.14.04.490,-0.14600,0.51800,-1.11300,12.30200,210.15800,-7.07000,-0.58900,0.05100,-0.44300,83.55000,-0.23000
041225_03.14.04.502,-0.18200,0.43300,-1.09100,25.84700,219.36300,-15.29500,-0.59000,0.04400,-0.46600,83.56000,0.01000
041225_03.14.04.513,0.13300,0.28900,-0.91300,33.14500,223.51000,-21.75300,-0.58500,0.04200,-0.48900,83.85000,0.29000
041225_03.14.04.525,0.38800,0.27400,-0.81200,29.92500,226.66000,-19.84500,-0.58100,0.04100,-0.51400,83.56000,-0.29000
041225_03.14.04.537,0.51000,0.23600,-0.58700,19.46000,221.37500,-11.11300,-0.58100,0.04100,-0.51400,84.41000,0.85000
041225_03.14.04.549,0.55900,0.19500,-0.44300,4.58500,207.39300,0.22800,-0.57500,0.04100,-0.53900,84.20000,-0.21000
041225_03.14.04.560,0.54300,0.21900,-0.43000,-13.03800,190.41700,10.13200,-0.56400,0.04100,-0.55700,83.63000,-0.57000
041225_03.14.04.572,0.43800,0.29600,-0.58900,-28.80500,177.78300,17.16700,-0.55500,0.05100,-0.58000,83.54000,-0.09000
041225_03.14.04.584,0.32000,0.46200,-0.75400,-39.20000,176.26000,21.91000,-0.55500,0.05100,-0.58000,83.67000,0.13000
041225_03.14.04.596,0.28200,0.47900,-0.84100,-42.36800,184.48500,29.50500,-0.54700,0.05500,-0.59800,83.83000,0.16000
041225_03.14.04.607,0.29200,0.49000,-0.84400,-45.36000,195.54500,35.21000,-0.54000,0.06700,-0.63100,83.31000,-0.52000
041225_03.14.04.619,0.40200,0.47500,-0.79000,-50.61000,202.87800,41.82500,-0.53200,0.08300,-0.65800,83.55000,0.24000
041225_03.14.04.631,0.62900,0.45200,-0.72800,-55.82500,203.17500,52.29000,-0.51900,0.09500,-0.68800,83.33000,-0.22000
041225_03.14.04.643,0.76800,0.37200,-0.47500,-65.08200,201.09200,66.93800,-0.51900,0.09500,-0.68800,83.86000,0.53000
041225_03.14.04.654,0.81800,0.22200,-0.22800,-79.27500,191.43200,82.40800,-0.50500,0.11700,-0.71500,83.74000,-0.12000
041225_03.14.04.666,0.74300,0.14900,-0.15700,-108.30800,168.66500,93.83500,-0.49800,0.14400,-0.74500,83.58000,-0.16000
041225_03.14.04.678,0.66200,0.15900,-0.59600,-111.37000,169.45200,91.99700,-0.48100,0.17200,-0.76800,83.76000,0.18000
041225_03.14.04.690,0.59700,0.38500,-0.34200,-113.92500,200.62000,94.08000,-0.46000,0.20500,-0.79800,83.34000,-0.42000
041225_03.14.04.702,0.49600,0.20600,-0.35000,-91.57700,218.08500,98.38500,-0.46000,0.20500,-0.79800,83.63000,0.29000
041225_03.14.04.713,0.46200,0.26700,-0.31500,-68.47800,233.99300,95.70700,-0.42800,0.23400,-0.81200,83.41000,-0.22000
041225_03.14.04.725,0.35400,0.21300,-0.22800,-53.37500,242.02500,96.05800,-0.39200,0.25400,-0.83200,84.18000,0.77000
041225_03.14.04.737,0.33300,0.17500,-0.08500,-51.01300,244.47500,97.54500,-0.34800,0.27400,-0.83800,83.53000,-0.65000
041225_03.14.04.748,0.34200,0.14000,0.01700,-64.33000,240.99300,104.66800,-0.34800,0.27400,-0.83800,83.99000,0.46000
041225_03.14.04.760,0.21900,0.06900,0.04700,-90.59800,232.90800,118.12500,-0.31100,0.29200,-0.85800,83.63000,-0.36000
041225_03.14.04.772,0.18700,0.05700,0.03700,-119.00000,213.32500,127.38200,-0.26500,0.31900,-0.86100,84.51000,0.88000
041225_03.14.04.784,0.17200,-0.04100,0.07400,-152.51200,191.50300,135.48500,-0.22300,0.34600,-0.86000,84.00000,-0.51000
041225_03.14.04.795,0.22500,-0.17300,0.11500,-189.84000,171.88500,144.30500,-0.18900,0.38000,-0.85400,83.50000,-0.50000
041225_03.14.04.807,0.32000,-0.28900,0.13900,-222.63500,148.80300,152.89800,-0.18900,0.38000,-0.85400,83.32000,-0.18000
041225_03.14.04.819,0.38200,-0.33600,0.06400,-242.27000,116.74300,161.05300,-0.15900,0.41800,-0.84900,83.57000,0.25000
041225_03.14.04.830,0.34800,-0.40200,-0.05900,-245.94500,81.35700,167.65000,-0.14300,0.44900,-0.83300,83.38000,-0.19000
041225_03.14.04.842,0.45400,-0.92900,2.13500,-152.32000,-120.57500,176.26000,-0.14400,0.45100,-0.83900,85.03000,1.65000
041225_03.14.04.854,-0.07200,-1.20100,0.59500,-10.29000,-27.68500,168.75300,-0.14400,0.45100,-0.83900,84.14000,-0.89000
041225_03.14.04.866,0.57000,-0.92700,0.72000,13.51000,102.93500,119.24500,-0.12900,0.41900,-0.83100,83.80000,-0.34000
041225_03.14.04.878,0.80000,-0.68800,0.22700,21.10500,89.47800,119.10500,-0.10900,0.39300,-0.82500,83.94000,0.14000
041225_03.14.04.890,0.64300,-0.69300,0.34100,45.76300,80.18500,108.46500,-0.09600,0.36300,-0.82000,83.90000,-0.04000
041225_03.14.04.901,0.55800,-0.71500,0.70300,63.61200,86.27500,92.97800,-0.08600,0.33800,-0.81300,83.26000,-0.64000
041225_03.14.04.913,-0.07400,-0.66100,0.43900,69.47500,100.08200,78.62800,-0.08600,0.33800,-0.81300,83.85000,0.59000
041225_03.14.04.925,0.80700,-0.66400,1.10300,71.17300,104.45700,47.84500,-0.07400,0.30700,-0.79900,83.68000,-0.17000
041225_03.14.04.937,0.75400,-0.60200,0.67600,47.16200,96.86300,65.24000,-0.07000,0.27800,-0.79700,83.80000,0.12000
041225_03.14.04.948,0.27700,-0.82700,0.69600,39.16500,104.89500,74.21700,-0.06100,0.25700,-0.78900,84.37000,0.57000
041225_03.14.04.960,0.26000,-0.84600,0.87000,30.87000,99.94200,55.63200,-0.05700,0.23300,-0.78600,84.27000,-0.10000
041225_03.14.04.972,0.35200,-0.85600,0.91500,18.79500,83.45700,46.46300,-0.05700,0.23300,-0.78600,82.70000,-1.57000
041225_03.14.04.983,0.39300,-0.83700,0.93600,11.18200,70.36800,39.60300,-0.06100,0.22500,-0.77600,83.55000,0.85000
041225_03.14.04.995,0.39700,-0.84400,0.98500,9.81800,60.06000,30.81800,-0.05700,0.21100,-0.77200,83.69000,0.14000
041225_03.14.05.007,0.41800,-0.84700,1.04200,5.16200,45.74500,12.79300,-0.06100,0.19800,-0.77400,83.95000,0.26000
041225_03.14.05.018,0.37000,-0.86500,0.99600,7.66500,42.12300,4.56800,-0.06100,0.19800,-0.77400,83.40000,-0.55000
041225_03.14.05.030,0.31700,-0.80200,0.99000,6.93000,39.51500,0.12300,-0.06000,0.19200,-0.77200,83.59000,0.19000
041225_03.14.05.042,0.28600,-0.79100,0.98500,6.30000,38.16700,-0.54300,-0.05900,0.18400,-0.77400,83.54000,-0.05000
041225_03.14.05.053,0.22500,-0.82400,0.96000,5.14500,38.39500,1.27800,-0.05600,0.18100,-0.77300,84.02000,0.48000
041225_03.14.05.065,0.22100,-0.80100,0.90800,3.85000,39.09500,4.09500,-0.05600,0.17400,-0.77500,83.21000,-0.81000
041225_03.14.05.077,0.21500,-0.80200,0.87200,5.04000,39.53300,9.32800,-0.05600,0.17400,-0.77500,84.11000,0.90000
041225_03.14.05.088,0.22600,-0.73800,0.85500,7.71800,39.35800,15.13700,-0.05400,0.16900,-0.77400,84.05000,-0.06000
041225_03.14.05.100,0.21900,-0.74400,0.85100,11.25200,41.03700,20.70200,-0.05300,0.16300,-0.77300,83.23000,-0.82000
041225_03.14.05.112,0.22100,-0.66900,0.84900,13.54500,44.10000,24.39500,-0.05100,0.15600,-0.77500,83.87000,0.64000
041225_03.14.05.124,0.24400,-0.67400,0.84200,16.22200,47.65300,27.38800,-0.05100,0.15600,-0.77100,83.53000,-0.34000
041225_03.14.05.135,0.20500,-0.65800,0.91300,17.15000,49.92800,28.91000,-0.05300,0.15200,-0.77100,83.84000,0.31000
041225_03.14.05.147,0.18500,-0.64000,0.92800,16.46800,49.03500,27.73700,-0.04900,0.14900,-0.77000,82.99000,-0.85000
041225_03.14.05.159,0.15700,-0.64700,0.94800,16.22200,47.68800,24.65700,-0.04400,0.13800,-0.76900,83.95000,0.96000
041225_03.14.05.170,0.17000,-0.57600,0.93500,15.20800,45.90300,15.62800,-0.04200,0.13600,-0.76400,84.08000,0.13000
041225_03.14.05.182,0.18400,-0.57500,0.92700,13.51000,38.04500,15.41800,-0.04200,0.13600,-0.76400,84.32000,0.24000
041225_03.14.05.194,0.16600,-0.60000,0.94300,12.72200,34.28300,14.98000,-0.04700,0.12500,-0.76600,83.59000,-0.73000
041225_03.14.05.205,0.17400,-0.59000,0.97300,10.93800,30.92300,13.59700,-0.04700,0.12400,-0.76500,83.71000,0.12000
041225_03.14.05.217,0.15100,-0.61300,1.03000,10.79700,26.07500,11.48000,-0.04600,0.11900,-0.76400,83.59000,-0.12000
041225_03.14.05.229,0.11900,-0.63700,1.06700,11.63700,20.19500,7.54300,-0.04600,0.10500,-0.75800,84.19000,0.60000
041225_03.14.05.241,0.09500,-0.65700,1.09500,13.19500,14.84000,2.95700,-0.04600,0.10500,-0.75800,83.45000,-0.74000
041225_03.14.05.252,0.13500,-0.62200,1.11400,14.26200,10.97200,-1.03300,-0.04600,0.10300,-0.75900,83.46000,0.01000
041225_03.14.05.264,0.14200,-0.62100,1.12600,15.40000,7.92800,-3.09800,-0.05100,0.09900,-0.75900,83.28000,-0.18000
041225_03.14.05.276,0.14400,-0.64600,1.13000,18.09500,5.74000,-3.72700,-0.04700,0.09100,-0.75800,83.54000,0.26000
041225_03.14.05.287,0.15800,-0.59800,1.12800,20.44000,4.63700,-4.13000,-0.04700,0.09100,-0.75800,83.83000,0.29000
041225_03.14.05.299,0.16500,-0.63200,1.15000,23.95800,4.48000,-3.34200,-0.04100,0.08500,-0.75100,83.78000,-0.05000
041225_03.14.05.311,0.18700,-0.62400,1.20000,26.12800,3.99000,-3.65800,-0.04400,0.07700,-0.74700,83.91000,0.13000
041225_03.14.05.322,0.22100,-0.57200,1.23500,28.57700,2.81800,-4.07700,-0.04300,0.07000,-0.73700,83.35000,-0.56000
041225_03.14.05.334,0.22800,-0.53100,1.27300,32.84700,0.03500,-5.05700,-0.03900,0.06900,-0.73100,84.20000,0.85000
041225_03.14.05.346,0.22300,-0.53900,1.30000,38.22000,-10.15000,-9.53800,-0.03900,0.06900,-0.73100,83.68000,-0.52000
041225_03.14.05.358,0.19500,-0.52200,1.33100,58.43200,-19.95000,-12.89800,-0.04000,0.05900,-0.71700,83.52000,-0.16000
041225_03.14.05.369,0.49700,-0.61000,1.60700,62.65000,-42.36800,-18.35800,-0.04000,0.05400,-0.70200,83.59000,0.07000
041225_03.14.05.381,0.03000,-0.44300,1.19500,64.64500,-80.04500,-34.93000,-0.04400,0.04700,-0.68700,83.74000,0.15000
041225_03.14.05.393,0.16400,-0.35500,1.18100,75.30200,-91.33200,-30.27500,-0.04400,0.04700,-0.67900,83.40000,-0.34000
041225_03.14.05.405,0.10900,-0.48800,1.19500,92.61000,-95.48000,-22.38200,-0.04500,0.04000,-0.67900,83.98000,0.58000
041225_03.14.05.416,0.13500,-0.49600,1.27500,102.62000,-93.92300,-23.85300,-0.04600,0.03900,-0.65700,83.21000,-0.77000
041225_03.14.05.428,0.18500,-0.31100,1.15600,109.53300,-96.46000,-25.16500,-0.04800,0.03400,-0.64200,83.23000,0.02000
041225_03.14.05.440,0.19700,-0.17400,1.02600,102.02500,-76.14300,-24.60500,-0.03800,0.02900,-0.61600,83.63000,0.40000
041225_03.14.05.452,0.27500,0.05200,1.22700,72.87000,-44.64300,-27.73700,-0.03800,0.02900,-0.61600,83.43000,-0.20000
041225_03.14.05.463,0.04200,-0.14000,1.33300,54.86200,-26.74000,-18.72500,-0.02300,0.03000,-0.60200,83.21000,-0.22000
041225_03.14.05.475,-0.16700,-0.19200,1.18300,45.97200,-25.16500,-17.97200,-0.01300,0.03600,-0.58700,83.97000,0.76000
041225_03.14.05.487,-0.06800,-0.19000,1.10500,42.68200,-26.19800,-20.38800,0.00700,0.04500,-0.57700,83.26000,-0.71000
041225_03.14.05.498,-0.11200,-0.31500,1.13500,32.35800,-20.58000,-10.18500,0.01500,0.05200,-0.57200,83.48000,0.22000
041225_03.14.05.510,-0.16300,-0.29900,1.03500,27.24700,-28.73500,-1.43500,0.01500,0.05200,-0.57200,82.55000,-0.93000
041225_03.14.05.521,-0.01300,-0.31600,0.76200,45.29000,-72.78300,13.03800,0.02400,0.06000,-0.57100,83.62000,1.07000
041225_03.14.05.533,0.09700,-0.36800,0.79800,65.48500,-74.77800,22.19000,0.02700,0.06800,-0.56800,83.45000,-0.17000
041225_03.14.05.544,-0.12100,-0.28600,1.12300,73.44800,-79.76500,25.86500,0.02800,0.07000,-0.56300,82.96000,-0.49000
041225_03.14.05.556,-0.05900,-0.18400,1.12300,73.62200,-91.70000,27.45800,0.02800,0.07000,-0.56300,83.89000,0.93000
041225_03.14.05.568,0.14000,-0.06600,0.92500,64.26000,-97.82500,29.50500,0.02800,0.07100,-0.57800,83.39000,-0.50000
041225_03.14.05.579,0.25200,-0.00600,0.87000,50.20800,-94.60500,30.48500,0.01800,0.07800,-0.58100,83.21000,-0.18000
041225_03.14.05.591,0.29500,-0.13800,0.95000,36.01500,-87.37800,30.95800,0.02000,0.08500,-0.60000,83.62000,0.41000
041225_03.14.05.603,0.30900,-0.26900,0.89400,24.32500,-80.58800,34.35300,0.01100,0.09200,-0.61200,84.06000,0.44000
041225_03.14.05.614,0.12100,-0.33000,0.84300,24.16700,-83.52800,38.32500,0.01100,0.09200,-0.61200,83.97000,-0.09000
041225_03.14.05.628,0.17900,-0.34100,0.79100,37.62500,-105.07000,34.00200,0.00600,0.09700,-0.62500,83.69000,-0.28000
041225_03.14.05.640,0.22800,-0.25400,0.77200,53.95200,-134.76800,28.87500,-0.01100,0.09900,-0.64200,83.18000,-0.51000
041225_03.14.05.651,0.24500,-0.23200,0.80900,62.80700,-163.74700,19.68700,-0.03200,0.10100,-0.66200,83.45000,0.27000
041225_03.14.05.663,0.34600,-0.21000,0.70900,68.25000,-188.72000,10.44800,-0.05900,0.10300,-0.68100,83.09000,-0.36000
041225_03.14.05.675,0.36700,-0.20200,0.60900,73.11500,-206.50000,5.56500,-0.05900,0.10300,-0.68100,83.08000,-0.01000
041225_03.14.05.687,0.39700,-0.17900,0.54500,76.10700,-216.35300,2.22300,-0.08700,0.09900,-0.69500,84.04000,0.96000
041225_03.14.05.698,0.47500,-0.14100,0.47700,75.79300,-216.40500,4.53200,-0.13000,0.09400,-0.70700,83.34000,-0.70000
041225_03.14.05.710,0.62500,-0.16000,0.35700,74.67300,-209.16000,8.89000,-0.16700,0.08700,-0.71300,83.56000,0.22000
041225_03.14.05.721,0.69300,-0.14600,0.34300,75.61800,-200.32200,10.99000,-0.16700,0.08700,-0.71300,83.61000,0.05000
041225_03.14.05.733,0.74100,-0.11200,0.31800,78.05000,-191.95800,12.18000,-0.20500,0.07800,-0.71900,82.84000,-0.77000
041225_03.14.05.744,0.78000,-0.09400,0.26600,79.27500,-183.89000,14.80500,-0.24300,0.06700,-0.71100,83.70000,0.86000
041225_03.14.05.756,0.78700,-0.10800,0.17400,81.88200,-178.13300,18.32300,-0.27900,0.05700,-0.70500,82.97000,-0.73000
041225_03.14.05.767,0.75900,-0.13800,0.14200,86.97500,-174.33500,22.89000,-0.32100,0.04500,-0.68900,83.14000,0.17000
041225_03.14.05.779,0.75200,-0.12600,0.08100,90.35300,-172.13000,27.80800,-0.32100,0.04500,-0.68900,83.43000,0.29000
041225_03.14.05.791,0.73800,-0.11700,0.00600,91.96300,-171.41300,33.16200,-0.34800,0.03800,-0.68000,83.69000,0.26000
041225_03.14.05.802,0.72300,-0.10600,-0.05000,92.78500,-171.57000,37.03000,-0.38800,0.03000,-0.65600,83.84000,0.15000
041225_03.14.05.814,0.74400,-0.06600,-0.07000,92.10300,-172.51500,39.81300,-0.42000,0.02500,-0.63400,84.23000,0.39000
041225_03.14.05.826,0.79800,-0.03000,-0.13800,88.88200,-174.09000,41.72000,-0.42000,0.02500,-0.63400,83.85000,-0.38000
041225_03.14.05.837,0.87100,-0.00400,-0.27700,83.17700,-175.36800,42.12300,-0.44800,0.02200,-0.59500,83.73000,-0.12000
041225_03.14.05.849,0.85400,-0.03900,-0.41200,79.45000,-179.48000,41.79000,-0.47400,0.01600,-0.57200,83.79000,0.06000
041225_03.14.05.860,0.75500,-0.04800,-0.36800,77.19200,-191.36300,36.08500,-0.49500,0.02000,-0.54800,83.74000,-0.05000
041225_03.14.05.872,0.70100,-0.08600,-0.28800,72.22300,-200.34000,32.30500,-0.51300,0.01800,-0.52000,83.61000,-0.13000
041225_03.14.05.884,0.63400,-0.07000,-0.33600,66.01000,-208.68700,28.10500,-0.51300,0.01800,-0.52000,83.05000,-0.56000
041225_03.14.05.896,0.63000,-0.10800,-0.44000,61.33800,-215.68700,24.20200,-0.53200,0.02300,-0.47800,83.92000,0.87000
041225_03.14.05.908,0.59200,-0.16000,-0.52500,57.66200,-218.31200,22.61000,-0.53800,0.02600,-0.44100,83.67000,-0.25000
041225_03.14.05.919,0.56900,-0.19600,-0.57700,52.57000,-214.79500,24.44800,-0.54700,0.03100,-0.41100,83.51000,-0.16000
041225_03.14.05.931,0.53400,-0.24100,-0.62900,47.28500,-207.95200,28.21000,-0.54600,0.03600,-0.38100,83.53000,0.02000
041225_03.14.05.943,0.49700,-0.27400,-0.65900,44.39700,-199.92000,31.30800,-0.54600,0.03600,-0.38100,83.38000,-0.15000
041225_03.14.05.955,0.45900,-0.32600,-0.66300,45.74500,-192.16700,32.69000,-0.54400,0.04200,-0.35000,83.41000,0.03000
041225_03.14.05.966,0.42700,-0.38300,-0.68400,48.38800,-185.55300,32.79500,-0.54200,0.05000,-0.32100,83.58000,0.17000
041225_03.14.05.978,0.36900,-0.39100,-0.73300,49.66500,-179.81200,34.02000,-0.53500,0.05800,-0.29100,83.03000,-0.55000
041225_03.14.05.990,0.35000,-0.44700,-0.76100,56.96300,-173.95000,34.75500,-0.53500,0.05800,-0.29100,84.17000,1.14000
041225_03.14.06.001,0.29100,-0.44600,-0.79900,68.26800,-168.19300,36.12000,-0.52300,0.06200,-0.26300,83.62000,-0.55000
041225_03.14.06.013,0.20500,-0.52600,-0.72300,75.19800,-162.90800,39.56800,-0.51400,0.07500,-0.23900,83.66000,0.04000
041225_03.14.06.024,0.08900,-0.51100,-0.74200,72.03000,-156.94000,38.95500,-0.50000,0.08700,-0.22000,83.21000,-0.45000
041225_03.14.06.036,0.02600,-0.57900,-0.76800,62.24800,-150.71000,30.04800,-0.48700,0.10200,-0.20000,83.08000,-0.13000
041225_03.14.06.047,0.03800,-0.68900,-0.85800,59.62300,-149.39800,21.28000,-0.48700,0.10200,-0.20000,83.91000,0.83000
041225_03.14.06.059,0.04400,-0.70900,-0.82400,62.87700,-145.84500,16.43300,-0.46800,0.11300,-0.17000,83.08000,-0.83000
041225_03.14.06.071,0.04300,-0.74900,-0.76900,68.91500,-137.06000,13.82500,-0.44700,0.12100,-0.16500,83.40000,0.32000
041225_03.14.06.082,0.01300,-0.76000,-0.71700,72.25700,-120.55800,13.16000,-0.42900,0.13100,-0.14800,83.65000,0.25000
041225_03.14.06.094,0.01500,-0.76700,-0.69100,71.33000,-97.40500,14.49000,-0.42900,0.13100,-0.14800,83.95000,0.30000
041225_03.14.06.105,0.03200,-0.77700,-0.68000,68.77500,-72.59000,15.62800,-0.41700,0.14500,-0.13700,83.22000,-0.73000
041225_03.14.06.117,0.01300,-0.78400,-0.64500,68.40800,-50.69700,14.52500,-0.40900,0.15600,-0.12800,83.57000,0.35000
041225_03.14.06.129,0.00100,-0.77600,-0.64200,69.33500,-33.51300,12.56500,-0.40300,0.17200,-0.11900,83.85000,0.28000
041225_03.14.06.140,-0.05500,-0.75300,-0.61100,70.43800,-19.79200,11.49800,-0.39700,0.18400,-0.11700,83.03000,-0.82000
041225_03.14.06.152,-0.11200,-0.76000,-0.57800,68.39000,-8.92500,9.50200,-0.39700,0.18400,-0.11700,83.72000,0.69000
041225_03.14.06.163,-0.13200,-0.75700,-0.57600,63.01800,-0.43700,5.11000,-0.39500,0.19600,-0.10800,83.40000,-0.32000
041225_03.14.06.175,-0.13400,-0.75100,-0.59900,55.45800,6.14200,0.80500,-0.39000,0.20100,-0.10300,83.68000,0.28000
041225_03.14.06.187,-0.11800,-0.74500,-0.63100,48.21300,10.16800,-1.57500,-0.38900,0.21800,-0.10000,83.44000,-0.24000
041225_03.14.06.198,-0.06900,-0.75700,-0.68700,38.57000,9.95800,2.25700,-0.39000,0.22400,-0.10000,82.95000,-0.49000
041225_03.14.06.210,-0.03300,-0.75000,-0.65300,35.56000,10.34200,7.14000,-0.39000,0.22400,-0.10000,83.14000,0.19000
041225_03.14.06.222,-0.12300,-0.65300,-0.58900,28.33300,12.81000,12.02300,-0.39100,0.22700,-0.09800,83.16000,0.02000
041225_03.14.06.234,-0.16600,-0.65100,-0.59200,17.32500,14.73500,14.35000,-0.39100,0.23800,-0.09800,83.37000,0.21000
041225_03.14.06.245,-0.19400,-0.63500,-0.63100,1.55800,14.52500,12.93200,-0.38900,0.23200,-0.09600,83.96000,0.59000
041225_03.14.06.257,-0.20100,-0.65700,-0.68900,-14.36800,9.83500,10.65800,-0.38900,0.23200,-0.09600,83.24000,-0.72000
041225_03.14.06.269,-0.20800,-0.67200,-0.68600,-23.74700,1.48700,4.86500,-0.38700,0.23300,-0.09600,83.41000,0.17000
041225_03.14.06.281,-0.18900,-0.58800,-0.69900,-31.32500,-14.54300,-2.06500,-0.38600,0.22500,-0.09900,83.10000,-0.31000
041225_03.14.06.292,-0.12000,-0.59300,-1.04900,-40.93200,-33.26800,-5.46000,-0.37400,0.21900,-0.09700,83.41000,0.31000
041225_03.14.06.304,-0.29500,-0.48300,-1.18300,-57.99500,-51.34500,-11.91800,-0.35800,0.21400,-0.09700,83.70000,0.29000
041225_03.14.06.316,-0.17800,-0.60300,-1.14900,-48.19500,-56.00000,-17.50000,-0.35800,0.21400,-0.09700,83.49000,-0.21000
041225_03.14.06.327,0.23100,-0.59500,-1.73900,-21.73500,-31.15000,-7.92800,-0.34600,0.20200,-0.09400,83.51000,0.02000
041225_03.14.06.339,-0.28100,-0.76600,-0.78100,-14.85800,-7.08800,6.84300,-0.33900,0.20200,-0.09600,83.58000,0.07000
041225_03.14.06.350,0.00800,-0.57800,-0.84900,-30.99300,-16.48500,0.84000,-0.33600,0.19600,-0.09800,83.09000,-0.49000
041225_03.14.06.362,-0.10200,-0.83600,-1.14400,-39.90000,-11.63700,-1.26000,-0.33600,0.19600,-0.09900,83.24000,0.15000
041225_03.14.06.374,-0.28500,-0.77900,-1.74100,3.39500,38.90300,-3.37800,-0.34100,0.19900,-0.09900,82.84000,-0.40000
041225_03.14.06.385,-0.08700,-0.70100,-0.89500,-13.16000,25.70800,0.00000,-0.34700,0.20000,-0.10300,83.14000,0.30000
041225_03.14.06.397,-0.06600,-0.81600,-0.94200,-24.22000,24.32500,-7.35000,-0.35100,0.19700,-0.10300,83.95000,0.81000
041225_03.14.06.408,0.05600,-0.81800,-0.86700,-33.42500,23.71200,-17.78000,-0.35100,0.19200,-0.10700,83.04000,-0.91000
041225_03.14.06.420,0.04200,-0.81000,-0.90700,-47.88000,19.74000,-24.15000,-0.35100,0.19200,-0.10700,83.82000,0.78000
041225_03.14.06.432,-0.03400,-0.62000,-0.95700,-62.61500,19.25000,-24.90300,-0.34700,0.17700,-0.11500,82.90000,-0.92000
041225_03.14.06.443,-0.03600,-0.26200,-1.10600,-68.53000,23.52000,-6.59700,-0.34500,0.16300,-0.12100,83.39000,0.49000
041225_03.14.06.455,0.00000,-0.68700,-1.05300,-58.20500,38.95500,24.62200,-0.35000,0.15400,-0.13000,83.51000,0.12000
041225_03.14.06.466,0.07500,-0.73100,-1.03500,-63.56000,44.38000,29.97800,-0.35600,0.14000,-0.13600,83.93000,0.42000
041225_03.14.06.478,-0.08200,-0.53500,-1.05800,-75.79300,51.27500,25.91700,-0.35600,0.14000,-0.13600,83.09000,-0.84000
041225_03.14.06.489,-0.12100,-0.38000,-1.07900,-69.56300,77.28000,22.06700,-0.37800,0.12900,-0.14300,83.64000,0.55000
041225_03.14.06.501,0.27100,-0.13800,-1.10100,-37.57200,79.38000,9.83500,-0.38900,0.12800,-0.15200,83.85000,0.21000
041225_03.14.06.512,0.22400,-0.37500,-1.09700,-2.67800,60.60300,8.19000,-0.40000,0.13000,-0.14600,83.06000,-0.79000
041225_03.14.06.524,0.06700,-0.63100,-1.17900,15.12000,35.92800,-5.46000,-0.40000,0.13000,-0.14600,83.81000,0.75000
041225_03.14.06.535,0.06400,-0.37200,-1.13400,22.20800,12.93200,-7.78700,-0.40400,0.13200,-0.14700,83.72000,-0.09000
041225_03.14.06.547,0.02700,-0.41400,-0.95200,33.65300,5.49500,2.62500,-0.40600,0.13700,-0.14300,83.73000,0.01000
041225_03.14.06.558,0.03200,-0.49200,-0.93400,38.41200,0.71800,11.74300,-0.40700,0.14300,-0.14000,83.26000,-0.47000
041225_03.14.06.570,0.03000,-0.46800,-0.98900,41.30000,0.43700,18.74300,-0.40400,0.15200,-0.13800,83.22000,-0.04000
041225_03.14.06.581,0.13800,-0.49300,-0.97600,39.48000,8.78500,20.21200,-0.40400,0.15200,-0.13800,83.05000,-0.17000
041225_03.14.06.593,0.22400,-0.58300,-0.96200,33.91500,16.88800,18.90000,-0.41100,0.15100,-0.14000,83.16000,0.11000
041225_03.14.06.604,0.20700,-0.62000,-0.98600,22.83700,24.41300,15.50500,-0.41300,0.15600,-0.13600,83.59000,0.43000
041225_03.14.06.616,0.13100,-0.66000,-0.97000,11.34000,30.53800,9.24000,-0.42100,0.16200,-0.13600,83.58000,-0.01000
041225_03.14.06.627,0.20800,-0.65900,-0.95600,-1.20700,37.48500,3.74500,-0.42100,0.15300,-0.14500,83.26000,-0.32000
041225_03.14.06.639,0.15400,-0.60300,-0.98300,-9.57300,40.60000,2.87000,-0.43200,0.15300,-0.14500,83.38000,0.12000
041225_03.14.06.650,0.17900,-0.57600,-1.01600,-12.84500,38.51800,0.24500,-0.43400,0.15400,-0.15100,83.18000,-0.20000
041225_03.14.06.662,0.18200,-0.60400,-1.04000,-18.41000,38.29000,-1.68000,-0.43700,0.14500,-0.15600,83.76000,0.58000
041225_03.14.06.674,0.14200,-0.70700,-1.04100,-22.15500,39.98700,-6.94800,-0.44500,0.14200,-0.16800,83.77000,0.01000
041225_03.14.06.685,0.10000,-0.57200,-1.09700,-24.97200,41.75500,-15.15500,-0.44500,0.14200,-0.16800,83.46000,-0.31000
041225_03.14.06.697,0.07000,-0.64400,-1.08400,-26.32000,44.83500,-16.03000,-0.45400,0.14000,-0.17200,83.63000,0.17000
041225_03.14.06.708,0.18700,-0.59600,-1.07100,-16.92300,58.04800,-21.05200,-0.45900,0.12700,-0.17400,83.37000,-0.26000
041225_03.14.06.720,0.25000,-0.69900,-1.04700,-9.67700,69.59800,-26.56500,-0.46200,0.12200,-0.18500,83.11000,-0.26000
041225_03.14.06.731,0.24400,-0.74900,-1.02800,-6.87800,83.52800,-32.88200,-0.46800,0.11600,-0.20000,83.48000,0.37000
041225_03.14.06.743,0.14200,-0.81500,-0.98000,-13.16000,98.66500,-41.87700,-0.46800,0.11600,-0.20000,83.69000,0.21000
041225_03.14.06.755,0.29100,-0.80700,-0.89600,-25.72500,117.18000,-54.37300,-0.48100,0.11200,-0.21900,83.35000,-0.34000
041225_03.14.06.766,0.41900,-0.77600,-0.72000,-41.44000,128.81800,-61.67000,-0.49300,0.09500,-0.22700,83.32000,-0.03000
041225_03.14.06.778,0.39600,-0.77700,-0.68800,-59.32500,137.95200,-71.01500,-0.49700,0.07900,-0.25500,82.67000,-0.65000
041225_03.14.06.790,0.66300,-0.47800,-0.52600,-74.02500,144.97000,-86.36300,-0.49700,0.07900,-0.25500,82.99000,0.32000
041225_03.14.06.802,0.41700,-0.34000,-0.62800,-81.84800,144.60200,-99.40000,-0.50400,0.06300,-0.28200,83.71000,0.72000
041225_03.14.06.813,0.52600,-0.29400,-0.67200,-72.67700,143.97300,-112.87500,-0.50200,0.04700,-0.31100,82.87000,-0.84000
041225_03.14.06.825,0.53000,-0.39600,-0.67600,-59.97200,145.35500,-126.77000,-0.49300,0.03000,-0.33100,82.93000,0.06000
041225_03.14.06.837,0.58800,-0.32600,-0.64500,-50.73300,146.91300,-135.50300,-0.48400,0.01400,-0.35300,82.92000,-0.01000
041225_03.14.06.849,0.54200,-0.29000,-0.65000,-41.75500,144.21700,-139.38700,-0.48400,0.01400,-0.35300,83.74000,0.82000
041225_03.14.06.861,0.48700,-0.28100,-0.61900,-31.51700,138.39000,-142.43200,-0.47200,-0.00600,-0.37000,83.91000,0.17000
041225_03.14.06.873,0.52500,-0.25300,-0.52300,-23.34500,120.27800,-133.00000,-0.45100,-0.01700,-0.38500,82.90000,-1.01000
041225_03.14.06.884,0.62200,-0.12400,-0.28100,-26.14500,105.42000,-116.77800,-0.43100,-0.02600,-0.40200,83.54000,0.64000
041225_03.14.06.896,0.59200,-0.15800,-0.23400,-28.64800,91.07000,-105.54300,-0.41400,-0.03300,-0.41900,83.22000,-0.32000
041225_03.14.06.907,0.62600,-0.07100,-0.32100,-30.18700,82.65300,-97.68500,-0.41400,-0.03300,-0.41900,83.09000,-0.13000
041225_03.14.06.919,0.87900,0.06300,-0.16200,-30.73000,77.66500,-84.01800,-0.39400,-0.04100,-0.43400,83.42000,0.33000
041225_03.14.06.930,0.39000,-0.32800,-0.60700,-32.63800,68.67000,-76.33500,-0.38400,-0.04700,-0.44800,83.17000,-0.25000
041225_03.14.06.942,0.44800,-0.31200,-0.73900,-34.10800,84.21000,-89.39000,-0.36500,-0.05500,-0.45600,83.07000,-0.10000
041225_03.14.06.954,0.43200,-0.25700,-0.49400,-45.20200,107.99300,-98.68300,-0.36500,-0.05500,-0.45600,83.63000,0.56000
041225_03.14.06.965,0.39200,-0.12400,-0.52900,-60.77800,119.24500,-104.05500,-0.34700,-0.05800,-0.47100,82.87000,-0.76000
041225_03.14.06.977,0.34500,-0.03100,-0.44100,-62.98300,131.67000,-114.27500,-0.31400,-0.06000,-0.48300,83.39000,0.52000
041225_03.14.06.989,0.37100,-0.00300,-0.29100,-62.51000,144.69000,-122.72800,-0.28500,-0.05900,-0.50000,82.72000,-0.67000
041225_03.14.07.000,0.39500,-0.01200,-0.20300,-66.57000,157.34200,-126.57700,-0.24900,-0.06000,-0.51500,83.05000,0.33000
041225_03.14.07.012,0.37600,0.00700,-0.17900,-71.71500,168.29800,-130.60200,-0.24900,-0.06000,-0.51500,83.41000,0.36000
041225_03.14.07.024,0.40200,0.02000,-0.05300,-78.27800,175.68200,-131.95000,-0.20900,-0.05000,-0.52000,83.04000,-0.37000
041225_03.14.07.035,0.51500,0.25600,0.08200,-87.97300,180.26800,-133.35000,-0.17000,-0.04100,-0.52900,83.04000,0.00000
041225_03.14.07.047,0.55800,0.34900,0.16200,-102.88200,170.81800,-138.21500,-0.12700,-0.02700,-0.53000,83.71000,0.67000
041225_03.14.07.059,0.60200,0.40200,0.24200,-111.82500,162.43500,-139.82500,-0.12700,-0.02700,-0.53000,83.77000,0.06000
041225_03.14.07.071,0.54000,0.43000,0.29200,-117.26800,159.56500,-144.88300,-0.09100,-0.00800,-0.53200,83.28000,-0.49000
041225_03.14.07.082,0.45600,0.43600,0.39700,-119.35000,162.06800,-153.80700,-0.05400,0.01500,-0.53300,82.99000,-0.29000
041225_03.14.07.094,0.45600,0.44700,0.52600,-121.31000,165.16500,-161.68200,-0.01900,0.04000,-0.52400,83.50000,0.51000
041225_03.14.07.106,0.42600,0.52500,0.58400,-126.28000,166.35500,-167.26500,0.01700,0.06500,-0.51700,84.09000,0.59000
041225_03.14.07.117,0.36500,0.60100,0.60100,-129.76200,164.76200,-172.88300,0.01700,0.06500,-0.51700,84.07000,-0.02000
041225_03.14.07.129,0.31600,0.58400,0.72900,-131.63500,161.21000,-180.09200,0.04500,0.08900,-0.49700,83.51000,-0.56000
041225_03.14.07.140,0.22300,0.50700,0.68900,-140.63000,160.05500,-187.09200,0.07300,0.11600,-0.47900,82.83000,-0.68000
041225_03.14.07.152,0.00800,0.42300,0.58400,-152.89800,165.23500,-198.03000,0.09300,0.14400,-0.45700,83.67000,0.84000
041225_03.14.07.164,-0.14900,0.35100,0.60100,-161.07000,180.75800,-217.21000,0.11100,0.17800,-0.43700,83.23000,-0.44000
041225_03.14.07.175,-0.17600,0.18900,0.65700,-171.13300,196.03500,-239.83700,0.11100,0.17800,-0.43700,83.99000,0.76000
041225_03.14.07.187,-0.17000,0.19800,0.80900,-186.32200,199.76200,-258.61500,0.12100,0.21900,-0.40600,83.40000,-0.59000
041225_03.14.07.199,-0.55100,0.23800,1.22800,-202.56200,198.17000,-273.08700,0.12900,0.25500,-0.38500,83.34000,-0.06000
041225_03.14.07.210,-0.49700,0.44800,1.21900,-228.93500,193.97000,-296.52000,0.13500,0.28900,-0.36000,83.01000,-0.33000
041225_03.14.07.222,-0.28000,0.54100,1.37100,-217.98000,165.98800,-267.41800,0.13500,0.28900,-0.36000,83.46000,0.45000
041225_03.14.07.233,-0.55800,1.01200,1.49500,-171.72700,140.80500,-226.25800,0.13700,0.31700,-0.33300,83.32000,-0.14000
041225_03.14.07.245,-0.53800,0.79600,1.37100,-118.93000,118.05500,-176.61000,0.13700,0.34500,-0.32100,83.64000,0.32000
041225_03.14.07.256,-0.58100,0.60500,1.10800,-66.18500,96.40800,-127.87200,0.12800,0.36200,-0.30300,83.26000,-0.38000
041225_03.14.07.268,-0.52300,0.16200,1.31700,-26.53000,79.88700,-93.85300,0.12500,0.37200,-0.28600,82.80000,-0.46000
041225_03.14.07.279,-0.49300,-0.00200,1.12000,-26.96800,71.41800,-80.16800,0.12500,0.37200,-0.28600,83.39000,0.59000
041225_03.14.07.291,-0.60400,-0.09100,0.90600,-34.49300,76.70200,-78.85500,0.12300,0.38200,-0.27200,83.56000,0.17000
041225_03.14.07.303,-0.50000,-0.32500,0.70800,-50.12000,98.89300,-101.22000,0.11200,0.39400,-0.25600,83.91000,0.35000
041225_03.14.07.314,-0.35500,-0.27600,0.94500,-70.22800,122.15000,-123.55000,0.10500,0.41000,-0.22800,82.84000,-1.07000
041225_03.14.07.326,-0.44700,-0.13200,0.89800,-85.68000,134.27700,-133.61300,0.10500,0.41000,-0.21300,83.06000,0.22000
041225_03.14.07.337,-0.46000,-0.03000,0.90200,-83.58000,137.62000,-135.90500,0.08800,0.41700,-0.21300,83.14000,0.08000
041225_03.14.07.349,-0.34800,0.05400,1.04900,-73.51800,133.07000,-133.42000,0.07200,0.43400,-0.19600,83.84000,0.70000
041225_03.14.07.361,-0.35100,0.01900,1.04400,-60.86500,122.09800,-125.96500,0.05800,0.44300,-0.17800,83.26000,-0.58000
041225_03.14.07.372,-0.36800,0.01400,1.01800,-44.15300,107.83500,-118.80800,0.04900,0.46100,-0.17000,82.68000,-0.58000
041225_03.14.07.384,-0.74100,-0.07900,0.59300,-16.46800,73.74500,-97.02000,0.04900,0.46100,-0.17000,83.44000,0.76000
041225_03.14.07.396,-1.33100,-0.80800,0.50800,-25.79500,83.10700,-84.75300,0.03300,0.47100,-0.15600,82.60000,-0.84000
041225_03.14.07.407,-0.64600,-0.69200,0.47600,-33.39000,65.27500,-59.79800,0.02600,0.48000,-0.15400,82.99000,0.39000
041225_03.14.07.419,-0.45900,-0.29700,0.39900,-35.52500,45.51800,-54.74000,0.02000,0.47900,-0.14500,83.29000,0.30000
041225_03.14.07.431,-0.67100,-0.38300,0.28400,-20.75500,29.41700,-35.96300,0.02200,0.47500,-0.14500,82.98000,-0.31000
041225_03.14.07.443,-0.70400,-0.36500,0.34700,-1.41800,17.62200,-20.80800,0.02200,0.47500,-0.14500,83.56000,0.58000
041225_03.14.07.454,-0.63900,-0.34300,0.38600,9.80000,1.19000,-10.97200,0.02600,0.47500,-0.14800,83.02000,-0.54000
041225_03.14.07.466,-0.63800,-0.30200,0.41400,14.84000,-17.93700,-3.81500,0.03000,0.47500,-0.14900,83.31000,0.29000
041225_03.14.07.478,-0.67800,-0.27300,0.45400,17.22000,-38.85000,-2.50300,0.03500,0.48500,-0.16500,83.15000,-0.16000
041225_03.14.07.489,-0.87600,-0.37900,0.45100,23.15300,-57.06800,-2.13500,0.03500,0.48500,-0.16500,83.23000,0.08000
041225_03.14.07.501,-1.05600,-0.50800,0.47500,28.70000,-60.35800,0.85800,0.04100,0.49000,-0.17400,83.29000,0.06000
041225_03.14.07.513,-1.16500,-0.25000,0.45400,27.63200,-53.09500,8.62700,0.05900,0.48800,-0.19100,83.15000,-0.14000
041225_03.14.07.525,-1.15600,-0.46200,0.57300,23.62500,-38.79800,20.98300,0.07100,0.48700,-0.19700,82.64000,-0.51000
041225_03.14.07.536,-1.04200,-0.47100,0.63300,31.50000,-31.22000,16.43300,0.07700,0.48400,-0.20800,83.15000,0.51000
041225_03.14.07.548,-1.00000,-0.43600,0.65600,36.82000,-23.24000,5.60000,0.07700,0.48400,-0.20800,82.77000,-0.38000
041225_03.14.07.560,-0.94100,-0.37800,0.78300,34.96500,-21.00000,4.81200,0.08300,0.49000,-0.20700,83.31000,0.54000
041225_03.14.07.571,-0.99900,-0.26800,0.98900,26.12800,-24.58700,15.68000,0.09100,0.48900,-0.21900,82.95000,-0.36000
041225_03.14.07.583,-1.01400,-0.48800,0.48100,24.04500,-10.25500,17.92000,0.09400,0.48000,-0.21800,83.23000,0.28000
041225_03.14.07.594,-0.83100,-0.47700,0.59100,36.40000,10.67500,9.81800,0.09400,0.49700,-0.22100,83.45000,0.22000
041225_03.14.07.606,-0.74800,-0.53500,0.61700,29.29500,8.27800,10.97200,0.09200,0.49700,-0.22100,82.95000,-0.50000
041225_03.14.07.617,-0.87500,-0.52700,0.62300,19.56500,-4.77800,17.79800,0.08900,0.49300,-0.23000,83.07000,0.12000
041225_03.14.07.629,-0.93700,-0.49300,0.63300,14.56000,-13.16000,19.89800,0.09000,0.49000,-0.22800,83.90000,0.83000
041225_03.14.07.641,-0.91900,-0.39600,0.61700,9.67700,-18.84700,21.61200,0.09500,0.49300,-0.23700,82.43000,-1.47000
041225_03.14.07.652,-0.88900,-0.34700,0.59400,7.12200,-20.66700,26.00500,0.09500,0.49300,-0.23700,82.97000,0.54000
041225_03.14.07.664,-0.67600,-0.29300,0.69700,8.29500,-23.29200,31.76300,0.09900,0.48400,-0.23900,82.72000,-0.25000
041225_03.14.07.675,-0.73900,-0.43200,0.70400,13.45800,-39.51500,32.28700,0.10200,0.48000,-0.24800,83.80000,1.08000
041225_03.14.07.687,-0.95700,-0.48300,0.73200,18.60300,-63.73500,32.37500,0.11600,0.48000,-0.26300,83.02000,-0.78000
041225_03.14.07.698,-0.81700,-0.25800,0.68100,22.78500,-86.69500,29.89000,0.12100,0.47200,-0.29000,82.74000,-0.28000
041225_03.14.07.710,-0.86500,-0.16400,0.78000,27.61500,-103.26800,31.71000,0.12100,0.47200,-0.29000,82.75000,0.01000
041225_03.14.07.722,-0.72200,-0.06500,0.81300,35.24500,-122.72800,27.44000,0.13000,0.47600,-0.31500,83.10000,0.35000
041225_03.14.07.733,-0.45200,-0.03100,0.82900,47.75700,-133.50800,40.14500,0.14100,0.47400,-0.33300,83.07000,-0.03000
041225_03.14.07.745,-0.61600,-0.05800,0.83800,49.19300,-145.60000,42.15800,0.14900,0.46400,-0.35700,83.37000,0.30000
041225_03.14.07.756,-0.89100,-0.10900,0.88400,48.26500,-142.53800,30.71200,0.14900,0.46400,-0.35700,83.53000,0.16000
041225_03.14.07.768,-0.56100,0.03900,0.79600,43.38200,-118.65000,21.43700,0.15600,0.45700,-0.37800,82.71000,-0.82000
041225_03.14.07.779,-0.38000,0.05100,0.82300,55.87700,-123.63700,18.67300,0.16000,0.46200,-0.40400,83.08000,0.37000
041225_03.14.07.791,-0.54900,-0.11000,0.85200,65.92300,-127.52200,22.78500,0.15400,0.45900,-0.43100,83.19000,0.11000
041225_03.14.07.803,-0.47200,0.16300,0.83800,67.55000,-120.50500,29.27800,0.15600,0.45800,-0.44500,83.12000,-0.07000
041225_03.14.07.814,-0.38000,0.16400,0.86500,73.76200,-108.78000,34.61500,0.15600,0.45800,-0.44500,83.29000,0.17000
041225_03.14.07.826,-0.23300,0.05600,1.09500,78.29500,-97.89500,31.18500,0.16200,0.44400,-0.46800,83.20000,-0.09000
041225_03.14.07.837,-0.10600,-0.01500,1.02500,76.14300,-99.22500,20.17700,0.16000,0.44300,-0.48900,83.43000,0.23000
041225_03.14.07.849,-0.08600,0.03900,1.06000,64.36500,-107.50300,15.59200,0.16000,0.44200,-0.50800,83.47000,0.04000
041225_03.14.07.861,-0.15600,0.01200,1.00600,55.65000,-118.77200,12.58300,0.16000,0.43800,-0.53000,83.74000,0.27000
041225_03.14.07.873,-0.25300,-0.00100,0.94600,48.66700,-118.87800,11.23500,0.15900,0.43800,-0.53000,83.02000,-0.72000
041225_03.14.07.884,-0.25400,0.03900,0.92800,38.02800,-104.02000,12.39000,0.15800,0.43400,-0.55000,83.32000,0.30000
041225_03.14.07.896,-0.20600,0.02900,0.99200,31.15000,-75.33800,23.34500,0.15500,0.43500,-0.56800,83.43000,0.11000
041225_03.14.07.907,-0.06700,0.15800,1.08400,25.63800,-70.00000,29.40000,0.15100,0.42600,-0.57700,83.04000,-0.39000
041225_03.14.07.919,-0.08300,0.19600,1.13000,22.62800,-63.01800,34.28300,0.15100,0.42600,-0.57700,83.38000,0.34000
041225_03.14.07.931,-0.02900,0.23900,1.13100,23.90500,-51.78300,38.86800,0.15500,0.41900,-0.58300,83.50000,0.12000
041225_03.14.07.942,-0.00500,0.28600,1.04900,26.40700,-35.17500,41.87700,0.15300,0.41300,-0.59300,82.66000,-0.84000
041225_03.14.07.954,-0.10900,0.26400,0.91000,29.85500,-13.86000,44.52000,0.14900,0.40900,-0.59200,83.38000,0.72000
041225_03.14.07.965,-0.11100,0.26700,0.82200,34.73700,10.67500,51.36200,0.15200,0.39300,-0.59000,83.94000,0.56000
041225_03.14.07.977,0.03200,0.28100,0.99400,31.90300,18.58500,70.68300,0.15200,0.39300,-0.59000,83.51000,-0.43000
041225_03.14.07.989,0.14500,0.30500,1.02000,31.74500,12.77500,89.86300,0.15300,0.37500,-0.58300,83.35000,-0.16000
041225_03.14.08.000,-0.02400,0.28700,0.98800,28.08700,10.62300,103.56500,0.15400,0.35400,-0.57200,83.00000,-0.35000
041225_03.14.08.012,-0.05400,0.32500,0.97000,25.09500,3.11500,111.61500,0.15200,0.33400,-0.57300,83.12000,0.12000
041225_03.14.08.024,-0.06600,0.34100,1.03200,31.76300,-16.48500,99.05000,0.15200,0.33400,-0.57300,83.46000,0.34000
041225_03.14.08.035,0.03200,0.33800,0.97900,45.97200,-38.43000,82.07500,0.14600,0.31800,-0.57800,83.03000,-0.43000
041225_03.14.08.047,0.12800,0.39700,0.94600,65.29300,-48.28300,76.10700,0.14000,0.30200,-0.57800,83.21000,0.18000
041225_03.14.08.058,0.24100,0.47100,1.04200,86.39700,-38.36000,94.93800,0.14000,0.28400,-0.57500,83.12000,-0.09000
041225_03.14.08.070,0.25900,0.44000,1.04200,101.97300,-24.46500,110.02200,0.13400,0.26200,-0.57200,83.31000,0.19000
041225_03.14.08.081,0.26800,0.42000,0.93000,102.86500,-12.70500,126.78700,0.13400,0.26200,-0.57200,83.58000,0.27000
041225_03.14.08.093,0.27900,0.33000,0.85600,106.34800,-6.54500,142.50300,0.13100,0.23000,-0.56200,83.46000,-0.12000
041225_03.14.08.105,0.24200,0.34100,0.84600,109.69000,-7.21000,151.42800,0.12500,0.20200,-0.56100,83.05000,-0.41000
041225_03.14.08.116,0.25000,0.50100,0.80200,121.01200,-11.46200,160.68500,0.11400,0.17200,-0.54200,83.03000,-0.02000
041225_03.14.08.128,0.21200,0.31200,0.79500,132.73800,-3.78000,168.61300,0.09900,0.14300,-0.52800,83.60000,0.57000
041225_03.14.08.139,0.23600,0.30700,0.84500,131.72300,3.57000,176.19000,0.09900,0.14300,-0.52800,83.79000,0.19000
041225_03.14.08.151,0.34100,0.35200,0.87500,119.05200,7.12200,176.54000,0.08400,0.11000,-0.51400,83.57000,-0.22000
041225_03.14.08.162,0.28300,0.33600,0.89900,98.40300,11.14800,175.52500,0.06300,0.08500,-0.50000,82.55000,-1.02000
041225_03.14.08.174,0.30400,0.32100,0.88100,81.09500,16.36200,175.19300,0.04300,0.06100,-0.48300,84.00000,1.45000
041225_03.14.08.185,0.31400,0.28600,0.81400,70.64700,24.37800,175.15800,0.04300,0.06100,-0.48300,83.22000,-0.78000
041225_03.14.08.197,0.36900,0.31200,0.78600,69.54500,26.42500,176.24300,0.02600,0.03500,-0.46400,82.99000,-0.23000
041225_03.14.08.208,0.40200,0.31600,0.69300,72.25700,24.78000,180.35500,0.00700,0.01500,-0.45500,83.81000,0.82000
041225_03.14.08.220,0.36900,0.25600,0.58900,73.64000,27.38800,187.96700,-0.02600,-0.00800,-0.44100,84.16000,0.35000
041225_03.14.08.232,0.32700,0.22800,0.54800,75.79300,36.82000,203.78800,-0.06100,-0.02900,-0.42900,83.82000,-0.34000
041225_03.14.08.243,0.36000,0.11500,0.41200,80.85000,29.82000,206.06200,-0.06100,-0.02900,-0.42900,83.54000,-0.28000
041225_03.14.08.255,0.71500,0.45200,0.42300,88.28700,29.61000,205.10000,-0.10000,-0.04600,-0.41100,83.94000,0.40000
041225_03.14.08.266,0.78600,0.48000,0.50300,104.89500,-1.89000,209.94700,-0.13900,-0.05900,-0.39100,83.35000,-0.59000
041225_03.14.08.278,0.53500,0.44900,0.34900,112.12200,-20.72000,208.75800,-0.17400,-0.06900,-0.37500,83.23000,-0.12000
041225_03.14.08.290,0.62500,0.49400,0.46000,115.51800,-17.13200,208.93200,-0.17400,-0.06900,-0.37500,82.76000,-0.47000
041225_03.14.08.301,0.68400,0.42700,0.55700,116.28700,-19.35500,211.55700,-0.21300,-0.07100,-0.34300,83.52000,0.76000
041225_03.14.08.313,0.67400,0.31200,0.59100,112.29800,-23.32700,214.11300,-0.25600,-0.06900,-0.31900,83.43000,-0.09000
041225_03.14.08.324,0.60600,0.21500,0.64900,101.62200,-29.54000,214.86500,-0.29700,-0.05800,-0.29900,83.98000,0.55000
041225_03.14.08.336,0.59900,0.23400,0.55300,83.87800,-39.53300,211.34800,-0.34000,-0.04100,-0.28000,82.96000,-1.02000
041225_03.14.08.347,0.62500,-0.01100,0.68500,73.30800,-49.85800,194.65200,-0.34000,-0.04100,-0.28000,83.65000,0.69000
041225_03.14.08.359,0.73500,-0.16200,0.72600,63.40300,-59.53500,178.08000,-0.37100,-0.02900,-0.26400,83.36000,-0.29000
041225_03.14.08.371,0.76300,0.01700,0.69600,57.48700,-69.33500,158.79500,-0.38700,-0.02400,-0.24700,83.35000,-0.01000
041225_03.14.08.382,0.95800,0.07900,0.81800,52.79800,-70.84000,150.62200,-0.41000,-0.00700,-0.23100,83.05000,-0.30000
041225_03.14.08.394,0.91500,0.16500,0.65000,48.86000,-76.63200,150.27300,-0.42700,0.00600,-0.22500,83.74000,0.69000
041225_03.14.08.405,0.91500,0.15600,0.50900,55.72000,-82.65300,148.76800,-0.42700,0.00600,-0.22500,83.67000,-0.07000
041225_03.14.08.417,0.96300,0.05700,0.61700,60.77800,-76.58000,147.96200,-0.43700,0.02400,-0.21100,83.62000,-0.05000
041225_03.14.08.428,0.95900,-0.01400,0.62700,62.47500,-73.27200,150.25500,-0.44900,0.04500,-0.19200,83.83000,0.21000
041225_03.14.08.440,0.90800,-0.09000,0.56700,61.12700,-69.30000,152.74000,-0.46600,0.06300,-0.18400,83.58000,-0.25000
041225_03.14.08.451,0.86100,-0.12900,0.52600,58.64300,-64.19000,153.17800,-0.46600,0.06300,-0.18400,82.76000,-0.82000
041225_03.14.08.463,0.81800,-0.15600,0.42800,57.33000,-61.05700,151.72500,-0.47300,0.08300,-0.16100,82.99000,0.23000
041225_03.14.08.475,0.81700,-0.23600,0.33300,58.59000,-57.71500,147.29800,-0.49000,0.10700,-0.14900,83.66000,0.67000
041225_03.14.08.486,0.88400,-0.33600,0.34600,61.23300,-57.50500,138.74000,-0.49800,0.12700,-0.14200,83.80000,0.14000
041225_03.14.08.498,0.91700,-0.39800,0.26400,56.75200,-59.29000,130.09500,-0.50400,0.15100,-0.13200,83.24000,-0.56000
041225_03.14.08.510,0.89500,-0.43400,0.19700,49.75200,-55.37000,123.06000,-0.50400,0.15100,-0.13200,83.18000,-0.06000
041225_03.14.08.522,0.88400,-0.46500,0.11500,38.67500,-49.91000,120.34800,-0.50300,0.16900,-0.12000,84.10000,0.92000
041225_03.14.08.533,0.84700,-0.49500,0.07500,32.13000,-47.19700,118.30000,-0.50700,0.18800,-0.11300,83.28000,-0.82000
041225_03.14.08.545,0.80800,-0.51600,0.01500,32.07700,-49.94500,115.37800,-0.51200,0.20800,-0.10600,83.43000,0.15000
041225_03.14.08.557,0.81800,-0.53000,0.03900,38.83300,-54.72200,112.10500,-0.51200,0.20800,-0.09300,82.90000,-0.53000
041225_03.14.08.569,0.80800,-0.52300,0.04700,50.76800,-62.17800,106.62800,-0.50100,0.22700,-0.09300,82.78000,-0.12000
041225_03.14.08.580,0.68200,-0.51000,-0.02000,57.50500,-62.66700,99.59200,-0.49400,0.24300,-0.08100,83.41000,0.63000
041225_03.14.08.592,0.77300,-0.60400,0.02000,58.69500,-72.03000,98.82300,-0.48400,0.27000,-0.06600,83.18000,-0.23000
041225_03.14.08.604,0.64900,-0.55400,0.03200,59.62300,-75.54800,96.70500,-0.46700,0.28900,-0.05800,82.86000,-0.32000
041225_03.14.08.615,0.88000,-0.52100,0.03200,69.28300,-78.82000,91.75300,-0.46700,0.28900,-0.05800,83.54000,0.68000
041225_03.14.08.627,0.73500,-0.59200,0.12500,77.43800,-89.37200,95.65500,-0.44400,0.31000,-0.04400,83.04000,-0.50000
041225_03.14.08.639,0.65400,-0.52600,0.00400,82.39000,-91.26200,94.32500,-0.41800,0.33500,-0.03200,82.75000,-0.29000
041225_03.14.08.651,0.83400,-0.48800,0.13200,96.37200,-95.28700,90.89500,-0.38600,0.36100,-0.01900,83.08000,0.33000
041225_03.14.08.662,0.83400,-0.45300,0.10100,102.69000,-103.04000,91.28000,-0.35200,0.38500,-0.01300,83.51000,0.43000
041225_03.14.08.674,0.96000,-0.39900,0.13500,104.42300,-108.18500,89.96700,-0.35200,0.38500,-0.01300,82.91000,-0.60000
041225_03.14.08.686,0.92100,-0.46700,0.12400,96.05800,-116.27000,93.25700,-0.31800,0.41100,-0.01100,83.11000,0.20000
041225_03.14.08.698,0.97200,-0.52100,0.11500,82.28500,-122.13200,97.44000,-0.26900,0.43100,-0.01200,83.62000,0.51000
041225_03.14.08.709,0.93100,-0.55600,0.11400,72.22300,-132.56200,101.41200,-0.22800,0.44700,-0.01800,83.04000,-0.58000
041225_03.14.08.721,0.97200,-0.55800,0.13800,68.23200,-146.16000,100.80000,-0.22800,0.44700,-0.01800,83.11000,0.07000
041225_03.14.08.733,1.05900,-0.56800,0.11700,74.21700,-161.15800,101.13200,-0.18200,0.45800,-0.03500,83.13000,0.02000
041225_03.14.08.745,1.14500,-0.57700,0.20100,112.15800,-180.65200,101.55200,-0.13300,0.47500,-0.05200,83.68000,0.55000
041225_03.14.08.757,1.06900,-0.48700,0.38100,130.79500,-182.94500,94.02800,-0.08900,0.50000,-0.08400,83.15000,-0.53000
041225_03.14.08.768,1.27600,-0.43300,0.59500,147.26200,-180.77500,84.84000,-0.05500,0.52100,-0.11600,83.34000,0.19000
041225_03.14.08.780,1.16500,-0.44200,0.63700,152.93200,-176.80300,79.99300,-0.05500,0.52100,-0.11600,83.90000,0.56000
041225_03.14.08.791,1.09900,-0.55600,0.67800,147.50800,-165.39300,71.01500,-0.02700,0.54200,-0.15400,82.97000,-0.93000
041225_03.14.08.803,1.10800,-0.59500,0.67900,131.51200,-155.03300,63.61200,-0.01600,0.56100,-0.18600,83.25000,0.28000
041225_03.14.08.814,1.00300,-0.65100,0.65400,106.87200,-147.15800,60.11200,-0.00400,0.57500,-0.21400,83.31000,0.06000
041225_03.14.08.826,0.83500,-0.78500,0.57600,77.28000,-139.52700,54.82700,-0.00400,0.57500,-0.22400,83.17000,-0.14000
041225_03.14.08.838,0.75600,-0.90600,0.49300,49.28000,-131.56500,46.00700,0.00600,0.58100,-0.22400,83.27000,0.10000
041225_03.14.08.849,0.70800,-0.95200,0.39400,26.11000,-124.30200,38.27200,0.00700,0.58900,-0.24200,83.18000,-0.09000
041225_03.14.08.861,0.63800,-1.00500,0.30600,11.90000,-118.86000,33.91500,0.00600,0.59000,-0.25600,83.62000,0.44000
041225_03.14.08.873,0.56200,-1.11800,0.31400,10.85000,-113.94200,34.17800,0.00600,0.59600,-0.25400,83.23000,-0.39000
041225_03.14.08.884,0.51300,-1.11300,0.30200,24.27300,-112.14000,38.90300,0.00600,0.59600,-0.25400,83.32000,0.09000
041225_03.14.08.896,0.51000,-0.98800,0.20200,38.11500,-115.32500,43.47000,0.01000,0.59700,-0.27200,83.41000,0.09000
041225_03.14.08.908,0.50900,-0.87900,0.20600,47.79200,-115.55200,52.43000,0.01300,0.59500,-0.28200,83.11000,-0.30000
041225_03.14.08.919,0.54500,-0.76100,0.12100,50.55700,-119.35000,62.56300,0.02800,0.58500,-0.29900,83.48000,0.37000
041225_03.14.08.931,0.36100,-0.82800,0.15000,40.65300,-118.40500,66.15000,0.03600,0.58000,-0.30300,83.49000,0.01000
041225_03.14.08.943,0.44200,-0.96300,0.25400,44.99300,-105.87500,48.05500,0.03600,0.58000,-0.30300,83.34000,-0.15000
041225_03.14.08.954,0.34100,-0.77600,0.27300,42.35000,-95.51500,29.85500,0.04100,0.58400,-0.31900,83.30000,-0.04000
041225_03.14.08.966,0.31700,-0.78500,0.21600,24.22000,-84.01800,21.78800,0.04200,0.58900,-0.32400,84.02000,0.72000
041225_03.14.08.978,0.41800,-0.91300,0.10100,5.68700,-73.95500,13.87800,0.04500,0.59300,-0.33300,83.54000,-0.48000
041225_03.14.08.990,0.29300,-0.77300,-0.05800,-16.18700,-69.73800,2.11800,0.04500,0.59300,-0.33300,83.80000,0.26000
041225_03.14.09.001,0.29600,-0.91000,0.04800,-20.82500,-64.71500,1.43500,0.04600,0.59200,-0.32900,83.01000,-0.79000
041225_03.14.09.013,0.22200,-1.00600,0.05200,-14.94500,-64.40000,-1.24200,0.04500,0.59900,-0.33500,83.33000,0.32000
041225_03.14.09.025,0.23400,-0.82600,0.08500,-12.42500,-62.87700,2.69500,0.04700,0.60000,-0.33600,82.91000,-0.42000
041225_03.14.09.036,0.11000,-0.49700,-0.11800,-15.90800,-63.77000,18.07700,0.05300,0.60000,-0.34400,83.14000,0.23000
041225_03.14.09.048,0.35200,-0.85400,-0.01200,1.29500,-61.07500,28.43700,0.05300,0.60000,-0.34400,83.02000,-0.12000
041225_03.14.09.060,0.42800,-1.06600,-0.08000,14.73500,-61.56500,19.30200,0.05800,0.60400,-0.34000,83.20000,0.18000
041225_03.14.09.072,0.30900,-1.04100,0.00300,12.46000,-64.15500,1.96000,0.05900,0.60700,-0.35100,83.74000,0.54000
041225_03.14.09.083,0.25200,-0.77600,0.03900,1.96000,-57.59200,-10.15000,0.06100,0.61100,-0.35600,82.94000,-0.80000
041225_03.14.09.095,0.30900,-0.65800,-0.10700,3.95500,-60.34000,-14.87500,0.06100,0.62000,-0.36400,83.38000,0.44000
041225_03.14.09.107,-0.00500,-0.78400,0.27900,8.06800,-59.39500,-22.31200,0.05700,0.62000,-0.36400,83.42000,0.04000
041225_03.14.09.118,-0.43800,-1.04400,0.36900,54.37300,-28.03500,-23.48500,0.05200,0.63100,-0.37500,83.49000,0.07000
041225_03.14.09.130,0.02300,-1.40400,0.14800,72.76500,16.73000,-22.64500,0.05800,0.63300,-0.37900,83.80000,0.31000
041225_03.14.09.142,0.54700,-1.71400,0.43300,54.44300,22.10300,-29.47000,0.05200,0.63900,-0.38400,83.84000,0.04000
041225_03.14.09.153,-0.20100,-1.36600,0.22800,8.43500,28.50700,-58.80000,0.05200,0.63900,-0.38400,83.15000,-0.69000
041225_03.14.09.165,0.51600,-0.72000,-0.48700,-27.98300,86.48500,-66.39500,0.03500,0.65200,-0.37300,83.50000,0.35000
041225_03.14.09.177,1.10200,-0.87900,0.00300,-1.10200,71.71500,-48.21300,0.02500,0.65800,-0.36700,83.64000,0.14000
041225_03.14.09.189,0.43300,-1.29000,0.10500,10.25500,30.69500,-30.11800,0.01600,0.66200,-0.36500,83.14000,-0.50000
041225_03.14.09.200,0.41300,-1.05200,0.01000,4.18200,22.62800,-32.34000,0.01300,0.66400,-0.36100,82.51000,-0.63000
041225_03.14.09.212,0.36900,-1.06200,0.05700,7.19300,9.01200,-30.85300,0.01300,0.66400,-0.36100,82.83000,0.32000
041225_03.14.09.224,0.44500,-0.92200,0.09200,6.56200,-6.16000,-30.43300,0.00900,0.67000,-0.36200,83.74000,0.91000
041225_03.14.09.235,0.51800,-0.87000,-0.01000,2.27500,-8.40000,-29.73300,0.00500,0.67300,-0.36500,83.46000,-0.28000
041225_03.14.09.247,0.51300,-0.92500,0.09600,1.12000,1.31200,-24.15000,0.00100,0.67800,-0.36000,83.34000,-0.12000
041225_03.14.09.259,0.50800,-0.91700,-0.00200,3.32500,10.09700,-23.57300,0.00100,0.67800,-0.36000,83.06000,-0.28000
041225_03.14.09.270,0.52500,-0.94000,0.11000,7.70000,16.43300,-22.26000,-0.00300,0.67700,-0.36600,83.42000,0.36000
041225_03.14.09.282,0.67900,-0.84700,-0.37600,18.58500,26.05800,-19.05800,-0.01000,0.68300,-0.36900,83.68000,0.26000
041225_03.14.09.294,0.32800,-1.26800,0.50300,28.05200,32.60300,-20.65000,-0.01600,0.68700,-0.35600,83.23000,-0.45000
041225_03.14.09.306,0.59700,-0.74900,0.03600,7.70000,33.74000,-31.72800,-0.02000,0.69000,-0.35200,83.68000,0.45000
041225_03.14.09.317,0.66100,-0.80000,-0.07900,11.65500,28.43700,-26.56500,-0.02000,0.69000,-0.35200,83.69000,0.01000
041225_03.14.09.329,0.44000,-0.91000,0.16100,16.27500,19.89800,-23.41500,-0.03100,0.69300,-0.35300,82.46000,-1.23000
041225_03.14.09.341,0.53700,-0.88300,0.18600,13.68500,15.64500,-24.04500,-0.03500,0.69400,-0.35400,82.83000,0.37000
041225_03.14.09.352,0.51100,-0.95300,0.11300,8.36500,13.86000,-21.80500,-0.04200,0.70000,-0.34800,83.24000,0.41000
041225_03.14.09.364,0.54500,-0.93100,0.00700,1.55800,16.10000,-17.48300,-0.03700,0.69500,-0.34400,83.28000,0.04000
041225_03.14.09.376,0.61300,-0.90100,0.20700,0.00000,16.08300,-13.21200,-0.03700,0.69500,-0.34400,83.88000,0.60000
041225_03.14.09.388,0.60900,-0.91200,0.04700,-1.48700,10.41300,-8.89000,-0.04500,0.69800,-0.34400,83.29000,-0.59000
041225_03.14.09.399,0.58300,-0.93500,0.04500,-0.07000,7.71800,-5.70500,-0.04300,0.69900,-0.34700,83.07000,-0.22000
041225_03.14.09.411,0.58000,-0.88400,0.06200,-0.05300,6.28200,-3.22000,-0.04600,0.69700,-0.34700,83.49000,0.42000
041225_03.14.09.422,0.58900,-0.84400,0.03700,1.78500,0.42000,0.91000,-0.04600,0.69700,-0.34700,84.01000,0.52000
041225_03.14.09.434,0.57900,-0.84700,0.08700,-0.70000,-0.17500,2.99300,-0.04700,0.69600,-0.35000,83.21000,-0.80000
041225_03.14.09.446,0.57100,-1.02600,0.17700,-2.66000,-3.60500,4.98800,-0.04900,0.69000,-0.34300,82.68000,-0.53000
041225_03.14.09.458,0.50300,-0.95200,0.22900,-10.83300,-9.73000,2.85200,-0.04200,0.68900,-0.34000,83.35000,0.67000
041225_03.14.09.469,0.67500,-0.84300,0.21400,-18.41000,-16.88800,-5.26700,-0.05200,0.69300,-0.33200,82.84000,-0.51000
041225_03.14.09.481,0.37500,-0.92900,0.16800,-25.30500,-22.83700,0.19200,-0.05200,0.69300,-0.33200,83.17000,0.33000
041225_03.14.09.493,0.54400,-0.82500,0.13300,-32.83000,-22.62800,-3.01000,-0.05100,0.69000,-0.33600,83.15000,-0.02000
041225_03.14.09.505,0.46100,-0.89700,0.10800,-38.99000,-23.69500,-4.91800,-0.04700,0.68000,-0.32200,82.49000,-0.66000
041225_03.14.09.516,0.63100,-0.87800,0.10600,-46.20000,-22.83700,-5.44300,-0.04800,0.68400,-0.31700,82.65000,0.16000
041225_03.14.09.528,0.62300,-0.95800,0.04000,-53.18200,-29.66300,-4.42800,-0.04800,0.68400,-0.31700,83.04000,0.39000
041225_03.14.09.540,0.62500,-0.90800,-0.00700,-51.50200,-42.43800,-6.33500,-0.05100,0.67600,-0.31300,82.71000,-0.33000
041225_03.14.09.552,0.57100,-0.82000,0.01600,-43.71500,-56.91000,-10.85000,-0.05000,0.67100,-0.31300,83.72000,1.01000
041225_03.14.09.563,0.57800,-0.78100,-0.01400,-40.79200,-62.65000,-14.38500,-0.04300,0.67200,-0.31000,83.16000,-0.56000
041225_03.14.09.575,0.56500,-0.90400,-0.12800,-44.80000,-52.30700,-17.02800,-0.04200,0.66600,-0.30300,83.40000,0.24000
041225_03.14.09.587,0.53400,-0.95700,-0.12800,-50.71500,-30.73000,-17.44800,-0.04200,0.66600,-0.30300,82.68000,-0.72000
041225_03.14.09.599,0.53900,-0.90600,-0.02200,-63.03500,8.68000,-19.68700,-0.04300,0.66200,-0.29400,82.87000,0.19000
041225_03.14.09.611,0.63300,-0.80000,-0.02300,-59.43000,1.38300,-25.06000,-0.04800,0.65500,-0.28200,83.01000,0.14000
041225_03.14.09.623,0.56500,-0.80600,0.04700,-53.58500,-13.40500,-30.24000,-0.05200,0.64600,-0.27200,82.90000,-0.11000
041225_03.14.09.634,0.36800,-0.92900,-0.18000,-57.54000,-7.71800,-32.23500,-0.05800,0.64400,-0.26900,82.48000,-0.42000
041225_03.14.09.646,0.55900,-0.81200,-0.09600,-50.34700,-11.48000,-47.82700,-0.05800,0.64400,-0.26900,83.29000,0.81000
041225_03.14.09.658,0.49500,-0.84900,-0.28100,-41.91200,-32.95200,-63.28000,-0.05600,0.64300,-0.26900,83.39000,0.10000
041225_03.14.09.670,0.55100,-0.71100,-0.33800,-43.31300,-38.02800,-81.79500,-0.06500,0.64400,-0.26600,83.13000,-0.26000
041225_03.14.09.682,0.68200,-0.59500,-0.22300,-44.71300,-37.59000,-89.44200,-0.07100,0.64500,-0.26600,83.10000,-0.03000
041225_03.14.09.694,0.57300,-0.64000,-0.16200,-46.39300,-36.96000,-84.21000,-0.07100,0.64500,-0.26600,83.42000,0.32000
041225_03.14.09.705,0.50900,-0.74900,-0.18200,-51.57200,-23.92300,-68.72300,-0.08000,0.64800,-0.26400,82.44000,-0.98000
041225_03.14.09.717,0.61200,-0.64800,-0.12200,-59.23700,-2.76500,-47.32000,-0.08400,0.64500,-0.25200,83.12000,0.68000
041225_03.14.09.729,0.88500,-0.37900,0.02400,-70.77000,10.72700,-22.10300,-0.09000,0.63000,-0.24400,83.35000,0.23000
041225_03.14.09.741,0.72800,-0.46800,-0.13300,-85.68000,10.60500,6.26500,-0.08900,0.61500,-0.24200,83.86000,0.51000
041225_03.14.09.752,0.66800,-0.58900,-0.37100,-91.66500,6.26500,7.98000,-0.08900,0.61500,-0.24200,83.05000,-0.81000
041225_03.14.09.764,0.67900,-0.65700,-0.29700,-117.51200,-2.76500,-14.17500,-0.08600,0.60000,-0.23100,83.70000,0.65000
041225_03.14.09.776,0.62000,-0.56000,-0.23800,-134.08500,-1.55800,-26.46000,-0.08300,0.57900,-0.22300,83.28000,-0.42000
041225_03.14.09.787,0.48700,-0.52000,-0.23600,-152.54800,4.21800,-35.66500,-0.08400,0.56500,-0.21400,83.52000,0.24000
041225_03.14.09.799,0.53500,-0.49700,-0.36300,-172.74300,13.24800,-41.94700,-0.08400,0.56500,-0.19400,83.30000,-0.22000
041225_03.14.09.811,0.68300,-0.42300,-0.39400,-193.41000,25.13000,-38.27200,-0.08500,0.54200,-0.19400,83.53000,0.23000
041225_03.14.09.823,0.80900,-0.33100,-0.37200,-210.84000,31.92000,-28.89200,-0.08900,0.51400,-0.18700,83.79000,0.26000
041225_03.14.09.834,0.83400,-0.35800,-0.30800,-209.09000,38.22000,-38.85000,-0.08600,0.48200,-0.18000,83.52000,-0.27000
041225_03.14.09.846,0.72800,-0.43200,-0.24700,-187.02300,47.44300,-66.15000,-0.09400,0.47000,-0.17000,83.13000,-0.39000
041225_03.14.09.858,0.53900,-0.50100,-0.28700,-175.64800,53.70800,-85.85500,-0.09400,0.47000,-0.17000,83.47000,0.34000
041225_03.14.09.870,0.35800,-0.57000,-0.37700,-188.63300,61.35500,-93.57300,-0.10000,0.44700,-0.16100,83.08000,-0.39000
041225_03.14.09.882,0.30400,-0.61500,-0.44100,-211.89000,81.67300,-108.62200,-0.10800,0.43200,-0.15600,82.87000,-0.21000
041225_03.14.09.893,0.69600,-0.58600,-0.23000,-234.32500,105.52500,-130.48000,-0.11700,0.41200,-0.15600,83.67000,0.80000
041225_03.14.09.905,1.27200,-0.42300,-0.02300,-258.33500,104.07300,-137.06000,-0.11700,0.39700,-0.15900,83.50000,-0.17000
041225_03.14.09.917,1.53500,0.06500,-0.06900,-271.02200,61.75700,-123.91800,-0.11700,0.39700,-0.15900,83.47000,-0.03000
041225_03.14.09.929,1.24000,0.29300,-0.36300,-262.62200,-0.26200,-83.30000,-0.10300,0.37300,-0.16700,83.46000,-0.01000
041225_03.14.09.941,1.01400,0.28800,-0.34000,-212.31000,-54.70500,-78.97800,-0.08400,0.36300,-0.17800,83.33000,-0.13000
041225_03.14.09.952,0.73400,0.31500,-0.20000,-187.33700,-63.36800,-78.40000,-0.05600,0.35500,-0.18900,82.48000,-0.85000
041225_03.14.09.964,0.71200,0.29400,-0.18300,-169.89000,-63.29800,-77.03500,-0.05600,0.35500,-0.18900,83.54000,1.06000
041225_03.14.09.976,0.57100,0.19200,-0.14000,-150.13300,-55.87700,-73.64000,-0.03800,0.35700,-0.20500,84.54000,1.00000
041225_03.14.09.988,0.40700,0.24100,0.02100,-135.18700,-40.84500,-77.33200,-0.01400,0.36600,-0.21600,84.02000,-0.52000
041225_03.14.09.999,0.45600,0.32000,-0.05600,-135.08300,-20.84300,-83.26500,0.00100,0.38000,-0.22900,83.65000,-0.37000
041225_03.14.10.011,0.48300,0.39900,-0.11600,-140.59500,-2.38000,-76.73800,0.01600,0.39600,-0.22100,83.24000,-0.41000
041225_03.14.10.023,0.58000,0.58000,-0.19100,-146.73800,10.30700,-72.59000,0.01600,0.39600,-0.22100,83.34000,0.10000
041225_03.14.10.035,0.61300,0.65100,-0.22800,-147.75300,19.58300,-75.40800,0.02800,0.42300,-0.22000,83.70000,0.36000
041225_03.14.10.046,0.68200,0.71800,-0.19200,-145.12800,25.77800,-84.38500,0.03500,0.43900,-0.20700,83.99000,0.29000
041225_03.14.10.058,0.75900,0.69900,-0.02700,-143.72700,24.92000,-97.10700,0.04000,0.46300,-0.19500,83.66000,-0.33000
041225_03.14.10.070,0.70500,0.63800,0.09000,-144.53300,11.06000,-111.54500,0.04000,0.49300,-0.17900,83.31000,-0.35000
041225_03.14.10.082,0.55900,0.60600,0.07100,-145.05700,-4.93500,-123.79500,0.04400,0.49300,-0.17900,83.46000,0.15000
041225_03.14.10.093,0.42400,0.58400,0.16600,-148.54000,-9.97500,-131.86300,0.04200,0.52500,-0.17300,83.83000,0.37000
041225_03.14.10.105,0.30900,0.61500,0.23200,-157.85000,-7.29800,-133.24500,0.04100,0.55100,-0.14400,83.60000,-0.23000
041225_03.14.10.117,0.26100,0.73900,0.26000,-164.85000,-2.43300,-130.37500,0.03500,0.57600,-0.11500,83.71000,0.11000
041225_03.14.10.128,0.27200,0.93000,0.26300,-160.09000,3.44700,-130.13000,0.03500,0.57600,-0.11500,83.75000,0.04000
041225_03.14.10.140,0.26600,0.92400,0.33100,-158.20000,10.51700,-134.57500,0.01900,0.59200,-0.07300,83.57000,-0.18000
041225_03.14.10.152,0.23000,0.97300,0.39900,-164.06200,14.43800,-142.71200,0.00300,0.60800,-0.03200,83.70000,0.13000
041225_03.14.10.164,0.22200,0.97700,0.49100,-173.84500,15.06800,-152.60000,-0.02200,0.61600,0.01300,84.08000,0.38000
041225_03.14.10.175,0.22800,0.99300,0.62600,-182.70000,10.02800,-163.43200,-0.04900,0.60600,0.06900,83.57000,-0.51000
041225_03.14.10.187,0.12900,1.02800,0.70200,-187.46000,-1.94200,-173.05700,-0.04900,0.60600,0.06900,83.89000,0.32000
041225_03.14.10.199,-0.01700,1.02400,0.71400,-183.24300,-7.56000,-183.48800,-0.08100,0.57600,0.10800,83.52000,-0.37000
041225_03.14.10.211,-0.11500,0.98800,0.76100,-170.88700,-3.67500,-192.53500,-0.10500,0.53600,0.13600,83.56000,0.04000
041225_03.14.10.222,-0.15700,0.93500,0.75200,-157.88500,2.53700,-198.15200,-0.12700,0.49800,0.17500,83.21000,-0.35000
041225_03.14.10.234,-0.16000,0.82800,0.76100,-149.13500,5.77500,-201.91500,-0.12700,0.49800,0.17500,83.77000,0.56000
041225_03.14.10.246,-0.17900,0.74500,0.75900,-148.54000,5.58200,-201.91500,-0.14700,0.45000,0.19200,83.12000,-0.65000
041225_03.14.10.258,-0.30900,0.67700,0.85300,-155.92500,4.04300,-199.99000,-0.16100,0.38800,0.20000,83.51000,0.39000
041225_03.14.10.269,-0.34700,0.88100,0.87700,-168.42000,5.93200,-199.39500,-0.16300,0.31100,0.20000,83.21000,-0.30000
041225_03.14.10.281,-0.33900,0.84800,0.92500,-181.89500,8.66300,-179.14800,-0.15600,0.24400,0.18900,83.62000,0.41000
041225_03.14.10.293,-0.32500,0.42300,0.99700,-195.47500,16.32700,-180.49500,-0.15600,0.24400,0.18900,83.89000,0.27000
041225_03.14.10.305,-0.23900,0.48500,0.89900,-208.04000,24.99000,-194.79200,-0.14100,0.16900,0.15500,84.08000,0.19000
041225_03.14.10.316,-0.29700,0.53100,1.04400,-192.74500,24.11500,-190.82000,-0.11900,0.10600,0.11200,82.97000,-1.11000
041225_03.14.10.328,-0.38300,0.49700,0.93400,-163.18700,13.86000,-167.00300,-0.08600,0.06700,0.06700,83.77000,0.80000
041225_03.14.10.340,-0.46500,0.38500,0.86800,-128.32700,10.83300,-133.73500,-0.06300,0.04400,0.03500,83.63000,-0.14000
041225_03.14.10.352,-0.51800,0.16500,0.83300,-99.13700,12.12700,-106.97800,-0.06300,0.04400,0.03500,83.40000,-0.23000
041225_03.14.10.363,-0.54800,0.01600,0.80800,-83.35300,15.26000,-92.89000,-0.03500,0.03000,0.00700,83.45000,0.05000
041225_03.14.10.375,-0.61000,-0.08100,0.76700,-78.47000,19.82700,-86.88700,-0.01500,0.02500,-0.02800,83.00000,-0.45000
041225_03.14.10.387,-0.61400,-0.15800,0.75400,-72.55500,26.68700,-83.23000,0.00100,0.02100,-0.05200,83.78000,0.78000
041225_03.14.10.399,-0.50900,-0.17600,0.71400,-60.83000,34.91200,-75.07500,0.00100,0.02100,-0.05200,83.43000,-0.35000
041225_03.14.10.410,-0.46500,-0.19500,0.81000,-45.60500,36.75000,-62.75500,0.01700,0.03200,-0.08700,83.69000,0.26000
041225_03.14.10.422,-0.67000,-0.18800,0.98300,-35.47200,31.25500,-51.17000,0.02300,0.04500,-0.11800,84.15000,0.46000
041225_03.14.10.434,-0.87300,-0.20000,1.06300,-45.25500,29.96000,-44.50200,0.04500,0.05100,-0.15100,83.56000,-0.59000
041225_03.14.10.445,-0.95100,-0.19100,1.00400,-81.95200,63.40300,-15.92500,0.05500,0.05700,-0.18800,83.54000,-0.02000
041225_03.14.10.457,-0.71200,0.03900,1.02500,-122.79800,61.14500,-1.66300,0.05500,0.05700,-0.18800,83.75000,0.21000
041225_03.14.10.469,-0.22100,0.27500,0.71900,-93.25700,38.44700,6.96500,0.06200,0.05800,-0.21700,83.82000,0.07000
041225_03.14.10.481,-0.32300,0.32200,0.73300,-60.69000,17.18500,14.64800,0.05900,0.07700,-0.23800,83.92000,0.10000
041225_03.14.10.492,-0.50100,0.22600,0.69900,-29.68000,5.79300,10.01000,0.07200,0.08700,-0.26300,83.94000,0.02000
041225_03.14.10.504,-0.90300,1.04800,0.74800,3.34200,9.46700,-18.13000,0.07200,0.08700,-0.27000,83.99000,0.05000
041225_03.14.10.515,-0.60900,-0.24200,1.09800,62.45800,32.34000,-88.62000,0.08500,0.10900,-0.27000,83.77000,-0.22000
041225_03.14.10.527,-0.63400,0.08700,0.90700,62.75500,33.89700,-129.25500,0.09400,0.15200,-0.26800,83.51000,-0.26000
041225_03.14.10.539,-0.73900,0.39600,0.74500,60.51500,29.59300,-119.78700,0.10500,0.19000,-0.26900,83.34000,-0.17000
041225_03.14.10.550,-0.62800,0.65300,0.83400,64.31300,24.25500,-86.88700,0.11600,0.21400,-0.27600,83.21000,-0.13000
041225_03.14.10.562,-0.65100,0.34600,0.83100,59.62300,23.25700,-58.50200,0.11600,0.21400,-0.27600,83.65000,0.44000
041225_03.14.10.574,-0.62600,0.05600,0.93100,26.72200,17.34300,-60.34000,0.12100,0.23500,-0.27700,83.58000,-0.07000
041225_03.14.10.585,-0.76300,0.01400,0.97900,-22.64500,9.15300,-67.28700,0.12900,0.24300,-0.28300,84.36000,0.78000
041225_03.14.10.597,-0.78500,0.05400,0.79300,-54.42500,2.03000,-53.93500,0.13600,0.25800,-0.29100,83.88000,-0.48000
041225_03.14.10.609,-0.64900,0.00600,0.71500,-56.22800,1.90800,-41.65000,0.13800,0.26700,-0.29600,83.26000,-0.62000
041225_03.14.10.621,-0.57800,-0.12400,0.76600,-39.83000,-2.62500,-43.76800,0.13800,0.26700,-0.29600,82.92000,-0.34000
041225_03.14.10.635,-0.71700,-0.09400,0.81500,-35.50700,-14.78800,-50.38200,0.14400,0.27500,-0.30000,83.15000,0.23000
041225_03.14.10.647,-0.84900,-0.10000,0.75200,-40.60000,-26.04000,-53.37500,0.15300,0.29000,-0.31300,83.80000,0.65000
041225_03.14.10.659,-0.81400,-0.20800,0.80400,-49.24500,-27.70200,-49.26300,0.15200,0.30200,-0.31200,83.82000,0.02000
041225_03.14.10.671,-0.86400,-0.30700,0.82000,-53.48000,-30.71200,-39.13000,0.15200,0.30200,-0.31200,83.85000,0.03000
041225_03.14.10.682,-0.76100,-0.39200,0.73400,-52.60500,-41.00200,-35.01800,0.15700,0.31100,-0.32100,83.44000,-0.41000
041225_03.14.10.694,-0.56200,-0.36400,0.72400,-55.52800,-39.93500,-28.94500,0.15300,0.31400,-0.33200,83.74000,0.30000
041225_03.14.10.706,-0.59700,-0.48100,0.85200,-55.61500,-35.75200,-26.14500,0.15600,0.32100,-0.34500,83.39000,-0.35000
041225_03.14.10.718,-0.54200,-0.43100,0.90400,-62.21300,-27.86000,-31.78000,0.15200,0.33100,-0.34300,83.63000,0.24000
041225_03.14.10.730,-0.58400,-0.35700,0.92900,-74.65500,-10.18500,-38.23700,0.15200,0.33100,-0.34300,83.46000,-0.17000
041225_03.14.10.741,-0.63500,-0.47000,0.89800,-90.63200,8.96000,-47.16200,0.14900,0.34000,-0.35000,83.24000,-0.22000
041225_03.14.10.753,-0.68000,-0.39700,0.87100,-101.01000,22.89000,-55.96500,0.14600,0.34800,-0.34200,83.41000,0.17000
041225_03.14.10.765,-0.66500,-0.35400,0.88700,-107.17000,29.59300,-61.68800,0.14300,0.36100,-0.34100,83.37000,-0.04000
041225_03.14.10.777,-0.58000,-0.36200,0.74800,-104.59800,32.02500,-62.87700,0.14300,0.36100,-0.33200,83.92000,0.55000
041225_03.14.10.788,-0.58500,-0.41900,0.73900,-89.93300,34.61500,-54.93200,0.13500,0.37200,-0.33200,83.14000,-0.78000
041225_03.14.10.800,-0.52600,-0.35700,0.59600,-41.63200,32.16500,-35.80500,0.12700,0.38600,-0.32100,83.10000,-0.04000
041225_03.14.10.812,-0.52100,-0.75500,0.50500,-17.78000,17.30800,-18.91700,0.12400,0.39100,-0.31600,83.33000,0.23000
041225_03.14.10.824,-0.35600,-0.75200,0.63500,-1.99500,-12.00500,-3.25500,0.11700,0.40100,-0.32100,83.71000,0.38000
041225_03.14.10.835,-0.32700,-0.62800,0.74900,-4.65500,-27.31800,19.81000,0.11700,0.40100,-0.32100,83.65000,-0.06000
041225_03.14.10.847,-0.43000,-0.59600,0.77500,-14.19300,-23.99300,37.55500,0.12300,0.39200,-0.33200,83.39000,-0.26000
041225_03.14.10.859,-0.57100,-0.49700,0.83400,-18.93500,-11.81300,42.50700,0.12600,0.38900,-0.33300,83.87000,0.48000
041225_03.14.10.870,-0.79300,-0.51400,0.71700,-22.41700,7.07000,37.50200,0.12100,0.38400,-0.33000,83.38000,-0.49000
041225_03.14.10.882,-0.69800,-0.67900,0.81100,-19.65300,25.25300,18.98700,0.11300,0.38500,-0.32500,83.66000,0.28000
041225_03.14.10.894,-0.68000,-0.05000,1.38200,-26.28500,32.95200,2.17000,0.11300,0.38500,-0.32500,83.58000,-0.08000
041225_03.14.10.905,-0.29800,-0.38600,0.44300,-56.21000,49.71700,-7.45500,0.10800,0.39000,-0.31900,83.13000,-0.45000
041225_03.14.10.917,-0.25000,-0.43300,0.68000,-50.24300,45.57000,-7.31500,0.09700,0.39100,-0.31000,82.98000,-0.15000
041225_03.14.10.929,-0.40200,-0.43900,0.59800,-59.43000,23.95800,6.93000,0.09000,0.39100,-0.30500,83.01000,0.03000
041225_03.14.10.940,-0.53800,-0.60200,0.56300,-54.86200,10.97200,14.38500,0.09000,0.39100,-0.30500,83.36000,0.35000
041225_03.14.10.952,-0.61100,-0.72600,0.62100,-43.80300,13.79000,23.13500,0.09200,0.38500,-0.30300,83.37000,0.01000
041225_03.14.10.964,-0.66100,-0.81500,0.69500,-43.05000,29.59300,28.96200,0.08600,0.37900,-0.29500,83.31000,-0.06000
041225_03.14.10.975,-0.63300,-0.85300,0.26500,-46.39300,33.23300,31.85000,0.08100,0.37100,-0.28900,83.08000,-0.23000
041225_03.14.10.987,-0.63300,-0.53600,-0.05400,-18.62000,46.51500,37.69500,0.07300,0.37100,-0.27900,83.28000,0.20000
041225_03.14.10.999,-0.52400,-0.51700,0.31200,3.78000,30.99300,22.68000,0.07300,0.37100,-0.27900,83.16000,-0.12000
041225_03.14.11.011,-0.51800,-0.53500,0.34200,-3.65800,22.27800,9.99300,0.06000,0.37700,-0.27700,83.57000,0.41000
041225_03.14.11.022,-0.52000,-0.53300,0.52500,-6.72000,21.75300,6.14200,0.06000,0.37300,-0.27800,83.23000,-0.34000
041225_03.14.11.034,-0.58200,-0.46000,0.61300,-20.70200,21.42000,4.83000,0.06200,0.37100,-0.26600,82.93000,-0.30000
041225_03.14.11.046,-0.59400,-0.46600,0.55300,-37.52000,25.14800,1.71500,0.06200,0.36700,-0.26000,83.72000,0.79000
041225_03.14.11.058,-0.67700,-0.63600,0.52000,-46.95200,34.07200,-3.55300,0.06200,0.36700,-0.26000,83.85000,0.13000
041225_03.14.11.070,-0.69900,-0.78300,0.48700,-51.22200,44.29200,-11.67200,0.05500,0.37000,-0.25300,83.03000,-0.82000
041225_03.14.11.082,-0.71000,-0.86100,0.44600,-52.18500,47.96700,-17.69200,0.04900,0.37100,-0.24100,83.15000,0.12000
041225_03.14.11.094,-0.71200,-0.82500,0.40300,-53.86500,47.35500,-19.74000,0.03600,0.37500,-0.23800,83.60000,0.45000
041225_03.14.11.106,-0.74600,-0.82400,0.33500,-52.90300,46.93500,-20.91300,0.03600,0.37500,-0.23800,83.26000,-0.34000
041225_03.14.11.117,-0.71600,-0.67600,0.36600,-47.12700,48.37000,-23.10000,0.03100,0.37600,-0.23400,83.46000,0.20000
041225_03.14.11.129,-0.63400,-0.57100,0.28700,-43.36500,44.57200,-21.89200,0.02200,0.38200,-0.22500,83.84000,0.38000
041225_03.14.11.141,-0.56400,-0.54800,0.21100,-27.65000,32.02500,-16.64200,0.01300,0.38600,-0.21600,83.32000,-0.52000
041225_03.14.11.153,-0.54500,-0.58100,0.21100,-15.52300,20.63200,-14.75300,0.00600,0.39000,-0.21500,83.47000,0.15000
041225_03.14.11.164,-0.74400,-0.60200,0.36800,2.90500,5.89800,-7.08800,0.00600,0.39000,-0.21500,83.50000,0.03000
041225_03.14.11.176,-0.73500,-0.67400,0.39300,19.67000,-1.20700,3.25500,0.00600,0.39500,-0.21500,83.58000,0.08000
041225_03.14.11.188,-1.07800,-0.31300,0.24900,31.83300,10.08000,3.58800,0.00700,0.40400,-0.21300,83.50000,-0.08000
041225_03.14.11.199,-0.73400,-0.85400,-0.23600,15.75000,59.43000,18.60300,-0.00500,0.40400,-0.20700,83.92000,0.42000
041225_03.14.11.211,-0.12700,-0.93100,0.40200,-28.80500,101.53500,20.72000,-0.00500,0.40400,-0.20700,84.08000,0.16000
041225_03.14.11.223,-0.57600,-0.86900,-0.11400,-14.57800,53.06000,2.32800,-0.02300,0.40600,-0.20200,83.18000,-0.90000
041225_03.14.11.235,-0.71700,-1.12600,-0.02000,-20.42300,56.15800,-17.79800,-0.02600,0.41000,-0.18900,83.17000,-0.01000
041225_03.14.11.246,-0.68400,-1.03000,0.25100,-46.86500,78.38200,-40.16200,-0.03200,0.40900,-0.17900,83.78000,0.61000
041225_03.14.11.258,-0.81700,-1.05200,0.23600,-55.45800,67.90000,-50.47000,-0.04700,0.41900,-0.17500,83.54000,-0.24000
041225_03.14.11.270,-0.82900,-0.91100,0.29500,-57.99500,58.03000,-52.36000,-0.04700,0.41900,-0.17500,83.82000,0.28000
041225_03.14.11.282,-0.88400,-0.76200,0.26700,-56.59500,47.96700,-45.36000,-0.05100,0.42200,-0.16900,82.93000,-0.89000
041225_03.14.11.294,-0.81900,-0.68400,0.22900,-58.11800,44.20500,-34.96500,-0.06300,0.42100,-0.16000,83.60000,0.67000
041225_03.14.11.305,-0.71600,-0.63000,0.28900,-56.80500,27.47500,-17.60500,-0.06900,0.42200,-0.15600,82.77000,-0.83000
041225_03.14.11.317,-0.67200,-0.62700,0.24400,-33.79200,14.63000,-14.33300,-0.07500,0.42300,-0.15200,83.16000,0.39000
041225_03.14.11.329,-0.73700,-0.68800,0.19200,-27.72000,11.00700,-14.19300,-0.07500,0.42300,-0.15200,83.03000,-0.13000
041225_03.14.11.341,-0.76300,-0.67100,0.22700,-30.01300,12.42500,-16.22200,-0.08100,0.42900,-0.15300,83.87000,0.84000
041225_03.14.11.352,-0.75100,-0.62600,0.26800,-35.75200,11.49800,-19.05800,-0.08600,0.42900,-0.14300,83.51000,-0.36000
041225_03.14.11.364,-0.71200,-0.60800,0.33700,-39.14700,4.30500,-22.45200,-0.09200,0.42500,-0.14200,83.02000,-0.49000
041225_03.14.11.376,-0.68600,-0.59500,0.40300,-37.24000,-9.57300,-27.84300,-0.09200,0.42500,-0.14200,83.43000,0.41000
041225_03.14.11.388,-0.70300,-0.57700,0.36500,-28.43700,-25.90000,-35.33300,-0.09400,0.42500,-0.14100,83.84000,0.41000
041225_03.14.11.399,-0.75200,-0.62400,0.36700,-18.49700,-39.48000,-43.45200,-0.09000,0.42500,-0.14400,83.60000,-0.24000
041225_03.14.11.411,-0.71300,-0.67000,0.34000,-13.49300,-50.69700,-53.06000,-0.08800,0.43000,-0.15400,82.91000,-0.69000
041225_03.14.11.423,-0.71300,-0.79300,0.38100,-12.21500,-61.16200,-63.35000,-0.07500,0.43600,-0.15300,83.55000,0.64000
041225_03.14.11.435,-0.69300,-0.87100,0.47200,-14.28000,-71.99500,-75.53000,-0.07500,0.43600,-0.15300,83.57000,0.02000
041225_03.14.11.446,-0.68400,-0.96600,0.56200,-16.90500,-81.27000,-85.34800,-0.06900,0.43800,-0.15900,83.46000,-0.11000
041225_03.14.11.458,-0.55500,-1.09400,0.53900,-19.07500,-86.80000,-94.83200,-0.06600,0.44300,-0.16700,83.94000,0.48000
041225_03.14.11.470,-0.33100,-1.06900,0.32700,-18.84700,-81.86500,-110.14500,-0.06200,0.45000,-0.16100,83.22000,-0.72000
041225_03.14.11.482,-0.23500,-0.93800,-0.03700,13.82500,0.00000,-124.81000,-0.06200,0.45000,-0.16300,83.44000,0.22000
041225_03.14.11.494,-0.25400,-0.89000,-0.15300,30.74700,55.44000,-109.28700,-0.06800,0.46500,-0.16300,83.79000,0.35000
041225_03.14.11.505,-0.38700,-0.94200,0.15600,38.22000,83.26500,-88.79500,-0.08700,0.48800,-0.15200,83.91000,0.12000
041225_03.14.11.517,-0.43200,-0.99200,0.34000,40.68800,80.65800,-60.60300,-0.10800,0.50100,-0.14800,84.32000,0.41000
041225_03.14.11.529,-0.43600,-1.06300,0.37500,38.83300,62.17800,-33.79200,-0.11800,0.50200,-0.14500,83.57000,-0.75000
041225_03.14.11.540,-0.36600,-1.07300,0.36300,30.38000,46.60300,-17.76300,-0.11800,0.50200,-0.14500,83.41000,-0.16000
041225_03.14.11.552,-0.32600,-1.01200,0.32600,24.65700,39.70800,-12.12700,-0.12900,0.50100,-0.13700,83.37000,-0.04000
041225_03.14.11.564,-0.32200,-0.93700,0.23200,23.94000,42.15800,-11.81300,-0.13400,0.50600,-0.13000,83.62000,0.25000
041225_03.14.11.576,-0.29100,-0.92200,0.21900,23.97500,54.37300,-13.61500,-0.14900,0.50500,-0.12600,83.99000,0.37000
041225_03.14.11.587,-0.21000,-0.91600,0.24600,21.19200,61.51300,-19.40700,-0.16400,0.51100,-0.11300,83.34000,-0.65000
041225_03.14.11.599,-0.18600,-0.93700,-0.12600,18.58500,59.11500,-28.84000,-0.16400,0.51100,-0.11300,83.52000,0.18000
041225_03.14.11.611,0.01200,-0.53600,-0.33300,33.91500,50.34700,-31.88500,-0.18100,0.52000,-0.11700,83.81000,0.29000
041225_03.14.11.623,-0.24200,-0.90500,-0.23700,29.05000,40.96700,-23.55500,-0.19300,0.52300,-0.12000,82.98000,-0.83000
041225_03.14.11.634,-0.17900,-0.80500,-0.61500,27.31800,29.73300,-31.78000,-0.19700,0.52600,-0.11200,83.23000,0.25000
041225_03.14.11.646,-0.16400,-0.92600,-0.37100,29.34700,58.43200,-28.68300,-0.19700,0.52600,-0.11200,83.22000,-0.01000
041225_03.14.11.658,-0.13400,-0.92000,-0.12800,51.83500,69.56300,-27.42300,-0.20900,0.53400,-0.10800,83.20000,-0.02000
041225_03.14.11.670,-0.14100,-0.88000,-0.05700,66.88500,82.49500,-27.65000,-0.22700,0.54600,-0.10600,83.41000,0.21000
041225_03.14.11.682,-0.14000,-0.74100,0.12200,75.51200,94.16800,-29.94300,-0.24300,0.56100,-0.11500,84.18000,0.77000
041225_03.14.11.693,-0.22400,-0.60300,0.19300,80.48200,97.38700,-35.82200,-0.26700,0.58000,-0.12200,83.77000,-0.41000
041225_03.14.11.705,-0.16900,-0.54800,0.23800,83.59800,96.14500,-51.73000,-0.26700,0.58000,-0.12200,84.05000,0.28000
041225_03.14.11.717,-0.18500,-0.65800,0.10700,73.85000,92.13700,-72.73000,-0.29200,0.59500,-0.12300,82.95000,-1.10000
041225_03.14.11.729,-0.04500,-0.69900,0.31600,44.67800,88.77800,-92.19000,-0.32000,0.60400,-0.12700,83.56000,0.61000
041225_03.14.11.740,-0.02800,-0.78500,0.21600,39.72500,59.43000,-106.78500,-0.33200,0.61400,-0.13300,83.50000,-0.06000
041225_03.14.11.752,-0.00200,-0.78900,-0.02000,37.92300,34.89500,-102.81300,-0.33200,0.61700,-0.13600,83.11000,-0.39000
041225_03.14.11.764,0.01800,-0.83800,-0.09200,39.76000,22.45200,-77.00000,-0.34600,0.61700,-0.13600,83.11000,0.00000
041225_03.14.11.776,-0.02000,-0.89800,0.01100,42.52500,21.07000,-44.22200,-0.34600,0.62000,-0.14100,83.99000,0.88000
041225_03.14.11.787,-0.05200,-0.87000,0.11800,50.82000,25.56700,-24.92000,-0.35100,0.62900,-0.14500,83.36000,-0.63000
041225_03.14.11.799,-0.12200,-0.79600,0.09800,64.10300,32.37500,-23.24000,-0.36300,0.65600,-0.15600,82.79000,-0.57000
041225_03.14.11.811,-0.15500,-0.89400,0.09900,75.30200,36.27800,-24.48300,-0.36300,0.65600,-0.15600,82.93000,0.14000
041225_03.14.11.823,0.05700,-0.79400,0.16100,106.61000,25.41000,-18.88200,-0.36400,0.66600,-0.17400,83.41000,0.48000
041225_03.14.11.834,-0.04600,-0.50800,0.19500,123.76000,41.82500,-37.20500,-0.36000,0.67700,-0.19000,83.71000,0.30000
041225_03.14.11.846,-0.21400,-0.75900,0.45700,129.09800,68.65300,-63.98000,-0.36300,0.69400,-0.20700,84.15000,0.44000
041225_03.14.11.858,-0.11100,-0.84300,0.79000,134.97700,86.41500,-87.01000,-0.38100,0.70800,-0.21700,83.85000,-0.30000
041225_03.14.11.870,-0.10500,-1.26600,1.20100,126.45500,96.00500,-104.44000,-0.38100,0.70800,-0.21700,83.82000,-0.03000
041225_03.14.11.881,-0.13100,-1.23900,1.09000,93.88700,100.20500,-132.91300,-0.39800,0.71500,-0.23800,83.53000,-0.29000
041225_03.14.11.893,-0.10300,-0.94000,0.90800,67.37500,109.88200,-156.73000,-0.42000,0.70500,-0.25500,83.86000,0.33000
041225_03.14.11.905,-0.08400,-0.82800,0.90300,63.14000,119.77000,-166.51200,-0.45200,0.71100,-0.27200,82.73000,-1.13000
041225_03.14.11.917,-0.10300,-0.91300,0.96000,64.05000,120.45200,-165.88300,-0.45200,0.71100,-0.27200,83.14000,0.41000
041225_03.14.11.928,-0.01900,-1.00700,0.92500,61.23300,106.57500,-154.40200,-0.48300,0.70700,-0.27500,83.66000,0.52000
041225_03.14.11.940,0.03500,-1.07700,0.88900,54.23300,86.22300,-131.56500,-0.51100,0.71100,-0.29300,83.56000,-0.10000
041225_03.14.11.952,0.07500,-0.96700,0.87600,45.81500,68.93300,-104.82500,-0.53400,0.70800,-0.30000,84.43000,0.87000
041225_03.14.11.964,0.02700,-0.81700,0.80500,43.94300,53.06000,-81.76000,-0.54000,0.69800,-0.30900,86.18000,1.75000
041225_03.14.11.975,-0.07100,-0.71200,0.78700,44.50200,42.28000,-67.28700,-0.54000,0.69800,-0.30900,82.85000,-3.33000
041225_03.14.11.987,-0.19900,-0.65800,0.72400,43.29500,43.83800,-64.38200,-0.55200,0.69300,-0.31800,83.91000,1.06000
041225_03.14.11.999,-0.24400,-0.68000,0.74600,30.36200,55.79000,-73.23800,-0.56100,0.68900,-0.32900,82.72000,-1.19000
041225_03.14.12.011,-0.16200,-0.52000,0.62700,27.61500,59.53500,-79.45000,-0.57700,0.68300,-0.33300,83.05000,0.33000
041225_03.14.12.022,-0.13900,-0.52800,0.58500,28.92700,59.27200,-82.12800,-0.58700,0.67900,-0.34400,83.27000,0.22000
041225_03.14.12.034,-0.08200,-0.53400,0.55200,28.85800,54.39000,-83.84200,-0.58700,0.67900,-0.34400,83.33000,0.06000
041225_03.14.12.046,-0.07900,-0.51700,0.49800,32.23500,45.04500,-85.62800,-0.60100,0.67300,-0.34500,83.46000,0.13000
041225_03.14.12.058,-0.05200,-0.36900,0.48600,42.98000,36.03300,-87.60500,-0.61300,0.66700,-0.34500,84.63000,1.17000
041225_03.14.12.069,1.29800,-0.22300,0.16600,65.69500,32.84700,-65.59000,-0.61700,0.66400,-0.36100,83.10000,-1.53000
041225_03.14.12.081,0.70100,-0.93900,0.53600,92.33000,39.58500,18.25300,-0.61700,0.66400,-0.36100,83.85000,0.75000
041225_03.14.12.093,0.26200,-0.72000,0.66000,82.47800,35.42000,33.21500,-0.60600,0.67600,-0.37300,83.55000,-0.30000
041225_03.14.12.104,0.31600,-0.38400,0.47000,66.76200,31.76300,20.14200,-0.60700,0.69000,-0.38400,83.04000,-0.51000
041225_03.14.12.116,0.27500,-0.13800,0.56100,74.41000,35.94500,15.66300,-0.60000,0.69800,-0.39800,83.37000,0.33000
041225_03.14.12.128,0.41100,-0.41900,0.84000,84.00000,46.23500,18.93500,-0.59300,0.72000,-0.41400,82.97000,-0.40000
041225_03.14.12.139,0.35400,-0.33300,0.86700,83.63200,45.29000,19.23300,-0.59300,0.72000,-0.41400,83.75000,0.78000
041225_03.14.12.151,0.36400,-0.10100,0.88700,89.88000,38.79800,17.79800,-0.58600,0.72900,-0.43100,83.34000,-0.41000
041225_03.14.12.163,0.37900,-0.33600,0.85300,87.37800,23.74700,23.57300,-0.57900,0.74200,-0.44900,83.99000,0.65000
041225_03.14.12.175,0.06400,-0.16800,0.72600,100.03000,19.68700,29.24300,-0.57200,0.75500,-0.46700,83.57000,-0.42000
041225_03.14.12.186,-0.14400,-0.56200,0.73600,103.42500,21.28000,23.31000,-0.57200,0.75500,-0.46700,84.01000,0.44000
041225_03.14.12.198,-0.25900,-0.43800,0.76400,104.09000,20.52800,10.18500,-0.57000,0.77400,-0.48700,83.47000,-0.54000
041225_03.14.12.210,-0.29400,-0.21500,0.81500,107.78300,21.21000,1.03300,-0.56100,0.77800,-0.50400,83.39000,-0.08000
041225_03.14.12.221,-0.20300,-0.28600,0.92200,111.80800,22.26000,-4.27000,-0.55400,0.78100,-0.52800,83.65000,0.26000
041225_03.14.12.233,-0.12300,-0.27000,1.06000,110.70500,17.09700,-7.50800,-0.55300,0.78200,-0.55300,83.38000,-0.27000
041225_03.14.12.245,-0.11800,0.04800,1.29900,108.74500,8.64500,-7.19300,-0.55300,0.78200,-0.55300,83.26000,-0.12000
041225_03.14.12.257,0.01400,-0.09300,1.25300,110.00500,-0.66500,-5.91500,-0.54700,0.78400,-0.57800,82.79000,-0.47000
041225_03.14.12.269,0.14900,-0.08000,1.34200,103.68800,-13.75500,-5.30300,-0.54600,0.78500,-0.59600,83.99000,1.20000
041225_03.14.12.280,0.05000,-0.05000,1.28300,99.96000,-27.98300,-2.97500,-0.54200,0.78200,-0.61500,83.43000,-0.56000
041225_03.14.12.292,0.02600,-0.03100,1.24000,94.81500,-34.16000,-3.39500,-0.54600,0.77700,-0.63000,83.29000,-0.14000
041225_03.14.12.304,-0.06200,0.02400,1.23100,91.68300,-33.74000,-4.14800,-0.54600,0.77700,-0.63000,82.59000,-0.70000
041225_03.14.12.315,-0.13200,0.02600,1.25000,89.79300,-28.40300,-2.76500,-0.54500,0.77300,-0.64100,84.08000,1.49000
041225_03.14.12.327,-0.14900,0.06600,1.22000,88.53300,-22.06700,-5.18000,-0.54000,0.75500,-0.66600,83.30000,-0.78000
041225_03.14.12.339,-0.14900,-0.00200,1.19400,71.01500,-7.03500,-5.98500,-0.54300,0.75300,-0.67100,83.96000,0.66000
041225_03.14.12.350,-0.23900,0.08200,1.31300,57.80300,4.72500,-3.37800,-0.54300,0.75300,-0.67100,84.37000,0.41000
041225_03.14.12.362,-0.09800,0.12700,1.23600,63.85800,20.79000,-1.50500,-0.55200,0.75400,-0.68800,83.72000,-0.65000
041225_03.14.12.374,0.13100,0.02700,1.15400,47.00500,15.80200,-3.01000,-0.54800,0.75400,-0.69500,83.82000,0.10000
041225_03.14.12.386,-0.00500,0.13500,1.05000,41.72000,14.14000,1.83700,-0.54300,0.74100,-0.71300,83.85000,0.03000
041225_03.14.12.397,-0.05000,0.19700,1.07500,38.99000,18.83000,3.81500,-0.54500,0.74000,-0.71900,83.56000,-0.29000
041225_03.14.12.409,0.03000,0.31000,1.04400,40.91500,22.08500,5.11000,-0.54500,0.74000,-0.71900,84.07000,0.51000
041225_03.14.12.421,0.05500,0.28200,1.01100,47.42500,19.60000,6.65000,-0.54200,0.73500,-0.73500,83.54000,-0.53000
041225_03.14.12.432,0.04300,0.27700,0.95900,53.90000,14.61300,7.31500,-0.53400,0.72900,-0.74500,83.90000,0.36000
041225_03.14.12.444,0.04300,0.26500,0.95400,58.27500,9.20500,7.84000,-0.53000,0.72700,-0.76300,84.40000,0.50000
041225_03.14.12.455,-0.07800,0.28200,0.90800,62.59700,5.18000,8.43500,-0.53000,0.72700,-0.77000,83.29000,-1.11000
041225_03.14.12.467,-0.02500,0.20100,0.98000,65.15300,4.13000,7.57700,-0.53000,0.71700,-0.77000,83.69000,0.40000
041225_03.14.12.479,-0.05400,0.26900,0.94300,65.20500,2.39800,6.10800,-0.52900,0.70900,-0.78000,84.03000,0.34000
041225_03.14.12.490,-0.12200,0.34000,0.84900,66.23800,6.03700,5.00500,-0.52700,0.69600,-0.78500,83.11000,-0.92000
041225_03.14.12.502,-0.08900,0.34800,0.91700,71.52200,20.44000,5.56500,-0.52500,0.68500,-0.79400,83.55000,0.44000
041225_03.14.12.514,-0.09600,0.36100,0.98000,66.69200,26.12800,6.94800,-0.52500,0.68500,-0.79400,83.78000,0.23000
041225_03.14.12.525,-0.12700,0.37600,1.00400,63.94500,33.26800,7.38500,-0.51600,0.67000,-0.80900,83.85000,0.07000
041225_03.14.12.537,-0.14500,0.38000,1.04600,60.79500,40.75700,7.00000,-0.50800,0.65900,-0.81900,83.75000,-0.10000
041225_03.14.12.549,-0.16700,0.41300,1.05900,55.70200,47.23300,5.49500,-0.50200,0.65600,-0.83000,84.31000,0.56000
041225_03.14.12.560,-0.21800,0.41000,1.04700,49.70000,53.49800,4.48000,-0.48900,0.64800,-0.84900,83.91000,-0.40000
041225_03.14.12.572,-0.34600,0.45800,0.93300,43.48700,60.69000,2.62500,-0.48900,0.64800,-0.84900,83.75000,-0.16000
041225_03.14.12.584,-0.35700,0.48700,0.93800,42.63000,70.91000,-1.71500,-0.47700,0.63900,-0.86200,83.67000,-0.08000
041225_03.14.12.595,-0.37900,0.41900,0.96400,41.51000,79.52000,-4.35800,-0.46500,0.62900,-0.87100,83.27000,-0.40000
041225_03.14.12.607,-0.36100,0.42700,0.93400,36.96000,86.87000,-7.40300,-0.45000,0.61700,-0.87900,83.44000,0.17000
041225_03.14.12.619,-0.26700,0.41600,0.90500,34.07200,93.39700,-11.88200,-0.45000,0.61700,-0.87900,83.78000,0.34000
041225_03.14.12.631,-0.39500,0.42400,0.97100,36.08500,100.27500,-14.31500,-0.43000,0.61000,-0.88700,83.76000,-0.02000
041225_03.14.12.642,-0.49400,0.49900,0.94000,29.90700,111.89500,-16.81700,-0.40400,0.60800,-0.90000,83.96000,0.20000
041225_03.14.12.654,-0.56500,0.49800,0.94000,23.80000,124.54800,-18.37500,-0.37700,0.59900,-0.90300,83.47000,-0.49000
041225_03.14.12.666,-0.60900,0.54300,0.98800,24.11500,137.35700,-21.59500,-0.34600,0.59700,-0.91000,82.86000,-0.61000
041225_03.14.12.678,-0.61100,0.39800,1.05100,13.19500,165.37500,-29.76700,-0.34600,0.59700,-0.91000,83.72000,0.86000
041225_03.14.12.689,-0.59600,0.43600,0.93000,2.48500,176.31200,-32.23500,-0.31100,0.60000,-0.91200,83.34000,-0.38000
041225_03.14.12.701,-0.58400,0.42500,0.92800,-8.22500,182.36800,-33.05700,-0.27300,0.60500,-0.91000,83.12000,-0.22000
041225_03.14.12.713,-0.48900,0.34000,1.03600,-23.50300,181.96500,-36.90800,-0.23600,0.61600,-0.90800,84.04000,0.92000
041225_03.14.12.725,-0.59200,0.37500,0.93600,-37.55500,181.37000,-34.59700,-0.23600,0.63300,-0.90000,83.24000,-0.80000
041225_03.14.12.736,-0.64200,0.26000,0.91500,-52.30700,185.50000,-32.06000,-0.20300,0.63300,-0.90000,84.15000,0.91000
041225_03.14.12.748,-0.55900,0.22900,0.99700,-75.28500,189.63000,-31.29000,-0.16600,0.65600,-0.87500,84.43000,0.28000
041225_03.14.12.760,-0.58300,0.29800,0.93100,-98.01800,190.75000,-21.99700,-0.13900,0.68700,-0.85100,83.66000,-0.77000
041225_03.14.12.772,-0.59200,0.69100,-0.06300,-106.29500,199.20200,-3.85000,-0.10300,0.71000,-0.82700,83.93000,0.27000
041225_03.14.12.783,-0.04300,0.40100,0.76900,-53.58500,213.81500,45.69300,-0.10300,0.71000,-0.82700,83.23000,-0.70000
041225_03.14.12.795,-0.37200,0.78400,0.34700,-27.02000,193.60200,86.01200,-0.06000,0.71200,-0.80600,83.34000,0.11000
041225_03.14.12.807,-0.81900,0.55800,0.35700,2.95700,187.37200,104.24700,-0.01500,0.70600,-0.79000,83.72000,0.38000
041225_03.14.12.819,-0.84000,0.51800,0.48300,26.54800,182.56000,94.37800,0.02300,0.69500,-0.77200,83.90000,0.18000
041225_03.14.12.830,-0.72500,0.62800,0.61900,28.73500,179.98800,65.67700,0.05400,0.69200,-0.74100,83.21000,-0.69000
041225_03.14.12.842,-0.79600,0.53100,0.50100,20.75500,167.70200,21.17500,0.05400,0.69200,-0.74100,83.53000,0.32000
041225_03.14.12.854,-0.83500,0.45600,0.43400,12.91500,170.18700,16.43300,0.07300,0.69100,-0.72500,83.63000,0.10000
041225_03.14.12.865,-0.67100,0.44100,0.39000,7.78700,169.89000,18.18300,0.09000,0.68600,-0.69700,83.63000,0.00000
041225_03.14.12.877,-0.68100,0.42100,0.29700,1.71500,170.08300,23.69500,0.11300,0.68300,-0.66800,83.22000,-0.41000
041225_03.14.12.889,-0.72200,0.34000,0.20500,-4.65500,170.34500,28.08700,0.11300,0.68300,-0.66800,83.97000,0.75000
041225_03.14.12.901,-0.80300,0.40100,0.24100,-5.93200,179.42800,37.59000,0.12600,0.67800,-0.64000,84.29000,0.32000
041225_03.14.12.912,-0.77000,0.54200,0.18700,-7.10500,196.38500,45.67500,0.14300,0.67500,-0.60400,84.31000,0.02000
041225_03.14.12.924,-0.67800,0.75800,-0.06600,-14.35000,188.42300,40.44300,0.16000,0.67100,-0.56700,83.80000,-0.51000
041225_03.14.12.936,-0.57800,0.63200,-0.13000,-12.49500,169.20800,30.04800,0.16500,0.66700,-0.52800,83.96000,0.16000
041225_03.14.12.947,-0.61000,0.58500,-0.19700,-15.13700,159.02300,32.91700,0.16500,0.66700,-0.52800,84.21000,0.25000
041225_03.14.12.959,-0.60200,0.59800,-0.21400,-16.59000,158.84800,43.64500,0.17400,0.65600,-0.49400,84.01000,-0.20000
041225_03.14.12.971,-0.57000,0.63600,-0.20300,-17.48300,159.91500,46.95200,0.18000,0.64700,-0.46500,83.42000,-0.59000
041225_03.14.12.983,-0.53900,0.67700,-0.26800,-14.47200,159.46000,45.29000,0.17900,0.63200,-0.43900,83.62000,0.20000
041225_03.14.12.994,-0.47600,0.74700,-0.32300,-8.90800,155.41700,41.37000,0.17900,0.61800,-0.40600,83.21000,-0.41000
041225_03.14.13.006,-0.45800,0.73200,-0.35000,-3.83200,149.18700,42.78700,0.18400,0.61800,-0.40600,83.55000,0.34000
041225_03.14.13.018,-0.54600,0.60300,-0.38100,-9.64200,132.37000,53.58500,0.18200,0.60700,-0.37700,83.66000,0.11000
041225_03.14.13.030,-0.54400,0.73100,-0.35800,-13.23000,127.78500,44.29200,0.17500,0.59300,-0.34700,84.11000,0.45000
041225_03.14.13.041,-0.49500,0.73600,-0.43500,-17.09700,122.93800,27.73700,0.16800,0.58200,-0.32600,83.67000,-0.44000
041225_03.14.13.053,-0.46000,0.66600,-0.43700,-21.01700,120.03300,13.40500,0.16800,0.58200,-0.32600,83.79000,0.12000
041225_03.14.13.065,-0.43000,0.64200,-0.44100,-25.91700,118.66800,9.46700,0.16200,0.57700,-0.29700,83.76000,-0.03000
041225_03.14.13.077,-0.40000,0.64300,-0.49800,-32.35800,121.13500,11.14800,0.14700,0.56500,-0.27300,84.23000,0.47000
041225_03.14.13.089,-0.37100,0.68900,-0.55600,-37.76500,126.70000,13.70300,0.12700,0.55300,-0.25100,83.18000,-1.05000
041225_03.14.13.100,-0.31500,0.72900,-0.59500,-40.39000,128.48500,14.31500,0.11600,0.54100,-0.22200,83.72000,0.54000
041225_03.14.13.112,-0.29200,0.75100,-0.62000,-40.46000,126.59500,13.07300,0.11600,0.54100,-0.22200,83.85000,0.13000
041225_03.14.13.124,-0.22400,0.76400,-0.63300,-39.97000,125.44000,12.54700,0.10000,0.52900,-0.20700,83.21000,-0.64000
041225_03.14.13.135,-0.19400,0.78300,-0.64300,-40.47800,126.01800,14.19300,0.08000,0.51700,-0.18100,84.02000,0.81000
041225_03.14.13.147,-0.15700,0.79500,-0.65000,-39.74300,122.55200,14.33300,0.06000,0.51000,-0.16900,84.10000,0.08000
041225_03.14.13.159,-0.14100,0.81200,-0.63600,-38.53500,116.16500,13.03800,0.06000,0.51000,-0.16900,83.53000,-0.57000
041225_03.14.13.171,-0.11600,0.79200,-0.62100,-36.89000,108.88500,12.75700,0.03900,0.49600,-0.15000,83.79000,0.26000
041225_03.14.13.182,-0.10400,0.78400,-0.60500,-35.36800,102.90000,15.26000,0.02200,0.47800,-0.13500,83.69000,-0.10000
041225_03.14.13.194,-0.07800,0.79800,-0.57900,-30.92300,91.21000,17.29000,0.00600,0.46600,-0.11600,84.00000,0.31000
041225_03.14.13.206,-0.08000,0.96100,-0.58500,-21.77000,83.00300,16.17000,-0.00900,0.46400,-0.11300,83.99000,-0.01000
041225_03.14.13.218,-0.13900,0.60600,-0.62100,-17.55200,75.88000,11.91800,-0.00900,0.46400,-0.11300,83.62000,-0.37000
041225_03.14.13.229,-0.03600,0.76200,-0.54600,-33.82700,74.14700,18.27000,-0.02300,0.45000,-0.10800,83.42000,-0.20000
041225_03.14.13.241,0.05300,0.90800,-0.50700,-34.37000,66.27200,22.19000,-0.03600,0.43800,-0.10100,83.46000,0.04000
041225_03.14.13.253,-0.09200,0.84900,-0.49900,-27.51000,56.14000,19.11000,-0.04400,0.42500,-0.09400,83.82000,0.36000
041225_03.14.13.265,-0.09500,0.82700,-0.45700,-24.51700,51.31000,13.86000,-0.05400,0.41900,-0.09300,84.16000,0.34000
041225_03.14.13.276,-0.06800,0.88300,-0.45800,-22.78500,44.62500,10.02800,-0.05400,0.41900,-0.09300,83.89000,-0.27000
041225_03.14.13.288,-0.08300,0.85900,-0.45000,-16.94000,33.25000,3.39500,-0.06300,0.40500,-0.08600,83.70000,-0.19000
041225_03.14.13.300,-0.07100,0.79200,-0.43600,-10.08000,22.69800,-5.93200,-0.07100,0.40200,-0.09200,84.21000,0.51000
