timestamp,ax,ay,az,gx,gy,gz,mx,my,mz,altitude,relative_altitude
041225_04.42.05.077,-0.02400,-0.00200,1.00000,0.07000,-0.12300,-0.01800,0.56300,0.45800,-1.30500,78.77000,0.00000
041225_04.42.05.089,-0.02700,-0.00200,1.00300,0.08700,-0.14000,-0.03500,0.56100,0.46100,-1.30800,79.13000,0.36000
041225_04.42.05.100,-0.02400,-0.00100,1.00300,0.10500,-0.12300,-0.05300,0.56100,0.46100,-1.30800,79.28000,0.15000
041225_04.42.05.112,-0.02500,-0.00200,0.99900,0.08700,-0.12300,-0.03500,0.55800,0.45500,-1.30600,79.32000,0.04000
041225_04.42.05.124,-0.02600,-0.00100,1.00400,0.07000,-0.12300,-0.01800,0.56200,0.46000,-1.31000,78.98000,-0.34000
041225_04.42.05.135,-0.02500,-0.00200,1.00200,0.07000,-0.14000,-0.01800,0.56200,0.45700,-1.31000,79.06000,0.08000
041225_04.42.05.147,-0.02400,0.00000,1.00100,0.10500,-0.14000,-0.03500,0.56300,0.45800,-1.30400,78.43000,-0.63000
041225_04.42.05.159,-0.02600,-0.00200,1.00300,0.08700,-0.14000,-0.03500,0.56300,0.45800,-1.30400,78.69000,0.26000
041225_04.42.05.171,-0.02400,0.00000,1.00100,0.08700,-0.14000,-0.01800,0.56900,0.45400,-1.30900,79.21000,0.52000
041225_04.42.05.183,-0.02500,-0.00100,1.00300,0.08700,-0.14000,-0.01800,0.57100,0.45600,-1.30900,78.48000,-0.73000
041225_04.42.05.194,-0.02600,-0.00200,1.00100,0.10500,-0.15700,-0.01800,0.57700,0.45500,-1.31200,78.95000,0.47000
041225_04.42.05.206,-0.02500,-0.00100,1.00200,0.10500,-0.14000,-0.01800,0.57400,0.45900,-1.31500,79.63000,0.68000
041225_04.42.05.217,-0.02400,-0.00300,1.00500,0.12300,-0.14000,0.00000,0.57400,0.45900,-1.31500,78.00000,-1.63000
041225_04.42.05.229,-0.02500,-0.00100,1.00200,0.10500,-0.14000,-0.03500,0.57800,0.45800,-1.31500,79.44000,1.44000
041225_04.42.05.240,-0.02600,-0.00100,1.00400,0.10500,-0.12300,0.00000,0.57600,0.45600,-1.31100,79.12000,-0.32000
041225_04.42.05.252,-0.02400,-0.00200,1.00100,0.10500,-0.12300,-0.01800,0.57700,0.45600,-1.31500,79.00000,-0.12000
041225_04.42.05.263,-0.02500,-0.00200,1.00400,0.08700,-0.10500,-0.01800,0.57700,0.45600,-1.31500,79.55000,0.55000
041225_04.42.05.274,-0.02600,-0.00100,1.00100,0.10500,-0.10500,0.00000,0.57600,0.45700,-1.31800,78.97000,-0.58000
041225_04.42.05.286,-0.02500,-0.00100,1.00400,0.10500,-0.12300,-0.01800,0.57300,0.45600,-1.31300,78.23000,-0.74000
041225_04.42.05.298,-0.02500,-0.00000,1.00300,0.10500,-0.14000,-0.01800,0.57400,0.45800,-1.31300,78.68000,0.45000
041225_04.42.05.309,-0.02400,-0.00100,0.99900,0.08700,-0.12300,-0.01800,0.57000,0.45700,-1.31000,79.84000,1.16000
041225_04.42.05.321,-0.02500,-0.00100,1.00500,0.08700,-0.12300,-0.03500,0.57000,0.45700,-1.31000,79.22000,-0.62000
041225_04.42.05.332,-0.02500,-0.00100,1.00200,0.08700,-0.14000,-0.03500,0.56900,0.45700,-1.30900,78.97000,-0.25000
041225_04.42.05.343,-0.02300,-0.00000,1.00100,0.08700,-0.12300,-0.01800,0.56800,0.45900,-1.30600,78.84000,-0.13000
041225_04.42.05.355,-0.02600,-0.00200,1.00400,0.12300,-0.12300,-0.03500,0.56300,0.45800,-1.30200,79.10000,0.26000
041225_04.42.05.366,-0.02400,-0.00000,1.00200,0.08700,-0.14000,-0.01800,0.56500,0.45900,-1.30500,78.85000,-0.25000
041225_04.42.05.378,-0.02500,-0.00200,1.00200,0.08700,-0.12300,-0.01800,0.56500,0.45900,-1.30500,78.47000,-0.38000
041225_04.42.05.389,-0.02400,-0.00100,1.00000,0.07000,-0.10500,-0.03500,0.56000,0.46000,-1.30600,79.43000,0.96000
041225_04.42.05.401,-0.02600,-0.00200,1.00400,0.07000,-0.12300,-0.01800,0.56100,0.45600,-1.30800,79.61000,0.18000
041225_04.42.05.412,-0.02500,-0.00200,1.00100,0.07000,-0.12300,-0.03500,0.55900,0.45700,-1.30600,79.03000,-0.58000
041225_04.42.05.424,-0.02500,-0.00200,1.00300,0.08700,-0.12300,-0.01800,0.55900,0.45700,-1.30600,79.07000,0.04000
041225_04.42.05.435,-0.02500,-0.00200,1.00300,0.08700,-0.12300,-0.01800,0.56000,0.45800,-1.31100,78.86000,-0.21000
041225_04.42.05.447,-0.02400,-0.00300,1.00100,0.05300,-0.12300,-0.01800,0.56500,0.45600,-1.31300,79.28000,0.42000
041225_04.42.05.458,-0.02500,-0.00200,1.00400,0.07000,-0.10500,-0.03500,0.56900,0.45900,-1.30800,79.61000,0.33000
041225_04.42.05.470,-0.02500,-0.00200,1.00100,0.08700,-0.12300,-0.03500,0.57200,0.45700,-1.31500,78.56000,-1.05000
041225_04.42.05.481,-0.02300,-0.00200,1.00000,0.10500,-0.12300,-0.01800,0.57200,0.45700,-1.31500,78.76000,0.20000
041225_04.42.05.493,-0.02400,-0.00300,1.00300,0.08700,-0.12300,-0.01800,0.57500,0.45200,-1.31600,79.09000,0.33000
041225_04.42.05.505,-0.02300,-0.00000,1.00200,0.10500,-0.12300,-0.01800,0.57500,0.45200,-1.31200,79.12000,0.03000
041225_04.42.05.516,-0.02500,-0.00200,1.00300,0.10500,-0.12300,-0.01800,0.58000,0.45700,-1.31900,79.14000,0.02000
041225_04.42.05.528,-0.02400,-0.00200,1.00200,0.12300,-0.12300,-0.03500,0.57700,0.45400,-1.31500,78.95000,-0.19000
041225_04.42.05.539,-0.02500,-0.00000,1.00100,0.08700,-0.12300,-0.01800,0.57700,0.45400,-1.31500,78.61000,-0.34000
041225_04.42.05.551,-0.02400,-0.00100,0.99900,0.10500,-0.12300,-0.01800,0.57800,0.45600,-1.31600,79.06000,0.45000
041225_04.42.05.562,-0.02300,-0.00000,1.00300,0.08700,-0.14000,-0.03500,0.57400,0.45700,-1.31700,79.08000,0.02000
041225_04.42.05.574,-0.02500,-0.00100,1.00400,0.08700,-0.12300,-0.03500,0.57100,0.45800,-1.30900,79.67000,0.59000
041225_04.42.05.585,-0.02200,-0.00100,1.00000,0.08700,-0.10500,-0.01800,0.57100,0.45800,-1.30900,79.18000,-0.49000
041225_04.42.05.597,-0.02400,-0.00300,1.00300,0.08700,-0.10500,-0.01800,0.56800,0.46300,-1.31000,79.67000,0.49000
041225_04.42.05.608,-0.02500,-0.00100,1.00300,0.08700,-0.12300,-0.01800,0.56500,0.46100,-1.30100,79.07000,-0.60000
041225_04.42.05.620,-0.02300,-0.00100,1.00100,0.08700,-0.10500,0.00000,0.56500,0.45600,-1.30600,78.99000,-0.08000
041225_04.42.05.631,-0.02500,-0.00200,1.00500,0.08700,-0.10500,-0.01800,0.56600,0.46200,-1.30600,79.14000,0.15000
041225_04.42.05.643,-0.02500,-0.00100,1.00100,0.10500,-0.12300,-0.01800,0.56600,0.46200,-1.30600,78.84000,-0.30000
041225_04.42.05.654,-0.02500,-0.00100,1.00400,0.10500,-0.12300,-0.01800,0.56100,0.46000,-1.31400,79.31000,0.47000
041225_04.42.05.666,-0.02500,-0.00000,1.00200,0.08700,-0.12300,-0.01800,0.55700,0.45700,-1.31500,79.21000,-0.10000
041225_04.42.05.677,-0.02500,-0.00100,1.00100,0.08700,-0.10500,-0.01800,0.55700,0.46100,-1.30900,78.92000,-0.29000
041225_04.42.05.689,-0.02500,-0.00100,1.00600,0.08700,-0.10500,-0.01800,0.56100,0.45600,-1.31300,79.28000,0.36000
041225_04.42.05.700,-0.02400,-0.00100,1.00300,0.07000,-0.12300,-0.01800,0.56100,0.45600,-1.31300,79.24000,-0.04000
041225_04.42.05.711,-0.02600,-0.00100,1.00200,0.07000,-0.10500,-0.01800,0.56000,0.46000,-1.31100,79.05000,-0.19000
041225_04.42.05.723,-0.02400,-0.00100,1.00000,0.10500,-0.12300,-0.03500,0.56200,0.45700,-1.31400,78.39000,-0.66000
041225_04.42.05.734,-0.02700,-0.00200,1.00400,0.08700,-0.12300,-0.03500,0.56600,0.45100,-1.30900,78.85000,0.46000
041225_04.42.05.746,-0.02600,-0.00200,1.00100,0.08700,-0.14000,-0.03500,0.56600,0.45100,-1.30900,80.15000,1.30000
041225_04.42.05.758,-0.02600,-0.00000,1.00100,0.08700,-0.14000,0.00000,0.57300,0.45700,-1.31800,79.49000,-0.66000
041225_04.42.05.769,-0.02700,-0.00200,1.00300,0.07000,-0.12300,-0.01800,0.56800,0.45500,-1.30900,79.77000,0.28000
041225_04.42.05.781,-0.02400,-0.00200,0.99900,0.07000,-0.12300,-0.01800,0.57000,0.45400,-1.31000,78.60000,-1.17000
041225_04.42.05.792,-0.02600,-0.00200,1.00300,0.07000,-0.15700,-0.01800,0.57100,0.45900,-1.31200,78.90000,0.30000
041225_04.42.05.804,-0.02500,-0.00100,1.00200,0.08700,-0.14000,-0.03500,0.57100,0.45900,-1.31200,79.45000,0.55000
041225_04.42.05.815,-0.02500,-0.00000,0.99900,0.07000,-0.10500,-0.03500,0.57800,0.45700,-1.31200,78.56000,-0.89000
041225_04.42.05.826,-0.02500,-0.00300,1.00400,0.08700,-0.14000,-0.03500,0.57700,0.45400,-1.31900,78.94000,0.38000
041225_04.42.05.838,-0.02300,-0.00200,1.00000,0.08700,-0.12300,-0.03500,0.57200,0.46200,-1.30900,78.94000,0.00000
041225_04.42.05.849,-0.02400,-0.00200,1.00100,0.08700,-0.14000,-0.01800,0.57100,0.45800,-1.31100,79.19000,0.25000
041225_04.42.05.861,-0.02400,-0.00200,1.00200,0.10500,-0.14000,-0.01800,0.57100,0.45800,-1.31100,78.68000,-0.51000
041225_04.42.05.873,-0.02400,-0.00200,1.00500,0.08700,-0.15700,-0.03500,0.57100,0.45700,-1.31000,78.63000,-0.05000
041225_04.42.05.884,-0.02600,-0.00200,1.00000,0.08700,-0.14000,-0.03500,0.57100,0.45400,-1.31000,78.94000,0.31000
041225_04.42.05.896,-0.02500,-0.00100,1.00300,0.08700,-0.12300,-0.01800,0.56300,0.45900,-1.31300,78.80000,-0.14000
041225_04.42.05.907,-0.02500,-0.00200,1.00300,0.08700,-0.12300,-0.03500,0.56300,0.45900,-1.31300,79.74000,0.94000
041225_04.42.05.919,-0.02300,-0.00100,1.00100,0.08700,-0.12300,-0.03500,0.56100,0.45800,-1.30700,79.09000,-0.65000
041225_04.42.05.930,-0.02300,-0.00100,1.00500,0.12300,-0.12300,-0.01800,0.56200,0.45600,-1.30800,78.85000,-0.24000
041225_04.42.05.942,-0.02400,-0.00200,1.00200,0.08700,-0.12300,-0.01800,0.56500,0.45900,-1.30900,79.35000,0.50000
041225_04.42.05.953,-0.02400,-0.00200,1.00000,0.08700,-0.08700,-0.03500,0.55800,0.46000,-1.31100,78.97000,-0.38000
041225_04.42.05.964,-0.02300,-0.00200,1.00400,0.07000,-0.08700,-0.03500,0.55800,0.46000,-1.31100,79.32000,0.35000
041225_04.42.05.976,-0.02400,-0.00100,1.00000,0.08700,-0.14000,-0.03500,0.55700,0.45900,-1.31300,79.15000,-0.17000
041225_04.42.05.987,-0.02300,-0.00200,1.00400,0.08700,-0.14000,-0.03500,0.56000,0.46000,-1.30400,79.08000,-0.07000
041225_04.42.05.999,-0.02500,-0.00200,1.00200,0.08700,-0.12300,-0.03500,0.55900,0.46000,-1.31300,78.62000,-0.46000
041225_04.42.06.010,-0.02300,-0.00100,1.00100,0.08700,-0.10500,-0.01800,0.55900,0.46000,-1.31500,79.53000,0.91000
041225_04.42.06.022,-0.02400,-0.00200,1.00200,0.10500,-0.14000,-0.03500,0.56300,0.46000,-1.31500,79.24000,-0.29000
041225_04.42.06.033,-0.02300,-0.00200,1.00200,0.08700,-0.10500,-0.03500,0.56700,0.46000,-1.31100,78.70000,-0.54000
041225_04.42.06.045,-0.02500,-0.00000,1.00600,0.10500,-0.12300,-0.01800,0.56700,0.46000,-1.31300,78.61000,-0.09000
041225_04.42.06.056,-0.02300,0.00100,1.00000,0.08700,-0.14000,-0.01800,0.57100,0.45900,-1.30700,78.88000,0.27000
041225_04.42.06.068,-0.02500,-0.00100,1.00500,0.10500,-0.14000,0.00000,0.57100,0.45900,-1.30700,79.61000,0.73000
041225_04.42.06.079,-0.02500,-0.00100,1.00100,0.10500,-0.12300,-0.01800,0.57300,0.46000,-1.31000,79.76000,0.15000
041225_04.42.06.091,-0.02500,-0.00100,1.00200,0.08700,-0.12300,-0.01800,0.57300,0.45900,-1.31900,79.17000,-0.59000
041225_04.42.06.102,-0.02500,-0.00200,1.00500,0.10500,-0.12300,-0.01800,0.57200,0.45900,-1.31900,79.16000,-0.01000
041225_04.42.06.114,-0.02500,-0.00100,1.00100,0.10500,-0.14000,-0.03500,0.57400,0.45600,-1.31200,78.94000,-0.22000
041225_04.42.06.125,-0.02500,-0.00100,1.00200,0.12300,-0.10500,-0.03500,0.57400,0.45600,-1.31200,78.62000,-0.32000
041225_04.42.06.137,-0.02500,-0.00100,1.00200,0.07000,-0.08700,-0.01800,0.57300,0.46100,-1.31300,78.85000,0.23000
041225_04.42.06.148,-0.02500,-0.00200,1.00100,0.10500,-0.10500,-0.01800,0.56600,0.46100,-1.31400,78.88000,0.03000
041225_04.42.06.160,-0.02500,0.00000,1.00400,0.10500,-0.12300,-0.03500,0.56500,0.45900,-1.31600,79.47000,0.59000
041225_04.42.06.171,-0.02300,-0.00200,1.00000,0.10500,-0.12300,-0.01800,0.56500,0.45500,-1.31400,79.08000,-0.39000
041225_04.42.06.183,-0.02400,-0.00100,1.00300,0.10500,-0.10500,-0.01800,0.56700,0.45500,-1.31400,79.28000,0.20000
041225_04.42.06.194,-0.02500,-0.00100,1.00100,0.08700,-0.12300,-0.03500,0.56300,0.45800,-1.30800,79.17000,-0.11000
041225_04.42.06.206,-0.02600,-0.00200,1.00300,0.10500,-0.10500,-0.03500,0.56300,0.46200,-1.31300,79.00000,-0.17000
041225_04.42.06.218,-0.02500,-0.00100,1.00100,0.08700,-0.12300,-0.01800,0.56000,0.46200,-1.31000,78.87000,-0.13000
041225_04.42.06.229,-0.02600,-0.00100,1.00300,0.08700,-0.10500,-0.01800,0.56000,0.46200,-1.31000,78.32000,-0.55000
041225_04.42.06.241,-0.02500,-0.00400,1.00400,0.08700,-0.12300,-0.01800,0.55700,0.45400,-1.30700,78.95000,0.63000
041225_04.42.06.252,-0.02400,-0.00200,1.00000,0.10500,-0.12300,-0.05300,0.55800,0.45200,-1.31200,78.92000,-0.03000
041225_04.42.06.264,-0.02600,-0.00200,1.00300,0.08700,-0.12300,-0.01800,0.56200,0.45500,-1.31000,78.95000,0.03000
041225_04.42.06.275,-0.02600,-0.00200,1.00300,0.08700,-0.12300,-0.01800,0.56600,0.45600,-1.31000,79.40000,0.45000
041225_04.42.06.287,-0.02600,-0.00200,1.00100,0.10500,-0.12300,-0.01800,0.56600,0.45600,-1.31000,78.85000,-0.55000
041225_04.42.06.298,-0.02600,-0.00300,1.00400,0.08700,-0.14000,0.00000,0.56500,0.45300,-1.30700,79.70000,0.85000
041225_04.42.06.310,-0.02300,-0.00200,1.00000,0.07000,-0.10500,0.00000,0.57100,0.45200,-1.31400,78.95000,-0.75000
041225_04.42.06.321,-0.02600,-0.00100,1.00200,0.08700,-0.10500,-0.01800,0.57200,0.45200,-1.31300,79.16000,0.21000
041225_04.42.06.333,-0.02600,-0.00200,1.00400,0.08700,-0.12300,-0.03500,0.57200,0.45400,-1.31200,79.59000,0.43000
041225_04.42.06.344,-0.02700,-0.00100,1.00300,0.10500,-0.14000,-0.03500,0.57100,0.45400,-1.31200,78.81000,-0.78000
041225_04.42.06.356,-0.02600,-0.00200,1.00100,0.08700,-0.14000,-0.01800,0.57000,0.45300,-1.30800,79.16000,0.35000
041225_04.42.06.367,-0.02600,-0.00000,1.00200,0.07000,-0.14000,-0.01800,0.57300,0.44900,-1.31300,78.96000,-0.20000
041225_04.42.06.379,-0.02500,-0.00200,1.00500,0.07000,-0.14000,-0.01800,0.57700,0.45800,-1.31200,79.27000,0.31000
041225_04.42.06.390,-0.02300,-0.00000,1.00100,0.10500,-0.14000,-0.03500,0.57700,0.45800,-1.31200,79.50000,0.23000
041225_04.42.06.402,-0.02500,-0.00300,1.00300,0.08700,-0.15700,-0.01800,0.57000,0.45300,-1.31000,79.41000,-0.09000
041225_04.42.06.413,-0.02400,-0.00100,1.00400,0.10500,-0.14000,-0.01800,0.57000,0.45400,-1.30600,79.33000,-0.08000
041225_04.42.06.425,-0.02300,-0.00300,1.00100,0.08700,-0.14000,-0.01800,0.57000,0.45600,-1.30900,79.00000,-0.33000
041225_04.42.06.436,-0.02400,-0.00100,1.00600,0.07000,-0.14000,-0.03500,0.57000,0.45400,-1.30800,78.24000,-0.76000
041225_04.42.06.448,-0.02500,-0.00100,1.00000,0.07000,-0.14000,-0.01800,0.57000,0.45400,-1.30800,78.99000,0.75000
041225_04.42.06.459,-0.02300,-0.00100,1.00400,0.08700,-0.12300,0.00000,0.56500,0.45100,-1.30900,79.33000,0.34000
041225_04.42.06.471,-0.02400,-0.00100,1.00300,0.07000,-0.12300,-0.03500,0.56400,0.45300,-1.31100,78.93000,-0.40000
041225_04.42.06.482,-0.02400,-0.00200,1.00100,0.08700,-0.12300,-0.03500,0.56100,0.45200,-1.31200,79.10000,0.17000
041225_04.42.06.494,-0.02400,-0.00100,1.00300,0.10500,-0.12300,-0.03500,0.56100,0.45000,-1.30700,78.37000,-0.73000
041225_04.42.06.505,-0.02500,-0.00100,1.00200,0.08700,-0.14000,-0.03500,0.56000,0.45000,-1.30700,79.63000,1.26000
041225_04.42.06.517,-0.02400,-0.00200,1.00400,0.08700,-0.12300,-0.01800,0.56100,0.45600,-1.30600,78.95000,-0.68000
041225_04.42.06.528,-0.02500,0.00100,1.00000,0.10500,-0.12300,-0.01800,0.56000,0.45800,-1.31000,79.26000,0.31000
041225_04.42.06.539,-0.02400,-0.00200,1.00200,0.08700,-0.14000,0.00000,0.55500,0.45600,-1.31600,79.30000,0.04000
041225_04.42.06.551,-0.02400,-0.00300,1.00400,0.10500,-0.12300,0.00000,0.55500,0.45600,-1.31600,78.92000,-0.38000
041225_04.42.06.562,-0.02500,-0.00200,1.00200,0.08700,-0.14000,0.00000,0.56000,0.45200,-1.30700,79.48000,0.56000
041225_04.42.06.574,-0.02500,-0.00200,1.00500,0.08700,-0.14000,0.00000,0.56000,0.45400,-1.30900,79.44000,-0.04000
041225_04.42.06.585,-0.02300,-0.00100,1.00100,0.10500,-0.12300,-0.03500,0.56900,0.45400,-1.31500,78.88000,-0.56000
041225_04.42.06.597,-0.02500,-0.00200,1.00300,0.12300,-0.12300,-0.01800,0.56700,0.45400,-1.31300,78.14000,-0.74000
041225_04.42.06.608,-0.02500,-0.00100,1.00300,0.10500,-0.10500,-0.01800,0.56700,0.45400,-1.31300,79.40000,1.26000
041225_04.42.06.620,-0.02500,-0.00100,1.00100,0.08700,-0.14000,-0.01800,0.57300,0.45300,-1.31600,78.70000,-0.70000
041225_04.42.06.631,-0.02500,-0.00100,1.00400,0.10500,-0.12300,-0.01800,0.57400,0.45500,-1.31100,79.45000,0.75000
041225_04.42.06.643,-0.02400,-0.00200,1.00000,0.10500,-0.12300,-0.03500,0.57700,0.45100,-1.30700,79.05000,-0.40000
041225_04.42.06.654,-0.02400,-0.00100,1.00100,0.08700,-0.08700,-0.01800,0.57700,0.45600,-1.30900,78.91000,-0.14000
041225_04.42.06.665,-0.02500,-0.00000,0.99900,0.08700,-0.10500,-0.01800,0.57500,0.45600,-1.30900,78.87000,-0.04000
041225_04.42.06.677,-0.02600,-0.00200,1.00300,0.08700,-0.12300,-0.03500,0.57000,0.45600,-1.31200,79.36000,0.49000
041225_04.42.06.688,-0.02600,-0.00200,1.00100,0.08700,-0.10500,-0.03500,0.57400,0.45000,-1.30700,78.46000,-0.90000
041225_04.42.06.700,-0.02400,-0.00200,1.00100,0.08700,-0.12300,-0.03500,0.57300,0.45700,-1.31000,79.16000,0.70000
041225_04.42.06.712,-0.02500,-0.00000,1.00400,0.08700,-0.12300,-0.03500,0.57300,0.45700,-1.31000,79.08000,-0.08000
041225_04.42.06.723,-0.02500,-0.00000,1.00100,0.07000,-0.10500,-0.03500,0.56600,0.46000,-1.30900,78.77000,-0.31000
041225_04.42.06.735,-0.02600,-0.00200,1.00400,0.07000,-0.12300,-0.01800,0.56500,0.45700,-1.30900,79.57000,0.80000
041225_04.42.06.746,-0.02600,-0.00300,1.00500,0.07000,-0.10500,-0.01800,0.55900,0.45600,-1.31200,79.46000,-0.11000
041225_04.42.06.758,-0.02200,-0.00100,1.00000,0.07000,-0.14000,-0.03500,0.56500,0.45800,-1.31000,79.10000,-0.36000
041225_04.42.06.769,-0.02600,-0.00200,1.00400,0.08700,-0.12300,-0.03500,0.56500,0.45800,-1.31000,79.02000,-0.08000
041225_04.42.06.781,-0.02500,-0.00100,1.00100,0.10500,-0.14000,-0.05300,0.55500,0.45600,-1.30800,79.13000,0.11000
041225_04.42.06.792,-0.02500,-0.00200,1.00300,0.10500,-0.14000,0.00000,0.55600,0.45400,-1.30800,79.13000,0.00000
041225_04.42.06.803,-0.02500,-0.00200,1.00200,0.08700,-0.14000,-0.01800,0.56100,0.45600,-1.30900,78.64000,-0.49000
041225_04.42.06.815,-0.02400,-0.00200,1.00100,0.10500,-0.12300,-0.01800,0.56100,0.45600,-1.30500,79.54000,0.90000
041225_04.42.06.826,-0.02500,-0.00100,1.00200,0.12300,-0.12300,-0.01800,0.55700,0.45600,-1.30500,79.00000,-0.54000
041225_04.42.06.838,-0.02500,-0.00100,1.00200,0.12300,-0.10500,-0.03500,0.55800,0.46200,-1.30700,79.15000,0.15000
041225_04.42.06.850,-0.02600,-0.00100,1.00400,0.10500,-0.10500,-0.03500,0.55900,0.45900,-1.30800,79.29000,0.14000
041225_04.42.06.861,-0.02200,-0.00100,1.00100,0.08700,-0.12300,0.00000,0.56400,0.46000,-1.31300,79.05000,-0.24000
041225_04.42.06.872,-0.02700,-0.00100,1.00300,0.08700,-0.12300,0.00000,0.56400,0.46000,-1.31300,79.03000,-0.02000
041225_04.42.06.884,-0.02400,-0.00100,1.00400,0.08700,-0.14000,0.00000,0.56300,0.45600,-1.30600,79.06000,0.03000
041225_04.42.06.895,-0.02500,-0.00200,1.00000,0.10500,-0.12300,-0.01800,0.57200,0.45700,-1.31300,79.15000,0.09000
041225_04.42.06.907,-0.02600,-0.00200,1.00400,0.10500,-0.10500,0.00000,0.57200,0.45600,-1.31100,78.87000,-0.28000
041225_04.42.06.918,-0.02500,-0.00300,1.00200,0.10500,-0.10500,-0.01800,0.57300,0.45600,-1.31100,79.00000,0.13000
041225_04.42.06.930,-0.02600,-0.00100,1.00400,0.10500,-0.10500,-0.01800,0.57300,0.45600,-1.31100,79.26000,0.26000
041225_04.42.06.941,-0.02500,-0.00200,1.00300,0.10500,-0.10500,-0.01800,0.57600,0.45800,-1.30600,79.03000,-0.23000
041225_04.42.06.953,-0.02500,-0.00100,0.99800,0.10500,-0.12300,-0.01800,0.57600,0.45700,-1.31000,79.44000,0.41000
041225_04.42.06.964,-0.02600,-0.00200,1.00300,0.07000,-0.12300,-0.01800,0.56900,0.45500,-1.31300,79.27000,-0.17000
041225_04.42.06.976,-0.02600,-0.00100,1.00300,0.08700,-0.15700,0.00000,0.56900,0.45500,-1.30200,79.60000,0.33000
041225_04.42.06.987,-0.02700,-0.00300,1.00300,0.07000,-0.14000,-0.01800,0.57100,0.45900,-1.30200,79.14000,-0.46000
041225_04.42.06.998,-0.02500,-0.00200,1.00100,0.08700,-0.14000,-0.01800,0.57100,0.45600,-1.30600,79.21000,0.07000
041225_04.42.07.010,-0.02600,-0.00200,1.00400,0.08700,-0.14000,-0.01800,0.56700,0.45700,-1.31100,79.18000,-0.03000
041225_04.42.07.021,-0.02600,-0.00100,1.00400,0.07000,-0.14000,-0.01800,0.56600,0.46000,-1.29800,79.39000,0.21000
041225_04.42.07.033,-0.02500,-0.00100,1.00100,0.08700,-0.15700,0.00000,0.56600,0.46000,-1.29800,78.97000,-0.42000
041225_04.42.07.044,-0.02400,-0.00200,1.00400,0.08700,-0.14000,-0.03500,0.55900,0.45800,-1.30600,79.91000,0.94000
041225_04.42.07.056,-0.02400,-0.00100,1.00000,0.08700,-0.12300,-0.01800,0.55700,0.45600,-1.30500,79.37000,-0.54000
041225_04.42.07.067,-0.02500,-0.00200,1.00200,0.08700,-0.12300,-0.01800,0.56000,0.45600,-1.30600,79.69000,0.32000
041225_04.42.07.079,-0.02400,-0.00100,1.00500,0.10500,-0.12300,-0.01800,0.56200,0.45700,-1.30800,78.98000,-0.71000
041225_04.42.07.090,-0.02200,-0.00100,1.00000,0.10500,-0.14000,-0.03500,0.56200,0.45700,-1.30800,79.17000,0.19000
041225_04.42.07.102,-0.02500,-0.00300,1.00400,0.08700,-0.14000,-0.01800,0.56200,0.46000,-1.30600,79.25000,0.08000
041225_04.42.07.113,-0.02200,-0.00100,1.00200,0.10500,-0.12300,-0.01800,0.56400,0.45800,-1.30600,79.15000,-0.10000
041225_04.42.07.125,-0.02200,0.00000,1.00200,0.08700,-0.14000,-0.01800,0.56900,0.46300,-1.30900,78.61000,-0.54000
041225_04.42.07.136,-0.02400,-0.00100,1.00300,0.10500,-0.12300,-0.01800,0.56900,0.46300,-1.31100,79.36000,0.75000
041225_04.42.07.147,-0.02500,-0.00100,1.00300,0.08700,-0.14000,-0.01800,0.57200,0.45300,-1.31100,79.73000,0.37000
041225_04.42.07.159,-0.02200,-0.00100,1.00200,0.10500,-0.14000,-0.01800,0.57300,0.45900,-1.31200,78.84000,-0.89000
041225_04.42.07.170,-0.02400,-0.00000,1.00000,0.10500,-0.12300,-0.03500,0.57400,0.45800,-1.31400,79.68000,0.84000
041225_04.42.07.182,-0.02500,-0.00200,1.00400,0.10500,-0.12300,-0.05300,0.57600,0.46000,-1.30800,78.85000,-0.83000
041225_04.42.07.193,-0.02400,-0.00100,1.00100,0.10500,-0.14000,-0.03500,0.57600,0.46000,-1.30800,78.94000,0.09000
041225_04.42.07.205,-0.02300,0.00000,1.00300,0.08700,-0.12300,-0.01800,0.57900,0.45900,-1.31900,79.23000,0.29000
041225_04.42.07.217,-0.02500,-0.00100,1.00300,0.08700,-0.15700,-0.01800,0.57100,0.45600,-1.31200,79.24000,0.01000
041225_04.42.07.228,-0.02400,-0.00200,1.00100,0.08700,-0.14000,0.00000,0.57400,0.45800,-1.31300,78.79000,-0.45000
041225_04.42.07.240,-0.02600,-0.00200,1.00400,0.08700,-0.12300,-0.01800,0.57400,0.45600,-1.31100,79.30000,0.51000
041225_04.42.07.252,-0.02500,-0.00100,1.00200,0.10500,-0.14000,0.00000,0.57400,0.45600,-1.31100,79.30000,0.00000
041225_04.42.07.263,-0.02500,-0.00100,1.00300,0.08700,-0.14000,0.00000,0.56800,0.45800,-1.30400,78.71000,-0.59000
041225_04.42.07.275,-0.02500,-0.00200,1.00400,0.08700,-0.14000,-0.01800,0.57000,0.45900,-1.31100,79.07000,0.36000
041225_04.42.07.286,-0.02600,-0.00100,1.00200,0.10500,-0.08700,-0.01800,0.56600,0.45700,-1.30800,78.90000,-0.17000
041225_04.42.07.298,-0.02600,-0.00200,1.00400,0.08700,-0.12300,-0.01800,0.56600,0.45700,-1.30700,79.25000,0.35000
041225_04.42.07.310,-0.02400,-0.00100,1.00000,0.07000,-0.12300,-0.01800,0.56500,0.45400,-1.30700,79.43000,0.18000
041225_04.42.07.321,-0.02600,-0.00300,1.00400,0.08700,-0.12300,-0.01800,0.56800,0.46200,-1.30300,79.36000,-0.07000
041225_04.42.07.333,-0.02500,-0.00100,1.00200,0.08700,-0.12300,-0.01800,0.56400,0.45700,-1.31100,79.54000,0.18000
041225_04.42.07.345,-0.02600,-0.00100,1.00300,0.10500,-0.12300,-0.01800,0.55700,0.45800,-1.30900,79.81000,0.27000
041225_04.42.07.356,-0.02600,-0.00300,1.00200,0.05300,-0.12300,-0.01800,0.55700,0.45800,-1.30900,79.07000,-0.74000
041225_04.42.07.368,-0.02500,-0.00200,1.00000,0.08700,-0.12300,0.00000,0.56300,0.46200,-1.30800,78.93000,-0.14000
041225_04.42.07.380,-0.02700,-0.00200,1.00400,0.08700,-0.12300,-0.01800,0.56000,0.45900,-1.31400,78.96000,0.03000
041225_04.42.07.391,-0.02500,-0.00300,1.00100,0.10500,-0.12300,-0.03500,0.56200,0.45300,-1.31500,79.74000,0.78000
041225_04.42.07.403,-0.02500,-0.00100,1.00100,0.08700,-0.14000,-0.01800,0.56100,0.45600,-1.31300,79.37000,-0.37000
041225_04.42.07.414,-0.02600,-0.00300,1.00300,0.08700,-0.12300,-0.01800,0.56100,0.45600,-1.31300,79.93000,0.56000
041225_04.42.07.426,-0.02600,-0.00200,1.00100,0.08700,-0.12300,-0.01800,0.56300,0.45700,-1.31200,78.56000,-1.37000
041225_04.42.07.437,-0.02600,-0.00200,1.00400,0.10500,-0.10500,-0.01800,0.56700,0.45700,-1.31100,79.62000,1.06000
041225_04.42.07.449,-0.02400,-0.00100,1.00200,0.10500,-0.14000,-0.01800,0.56900,0.45800,-1.31100,79.03000,-0.59000
041225_04.42.07.461,-0.02400,-0.00200,1.00500,0.07000,-0.14000,-0.03500,0.56900,0.45800,-1.31100,79.13000,0.10000
041225_04.42.07.472,-0.02500,-0.00200,1.00300,0.08700,-0.14000,-0.03500,0.57100,0.45600,-1.30900,79.15000,0.02000
041225_04.42.07.484,-0.02600,-0.00100,1.00200,0.07000,-0.10500,-0.03500,0.57200,0.45500,-1.31800,79.73000,0.58000
041225_04.42.07.495,-0.02500,-0.00200,1.00300,0.07000,-0.12300,-0.01800,0.57400,0.45700,-1.30900,78.64000,-1.09000
041225_04.42.07.507,-0.02500,-0.00100,1.00000,0.08700,-0.14000,-0.03500,0.58000,0.45300,-1.31600,79.00000,0.36000
041225_04.42.07.519,-0.02500,-0.00100,1.00500,0.10500,-0.12300,-0.03500,0.58000,0.45300,-1.31600,78.90000,-0.10000
041225_04.42.07.530,-0.02600,-0.00100,1.00100,0.05300,-0.12300,-0.03500,0.57700,0.45700,-1.31100,78.68000,-0.22000
041225_04.42.07.542,-0.02400,-0.00100,1.00100,0.08700,-0.12300,-0.01800,0.57200,0.45600,-1.31000,78.68000,0.00000
041225_04.42.07.553,-0.02500,-0.00300,1.00500,0.07000,-0.12300,-0.03500,0.56700,0.45400,-1.30700,79.17000,0.49000
041225_04.42.07.565,-0.02400,-0.00200,1.00000,0.08700,-0.12300,-0.05300,0.56900,0.45700,-1.30500,79.18000,0.01000
041225_04.42.07.577,-0.02400,-0.00200,1.00300,0.07000,-0.10500,-0.01800,0.56900,0.45700,-1.30500,79.83000,0.65000
041225_04.42.07.588,-0.02300,-0.00100,1.00200,0.07000,-0.12300,-0.01800,0.57300,0.45600,-1.30600,79.79000,-0.04000
041225_04.42.07.600,-0.02400,-0.00000,1.00000,0.08700,-0.14000,-0.03500,0.56600,0.45600,-1.30500,79.34000,-0.45000
041225_04.42.07.611,-0.02400,-0.00200,1.00500,0.08700,-0.12300,-0.01800,0.55800,0.45400,-1.30800,79.23000,-0.11000
041225_04.42.07.623,-0.02400,-0.00000,1.00400,0.07000,-0.10500,0.00000,0.55800,0.45400,-1.30800,78.98000,-0.25000
041225_04.42.07.635,-0.02300,-0.00100,1.00200,0.08700,-0.10500,-0.01800,0.56300,0.45800,-1.30800,79.14000,0.16000
041225_04.42.07.646,-0.02500,-0.00100,1.00100,0.08700,-0.12300,-0.01800,0.56200,0.45600,-1.31000,79.01000,-0.13000
041225_04.42.07.658,-0.02600,-0.00200,1.00400,0.10500,-0.14000,-0.01800,0.55600,0.45600,-1.30800,79.65000,0.64000
041225_04.42.07.670,-0.02500,-0.00100,1.00200,0.10500,-0.12300,-0.01800,0.56000,0.46100,-1.30700,79.18000,-0.47000
041225_04.42.07.681,-0.02500,-0.00000,1.00100,0.08700,-0.10500,-0.01800,0.56000,0.46100,-1.30700,79.34000,0.16000
041225_04.42.07.693,-0.02600,-0.00200,1.00400,0.07000,-0.12300,-0.01800,0.56200,0.45600,-1.31000,79.53000,0.19000
041225_04.42.07.705,-0.02500,-0.00000,1.00000,0.07000,-0.14000,-0.01800,0.57000,0.45400,-1.30800,79.65000,0.12000
041225_04.42.07.716,-0.02500,-0.00100,1.00300,0.07000,-0.12300,-0.03500,0.57200,0.45600,-1.30900,79.56000,-0.09000
041225_04.42.07.728,-0.02400,-0.00100,1.00400,0.08700,-0.12300,-0.03500,0.57100,0.45700,-1.30600,79.23000,-0.33000
041225_04.42.07.739,-0.02600,-0.00100,1.00200,0.08700,-0.12300,-0.03500,0.57100,0.45700,-1.30600,79.01000,-0.22000
041225_04.42.07.751,-0.02600,-0.00200,1.00500,0.07000,-0.14000,-0.01800,0.57200,0.45500,-1.30900,79.10000,0.09000
041225_04.42.07.763,-0.02400,-0.00200,1.00100,0.08700,-0.12300,-0.01800,0.57600,0.45100,-1.31100,79.08000,-0.02000
041225_04.42.07.774,-0.02500,-0.00200,1.00200,0.07000,-0.12300,-0.01800,0.57700,0.45900,-1.31100,79.17000,0.09000
041225_04.42.07.786,-0.02600,-0.00200,1.00100,0.07000,-0.10500,-0.01800,0.57700,0.45900,-1.31100,79.41000,0.24000
041225_04.42.07.797,-0.02600,-0.00100,1.00400,0.07000,-0.10500,-0.03500,0.57500,0.45500,-1.31500,79.44000,0.03000
041225_04.42.07.809,-0.02500,-0.00100,1.00100,0.10500,-0.10500,-0.03500,0.57500,0.45800,-1.31600,79.08000,-0.36000
041225_04.42.07.820,-0.02500,-0.00100,1.00000,0.08700,-0.12300,-0.03500,0.57400,0.45600,-1.31400,79.25000,0.17000
041225_04.42.07.832,-0.02600,-0.00200,1.00300,0.07000,-0.10500,-0.03500,0.57100,0.45500,-1.31000,79.55000,0.30000
041225_04.42.07.843,-0.02400,-0.00100,1.00100,0.07000,-0.12300,-0.03500,0.57100,0.45500,-1.31000,79.77000,0.22000
041225_04.42.07.855,-0.02500,-0.00300,1.00300,0.07000,-0.10500,-0.03500,0.56600,0.45400,-1.31100,78.32000,-1.45000
041225_04.42.07.866,-0.02400,-0.00100,1.00200,0.08700,-0.12300,-0.03500,0.57000,0.45400,-1.30900,79.60000,1.28000
041225_04.42.07.878,-0.02500,-0.00200,1.00000,0.10500,-0.12300,-0.01800,0.56300,0.45800,-1.30400,78.99000,-0.61000
041225_04.42.07.889,-0.02400,-0.00200,1.00500,0.10500,-0.14000,0.00000,0.56500,0.45200,-1.30800,78.96000,-0.03000
041225_04.42.07.901,-0.02500,-0.00100,1.00100,0.08700,-0.14000,-0.01800,0.56500,0.45200,-1.30800,79.35000,0.39000
041225_04.42.07.912,-0.02500,-0.00300,1.00200,0.07000,-0.12300,-0.03500,0.56100,0.45700,-1.30800,79.09000,-0.26000
041225_04.42.07.923,-0.02600,-0.00200,1.00300,0.08700,-0.12300,-0.03500,0.55600,0.45800,-1.31100,79.44000,0.35000
041225_04.42.07.935,-0.02500,-0.00100,1.00100,0.10500,-0.14000,-0.01800,0.55500,0.45700,-1.31100,78.59000,-0.85000
041225_04.42.07.946,-0.02500,-0.00200,1.00200,0.10500,-0.14000,-0.01800,0.55500,0.45700,-1.31100,79.02000,0.43000
041225_04.42.07.958,-0.02400,-0.00100,1.00200,0.10500,-0.12300,0.00000,0.56100,0.45800,-1.30500,78.54000,-0.48000
041225_04.42.07.969,-0.02600,-0.00100,1.00400,0.10500,-0.14000,0.00000,0.56200,0.45600,-1.31700,79.32000,0.78000
041225_04.42.07.981,-0.02400,-0.00100,1.00100,0.10500,-0.14000,-0.01800,0.56300,0.45400,-1.31000,79.38000,0.06000
041225_04.42.07.992,-0.02500,-0.00200,1.00400,0.10500,-0.10500,-0.01800,0.56500,0.46100,-1.31300,79.12000,-0.26000
041225_04.42.08.003,-0.02400,-0.00100,1.00100,0.08700,-0.14000,-0.01800,0.56500,0.46100,-1.31300,79.34000,0.22000
041225_04.42.08.015,-0.02500,-0.00200,1.00100,0.10500,-0.10500,-0.01800,0.56900,0.45900,-1.31100,78.46000,-0.88000
041225_04.42.08.026,-0.02600,-0.00200,1.00300,0.08700,-0.10500,-0.01800,0.56900,0.45900,-1.31300,79.37000,0.91000
041225_04.42.08.038,-0.02500,-0.00200,0.99900,0.10500,-0.10500,0.00000,0.57700,0.46200,-1.31300,79.45000,0.08000
041225_04.42.08.049,-0.02500,-0.00100,1.00200,0.08700,-0.12300,0.00000,0.57600,0.45800,-1.31500,79.37000,-0.08000
041225_04.42.08.061,-0.02400,-0.00100,1.00400,0.08700,-0.14000,-0.03500,0.57600,0.45800,-1.31500,79.27000,-0.10000
041225_04.42.08.073,-0.02300,-0.00100,1.00100,0.08700,-0.12300,-0.03500,0.57700,0.45700,-1.31200,78.80000,-0.47000
041225_04.42.08.084,-0.02500,-0.00100,1.00300,0.07000,-0.14000,-0.03500,0.57900,0.45700,-1.31500,78.98000,0.18000
041225_04.42.08.096,-0.02500,-0.00100,1.00100,0.07000,-0.10500,-0.03500,0.57300,0.45800,-1.30800,79.14000,0.16000
041225_04.42.08.107,-0.02500,-0.00300,1.00500,0.08700,-0.14000,-0.03500,0.57300,0.45800,-1.30800,78.93000,-0.21000
041225_04.42.08.119,-0.02400,-0.00100,1.00200,0.10500,-0.14000,-0.01800,0.57300,0.45700,-1.31100,79.07000,0.14000
041225_04.42.08.131,-0.02500,-0.00300,1.00300,0.08700,-0.14000,-0.03500,0.57000,0.45800,-1.31000,79.05000,-0.02000
041225_04.42.08.142,-0.02200,-0.00200,1.00300,0.08700,-0.17500,-0.03500,0.56700,0.45700,-1.30500,78.53000,-0.52000
041225_04.42.08.154,-0.02600,-0.00300,1.00100,0.07000,-0.12300,-0.03500,0.56600,0.45600,-1.31200,79.65000,1.12000
041225_04.42.08.165,-0.02600,-0.00200,1.00600,0.08700,-0.12300,-0.01800,0.56600,0.45600,-1.31200,78.95000,-0.70000
041225_04.42.08.177,-0.02400,-0.00100,1.00000,0.07000,-0.14000,-0.03500,0.56400,0.46000,-1.30000,79.08000,0.13000
041225_04.42.08.189,-0.02400,-0.00200,1.00300,0.05300,-0.15700,-0.03500,0.56200,0.46100,-1.30000,79.10000,0.02000
041225_04.42.08.200,-0.02300,-0.00100,1.00300,0.08700,-0.15700,-0.01800,0.56600,0.46100,-1.30100,79.56000,0.46000
041225_04.42.08.212,-0.02500,-0.00200,1.00000,0.08700,-0.14000,-0.03500,0.56000,0.45800,-1.31000,79.68000,0.12000
041225_04.42.08.223,-0.02400,-0.00100,1.00400,0.08700,-0.14000,-0.03500,0.56000,0.45800,-1.31000,79.16000,-0.52000
041225_04.42.08.235,-0.02300,-0.00300,0.99900,0.10500,-0.12300,-0.03500,0.56200,0.45900,-1.31300,79.31000,0.15000
041225_04.42.08.247,-0.02500,0.00000,1.00200,0.10500,-0.10500,-0.01800,0.55700,0.46300,-1.30800,79.56000,0.25000
041225_04.42.08.258,-0.02500,-0.00200,1.00300,0.08700,-0.10500,-0.05300,0.56200,0.45800,-1.30400,79.36000,-0.20000
041225_04.42.08.270,-0.02500,-0.00200,1.00300,0.08700,-0.15700,-0.03500,0.56200,0.45800,-1.30400,79.80000,0.44000
041225_04.42.08.282,-0.02500,-0.00100,1.00100,0.10500,-0.12300,-0.01800,0.56700,0.46100,-1.31000,78.66000,-1.14000
041225_04.42.08.293,-0.02500,-0.00100,1.00100,0.10500,-0.14000,-0.01800,0.56700,0.46100,-1.31200,78.81000,0.15000
041225_04.42.08.305,-0.02400,-0.00200,1.00500,0.08700,-0.12300,-0.01800,0.57100,0.46100,-1.31000,79.35000,0.54000
041225_04.42.08.317,-0.02400,-0.00200,1.00100,0.10500,-0.14000,-0.03500,0.57200,0.46100,-1.31300,78.84000,-0.51000
041225_04.42.08.328,-0.02500,-0.00200,1.00400,0.10500,-0.12300,-0.01800,0.57200,0.46100,-1.31300,79.39000,0.55000
041225_04.42.08.340,-0.02500,-0.00100,1.00300,0.08700,-0.12300,0.00000,0.57600,0.45800,-1.31600,79.77000,0.38000
041225_04.42.08.351,-0.02500,-0.00100,1.00100,0.10500,-0.14000,-0.01800,0.57600,0.46000,-1.31300,78.93000,-0.84000
041225_04.42.08.363,-0.02700,-0.00200,1.00400,0.10500,-0.14000,0.00000,0.57600,0.46300,-1.31200,79.49000,0.56000
041225_04.42.08.374,-0.02600,-0.00200,1.00100,0.08700,-0.15700,-0.01800,0.57600,0.46200,-1.31600,79.71000,0.22000
041225_04.42.08.386,-0.02500,-0.00200,1.00200,0.08700,-0.12300,-0.03500,0.57600,0.46200,-1.31600,79.54000,-0.17000
041225_04.42.08.397,-0.02600,-0.00300,1.00400,0.08700,-0.12300,-0.05300,0.57700,0.46000,-1.31100,78.99000,-0.55000
041225_04.42.08.409,-0.02500,-0.00100,1.00000,0.10500,-0.12300,-0.01800,0.57300,0.45900,-1.31300,79.87000,0.88000
041225_04.42.08.420,-0.02700,-0.00300,1.00300,0.08700,-0.10500,-0.01800,0.57100,0.46000,-1.30600,78.82000,-1.05000
041225_04.42.08.432,-0.02600,-0.00200,1.00100,0.08700,-0.12300,-0.01800,0.57100,0.46000,-1.30600,79.23000,0.41000
041225_04.42.08.443,-0.02700,-0.00200,1.00500,0.08700,-0.12300,-0.03500,0.56800,0.46100,-1.30700,78.75000,-0.48000
041225_04.42.08.455,-0.02500,0.00000,1.00000,0.08700,-0.12300,-0.01800,0.56700,0.46100,-1.30600,79.60000,0.85000
041225_04.42.08.466,-0.02700,-0.00200,1.00300,0.10500,-0.10500,-0.01800,0.56400,0.46300,-1.30800,79.44000,-0.16000
041225_04.42.08.478,-0.02500,-0.00000,1.00400,0.10500,-0.12300,-0.01800,0.55800,0.46000,-1.30300,78.53000,-0.91000
041225_04.42.08.490,-0.02500,-0.00100,1.00100,0.10500,-0.12300,-0.03500,0.55800,0.46000,-1.30300,79.03000,0.50000
041225_04.42.08.501,-0.02500,-0.00100,1.00500,0.12300,-0.15700,-0.01800,0.55200,0.46000,-1.30500,79.21000,0.18000
041225_04.42.08.513,-0.02500,-0.00100,1.00000,0.08700,-0.15700,0.00000,0.55900,0.46100,-1.30400,78.69000,-0.52000
041225_04.42.08.524,-0.02600,-0.00000,1.00100,0.08700,-0.14000,-0.01800,0.55500,0.45700,-1.30700,79.38000,0.69000
041225_04.42.08.536,-0.02400,-0.00100,1.00400,0.08700,-0.15700,-0.01800,0.56200,0.46300,-1.31100,79.36000,-0.02000
041225_04.42.08.548,-0.02400,-0.00000,1.00100,0.10500,-0.15700,-0.01800,0.56200,0.46300,-1.31100,79.42000,0.06000
041225_04.42.08.559,-0.02500,-0.00200,1.00300,0.07000,-0.15700,-0.01800,0.56400,0.46000,-1.31200,79.51000,0.09000
041225_04.42.08.571,-0.02600,-0.00100,1.00200,0.07000,-0.14000,-0.01800,0.56600,0.46200,-1.30800,78.71000,-0.80000
041225_04.42.08.583,-0.02500,-0.00100,1.00200,0.12300,-0.14000,0.00000,0.56900,0.46200,-1.30700,79.07000,0.36000
041225_04.42.08.594,-0.02300,-0.00000,1.00200,0.10500,-0.15700,-0.01800,0.56900,0.46200,-1.30700,79.60000,0.53000
041225_04.42.08.606,-0.02600,-0.00200,1.00300,0.08700,-0.10500,-0.01800,0.57400,0.46200,-1.31200,79.47000,-0.13000
041225_04.42.08.617,-0.02400,-0.00200,1.00300,0.08700,-0.12300,0.00000,0.57400,0.46400,-1.31200,78.98000,-0.49000
041225_04.42.08.629,-0.02400,-0.00200,1.00100,0.07000,-0.14000,-0.01800,0.57500,0.46400,-1.31500,79.05000,0.07000
041225_04.42.08.640,-0.02400,-0.00300,1.00300,0.12300,-0.12300,-0.03500,0.57400,0.46200,-1.30500,78.94000,-0.11000
041225_04.42.08.652,-0.02600,-0.00300,1.00000,0.10500,-0.12300,-0.01800,0.57400,0.46200,-1.30500,78.64000,-0.30000
041225_04.42.08.664,-0.02500,-0.00300,1.00300,0.08700,-0.12300,0.00000,0.57200,0.46200,-1.31700,79.24000,0.60000
041225_04.42.08.675,-0.02500,-0.00100,1.00200,0.10500,-0.12300,-0.01800,0.56800,0.46000,-1.31300,79.16000,-0.08000
041225_04.42.08.687,-0.02400,-0.00200,1.00100,0.10500,-0.10500,0.00000,0.57100,0.46600,-1.31500,79.06000,-0.10000
041225_04.42.08.699,-0.02400,-0.00300,1.00300,0.10500,-0.14000,0.00000,0.56900,0.46000,-1.30800,79.33000,0.27000
041225_04.42.08.710,-0.02400,-0.00200,1.00100,0.07000,-0.12300,-0.01800,0.56900,0.46000,-1.30800,78.48000,-0.85000
041225_04.42.08.722,-0.02400,-0.00200,1.00200,0.07000,-0.08700,-0.01800,0.56500,0.45900,-1.30600,78.48000,0.00000
041225_04.42.08.733,-0.02500,-0.00200,1.00500,0.10500,-0.12300,-0.01800,0.56800,0.46400,-1.30900,79.91000,1.43000
041225_04.42.08.745,-0.02300,-0.00100,1.00100,0.10500,-0.12300,-0.03500,0.56200,0.46200,-1.30900,79.65000,-0.26000
041225_04.42.08.757,-0.02500,-0.00300,1.00300,0.10500,-0.14000,-0.03500,0.56200,0.46200,-1.30900,78.79000,-0.86000
041225_04.42.08.768,-0.02500,-0.00200,1.00000,0.10500,-0.12300,-0.03500,0.56400,0.46400,-1.31800,79.03000,0.24000
041225_04.42.08.780,-0.02600,-0.00200,1.00300,0.10500,-0.14000,-0.01800,0.55900,0.46300,-1.30800,79.22000,0.19000
041225_04.42.08.791,-0.02400,-0.00100,1.00000,0.07000,-0.14000,-0.01800,0.56200,0.46300,-1.31200,79.38000,0.16000
041225_04.42.08.803,-0.02500,-0.00300,1.00400,0.08700,-0.14000,-0.01800,0.55600,0.46100,-1.30700,79.57000,0.19000
041225_04.42.08.814,-0.02600,-0.00100,1.00300,0.08700,-0.14000,-0.01800,0.55600,0.46100,-1.30700,79.28000,-0.29000
041225_04.42.08.826,-0.02300,-0.00000,1.00000,0.08700,-0.14000,-0.03500,0.55900,0.46300,-1.30500,79.41000,0.13000
041225_04.42.08.837,-0.02600,-0.00200,1.00500,0.08700,-0.12300,-0.01800,0.56300,0.46200,-1.30300,78.94000,-0.47000
041225_04.42.08.849,-0.02500,-0.00200,1.00100,0.08700,-0.12300,-0.01800,0.56900,0.45800,-1.30800,79.06000,0.12000
041225_04.42.08.860,-0.02500,-0.00100,1.00200,0.08700,-0.14000,-0.01800,0.56500,0.46400,-1.31400,79.30000,0.24000
041225_04.42.08.872,-0.02500,-0.00200,1.00500,0.10500,-0.14000,-0.03500,0.56500,0.46400,-1.31400,79.14000,-0.16000
041225_04.42.08.883,-0.02400,-0.00000,1.00000,0.08700,-0.12300,-0.01800,0.57000,0.46400,-1.30500,79.23000,0.09000
041225_04.42.08.895,-0.02600,-0.00200,1.00300,0.08700,-0.12300,-0.01800,0.57200,0.45900,-1.30500,79.54000,0.31000
041225_04.42.08.906,-0.02600,-0.00200,1.00100,0.08700,-0.14000,-0.03500,0.57300,0.46100,-1.31500,79.71000,0.17000
041225_04.42.08.918,-0.02600,-0.00200,1.00200,0.10500,-0.12300,-0.01800,0.57300,0.46100,-1.31500,78.87000,-0.84000
041225_04.42.08.929,-0.02500,-0.00200,0.99800,0.08700,-0.14000,-0.03500,0.57200,0.45600,-1.32100,79.03000,0.16000
041225_04.42.08.941,-0.02600,-0.00100,1.00300,0.10500,-0.12300,-0.01800,0.56700,0.46000,-1.31300,79.39000,0.36000
041225_04.42.08.953,-0.02500,-0.00000,1.00400,0.10500,-0.12300,-0.03500,0.56800,0.46100,-1.31400,79.42000,0.03000
041225_04.42.08.964,-0.02300,-0.00100,1.00000,0.08700,-0.12300,-0.01800,0.57400,0.46100,-1.31800,79.32000,-0.10000
041225_04.42.08.976,-0.02700,-0.00200,1.00300,0.10500,-0.12300,0.00000,0.57400,0.46100,-1.31800,78.88000,-0.44000
041225_04.42.08.987,-0.02500,-0.00200,1.00200,0.08700,-0.14000,-0.01800,0.56800,0.45700,-1.32000,78.96000,0.08000
041225_04.42.08.999,-0.02500,-0.00100,1.00300,0.12300,-0.12300,-0.03500,0.56600,0.46100,-1.31300,79.13000,0.17000
041225_04.42.09.011,-0.02500,-0.00200,1.00300,0.10500,-0.12300,-0.01800,0.56400,0.46000,-1.31200,78.96000,-0.17000
041225_04.42.09.022,-0.02400,-0.00000,1.00100,0.08700,-0.12300,-0.03500,0.56600,0.45800,-1.31100,80.08000,1.12000
041225_04.42.09.034,-0.02500,-0.00200,1.00500,0.08700,-0.10500,-0.01800,0.56600,0.45800,-1.31100,79.10000,-0.98000
041225_04.42.09.046,-0.02500,-0.00100,1.00300,0.10500,-0.12300,-0.03500,0.56600,0.46300,-1.31200,78.94000,-0.16000
041225_04.42.09.057,-0.02400,-0.00100,1.00200,0.08700,-0.14000,-0.03500,0.55500,0.46000,-1.31500,79.02000,0.08000
041225_04.42.09.069,-0.02600,-0.00200,1.00300,0.08700,-0.12300,-0.01800,0.55300,0.46000,-1.31000,78.99000,-0.03000
041225_04.42.09.080,-0.02500,-0.00200,1.00400,0.08700,-0.12300,-0.01800,0.55300,0.46000,-1.31000,79.35000,0.36000
041225_04.42.09.092,-0.02500,-0.00200,1.00300,0.08700,-0.14000,-0.01800,0.55600,0.46000,-1.31400,78.94000,-0.41000
041225_04.42.09.104,-0.02300,-0.00200,1.00000,0.08700,-0.14000,-0.01800,0.55800,0.46000,-1.31200,79.08000,0.14000
041225_04.42.09.115,-0.02600,-0.00200,1.00200,0.07000,-0.12300,-0.01800,0.55700,0.46100,-1.31100,78.96000,-0.12000
041225_04.42.09.127,-0.02400,-0.00200,1.00200,0.08700,-0.08700,-0.03500,0.56100,0.45900,-1.31000,79.40000,0.44000
041225_04.42.09.139,-0.02400,-0.00200,1.00200,0.08700,-0.10500,-0.01800,0.56100,0.45900,-1.31000,79.18000,-0.22000
041225_04.42.09.150,-0.02500,-0.00300,1.00200,0.08700,-0.14000,-0.01800,0.56500,0.46300,-1.31700,79.06000,-0.12000
041225_04.42.09.162,-0.02300,-0.00100,0.99900,0.08700,-0.10500,-0.01800,0.57000,0.46200,-1.31000,79.65000,0.59000
041225_04.42.09.173,-0.02500,-0.00100,1.00300,0.10500,-0.12300,-0.01800,0.57400,0.45900,-1.31200,78.98000,-0.67000
041225_04.42.09.185,-0.02400,-0.00200,1.00200,0.08700,-0.12300,-0.05300,0.57200,0.46100,-1.31700,79.28000,0.30000
041225_04.42.09.197,-0.02300,-0.00100,1.00100,0.08700,-0.12300,-0.03500,0.57200,0.46100,-1.31700,79.27000,-0.01000
041225_04.42.09.208,-0.02500,-0.00300,1.00200,0.08700,-0.10500,-0.01800,0.57200,0.46100,-1.31600,78.63000,-0.64000
041225_04.42.09.220,-0.02500,-0.00200,1.00000,0.10500,-0.12300,-0.03500,0.57300,0.46000,-1.31100,78.94000,0.31000
041225_04.42.09.231,-0.02500,-0.00000,1.00100,0.10500,-0.10500,-0.01800,0.57200,0.45900,-1.31400,78.69000,-0.25000
041225_04.42.09.243,-0.02500,-0.00000,0.99900,0.10500,-0.12300,-0.01800,0.57200,0.45900,-1.31400,79.62000,0.93000
041225_04.42.09.254,-0.02400,-0.00000,1.00300,0.08700,-0.14000,0.00000,0.56800,0.46300,-1.32000,79.50000,-0.12000
041225_04.42.09.266,-0.02500,-0.00300,1.00100,0.10500,-0.14000,-0.01800,0.56700,0.46300,-1.30900,78.76000,-0.74000
041225_04.42.09.277,-0.02600,-0.00100,1.00300,0.10500,-0.12300,0.00000,0.56300,0.46000,-1.31600,78.84000,0.08000
041225_04.42.09.289,-0.02600,-0.00300,1.00200,0.07000,-0.12300,-0.01800,0.56100,0.45900,-1.31500,78.82000,-0.02000
041225_04.42.09.300,-0.02400,-0.00000,1.00000,0.08700,-0.12300,-0.01800,0.56100,0.45900,-1.31500,79.29000,0.47000
041225_04.42.09.312,-0.02700,-0.00200,1.00400,0.10500,-0.12300,-0.01800,0.55900,0.46100,-1.31100,79.04000,-0.25000
041225_04.42.09.323,-0.02500,-0.00100,1.00300,0.10500,-0.12300,-0.03500,0.55200,0.46200,-1.31200,79.24000,0.20000
041225_04.42.09.335,-0.02400,-0.00100,1.00100,0.10500,-0.10500,-0.01800,0.55200,0.46100,-1.30900,79.28000,0.04000
041225_04.42.09.347,-0.02400,-0.00200,1.00500,0.10500,-0.12300,0.00000,0.55600,0.46000,-1.31500,79.30000,0.02000
041225_04.42.09.358,-0.02600,-0.00100,1.00100,0.10500,-0.08700,-0.01800,0.55600,0.46000,-1.31500,79.35000,0.05000
041225_04.42.09.370,-0.02500,-0.00200,1.00300,0.10500,-0.10500,-0.01800,0.55100,0.45900,-1.30700,79.32000,-0.03000
041225_04.42.09.382,-0.02500,-0.00000,1.00300,0.10500,-0.12300,-0.01800,0.55800,0.45900,-1.30600,78.44000,-0.88000
041225_04.42.09.393,-0.02500,-0.00100,1.00400,0.12300,-0.14000,-0.01800,0.55700,0.45600,-1.30500,79.02000,0.58000
041225_04.42.09.405,-0.02400,-0.00200,1.00000,0.10500,-0.10500,-0.01800,0.55700,0.45600,-1.30500,78.93000,-0.09000
041225_04.42.09.416,-0.02500,-0.00100,1.00100,0.08700,-0.12300,-0.03500,0.56100,0.45900,-1.30900,79.46000,0.53000
041225_04.42.09.428,-0.02500,-0.00200,1.00300,0.08700,-0.12300,-0.03500,0.57000,0.45800,-1.31200,79.60000,0.14000
041225_04.42.09.439,-0.02300,-0.00200,1.00000,0.08700,-0.12300,-0.01800,0.56600,0.46000,-1.31200,79.04000,-0.56000
041225_04.42.09.451,-0.02500,-0.00200,1.00500,0.08700,-0.12300,-0.01800,0.56500,0.45700,-1.31600,79.19000,0.15000
041225_04.42.09.463,-0.02500,-0.00100,1.00300,0.08700,-0.15700,-0.01800,0.56500,0.45700,-1.31600,79.35000,0.16000
041225_04.42.09.474,-0.02400,-0.00100,1.00200,0.08700,-0.14000,-0.01800,0.57000,0.46000,-1.30700,79.19000,-0.16000
041225_04.42.09.486,-0.02500,-0.00100,1.00300,0.08700,-0.14000,-0.01800,0.57600,0.46000,-1.31500,79.45000,0.26000
041225_04.42.09.497,-0.02400,-0.00200,1.00200,0.10500,-0.14000,-0.01800,0.57500,0.45800,-1.31800,79.10000,-0.35000
041225_04.42.09.509,-0.02400,-0.00200,1.00400,0.12300,-0.14000,0.00000,0.57100,0.46100,-1.31000,79.43000,0.33000
041225_04.42.09.520,-0.02600,-0.00000,1.00100,0.08700,-0.14000,-0.03500,0.57100,0.46100,-1.31000,78.52000,-0.91000
041225_04.42.09.532,-0.02400,-0.00200,1.00100,0.08700,-0.12300,-0.01800,0.57000,0.46100,-1.31000,79.16000,0.64000
041225_04.42.09.543,-0.02600,-0.00100,1.00400,0.10500,-0.15700,-0.01800,0.57100,0.46100,-1.31200,78.75000,-0.41000
041225_04.42.09.555,-0.02500,-0.00200,1.00100,0.10500,-0.14000,-0.01800,0.56900,0.46300,-1.30200,79.15000,0.40000
041225_04.42.09.566,-0.02500,-0.00200,1.00200,0.08700,-0.12300,-0.01800,0.56900,0.46300,-1.30200,79.11000,-0.04000
041225_04.42.09.578,-0.02300,-0.00200,1.00100,0.08700,-0.12300,-0.01800,0.56500,0.46000,-1.30800,79.15000,0.04000
041225_04.42.09.589,-0.02500,-0.00200,1.00400,0.07000,-0.12300,-0.01800,0.56200,0.46000,-1.31000,78.82000,-0.33000
041225_04.42.09.601,-0.02400,-0.00200,1.00100,0.08700,-0.10500,-0.03500,0.56200,0.46500,-1.30400,78.76000,-0.06000
041225_04.42.09.612,-0.02400,-0.00100,1.00100,0.08700,-0.10500,-0.03500,0.55700,0.46000,-1.31100,79.07000,0.31000
041225_04.42.09.624,-0.02400,-0.00200,1.00200,0.08700,-0.12300,-0.03500,0.55700,0.46000,-1.31100,79.05000,-0.02000
041225_04.42.09.635,-0.02400,-0.00100,1.00000,0.10500,-0.12300,-0.03500,0.55800,0.46300,-1.31300,79.57000,0.52000
041225_04.42.09.647,-0.02500,-0.00300,1.00400,0.08700,-0.15700,-0.01800,0.55200,0.46000,-1.30900,79.03000,-0.54000
041225_04.42.09.658,-0.02500,-0.00200,1.00200,0.10500,-0.12300,-0.01800,0.56100,0.45900,-1.30700,79.16000,0.13000
041225_04.42.09.670,-0.02400,-0.00200,0.99900,0.10500,-0.10500,0.00000,0.55800,0.46100,-1.31100,79.17000,0.01000
041225_04.42.09.681,-0.02500,-0.00200,1.00400,0.08700,-0.12300,0.00000,0.55800,0.46100,-1.31100,79.22000,0.05000
041225_04.42.09.693,-0.02500,-0.00200,1.00100,0.08700,-0.12300,-0.01800,0.55900,0.45800,-1.31100,78.85000,-0.37000
041225_04.42.09.704,-0.02600,-0.00100,1.00200,0.12300,-0.15700,-0.03500,0.56700,0.46100,-1.30800,79.36000,0.51000
041225_04.42.09.716,-0.02500,-0.00100,1.00100,0.08700,-0.14000,0.00000,0.56600,0.46000,-1.30600,77.99000,-1.37000
041225_04.42.09.727,-0.02500,-0.00100,1.00400,0.08700,-0.15700,-0.01800,0.56600,0.46000,-1.30600,79.69000,1.70000
041225_04.42.09.739,-0.02500,-0.00100,1.00200,0.08700,-0.15700,-0.01800,0.56400,0.45700,-1.30900,78.80000,-0.89000
041225_04.42.09.750,-0.02400,-0.00000,1.00200,0.08700,-0.14000,-0.03500,0.56600,0.46000,-1.31500,78.98000,0.18000
041225_04.42.09.762,-0.02400,-0.00100,1.00400,0.10500,-0.14000,-0.01800,0.56800,0.45900,-1.31300,78.56000,-0.42000
041225_04.42.09.774,-0.02500,-0.00100,1.00100,0.08700,-0.14000,-0.03500,0.57300,0.45800,-1.30900,78.80000,0.24000
041225_04.42.09.785,-0.02500,-0.00300,1.00500,0.08700,-0.10500,-0.01800,0.57300,0.45800,-1.30900,79.40000,0.60000
041225_04.42.09.797,-0.02500,-0.00000,1.00100,0.10500,-0.10500,-0.03500,0.56800,0.45600,-1.31800,79.28000,-0.12000
041225_04.42.09.808,-0.02400,-0.00200,1.00100,0.08700,-0.12300,-0.03500,0.57200,0.45900,-1.31300,79.02000,-0.26000
041225_04.42.09.820,-0.02400,-0.00100,1.00500,0.08700,-0.10500,-0.05300,0.56700,0.45700,-1.31500,78.79000,-0.23000
041225_04.42.09.831,-0.02400,-0.00200,1.00100,0.08700,-0.12300,-0.01800,0.57000,0.45800,-1.30500,79.15000,0.36000
041225_04.42.09.843,-0.02400,-0.00200,1.00300,0.08700,-0.10500,-0.03500,0.57000,0.45800,-1.30500,78.80000,-0.35000
041225_04.42.09.854,-0.02500,-0.00200,1.00300,0.08700,-0.08700,-0.05300,0.57100,0.45500,-1.30800,78.81000,0.01000
041225_04.42.09.866,-0.02400,-0.00100,1.00000,0.08700,-0.10500,-0.01800,0.56800,0.45600,-1.30600,79.23000,0.42000
041225_04.42.09.877,-0.02500,-0.00100,1.00100,0.08700,-0.14000,-0.03500,0.56000,0.46200,-1.30900,79.58000,0.35000
041225_04.42.09.889,-0.02400,-0.00100,1.00100,0.08700,-0.12300,-0.03500,0.56000,0.46200,-1.30900,79.33000,-0.25000
041225_04.42.09.900,-0.02500,-0.00300,1.00300,0.08700,-0.12300,-0.01800,0.55400,0.45800,-1.30600,79.17000,-0.16000
041225_04.42.09.912,-0.02400,0.00000,1.00100,0.08700,-0.14000,-0.01800,0.56400,0.45200,-1.31300,79.61000,0.44000
041225_04.42.09.923,-0.02300,-0.00100,1.00300,0.08700,-0.12300,-0.01800,0.55700,0.45900,-1.31100,79.45000,-0.16000
041225_04.42.09.935,-0.02500,-0.00000,1.00200,0.10500,-0.10500,-0.05300,0.55600,0.45800,-1.31200,78.94000,-0.51000
041225_04.42.09.946,-0.02400,-0.00100,1.00000,0.10500,-0.14000,-0.03500,0.55600,0.45800,-1.31200,79.30000,0.36000
041225_04.42.09.958,-0.02500,-0.00200,1.00300,0.08700,-0.12300,-0.01800,0.56000,0.45900,-1.31000,79.44000,0.14000
041225_04.42.09.969,-0.02500,-0.00100,1.00100,0.08700,-0.12300,-0.01800,0.56200,0.46100,-1.31100,79.37000,-0.07000
041225_04.42.09.981,-0.02500,-0.00100,1.00200,0.07000,-0.12300,0.00000,0.56400,0.45900,-1.31200,78.91000,-0.46000
041225_04.42.09.993,-0.02600,-0.00100,1.00300,0.10500,-0.12300,-0.01800,0.56900,0.45900,-1.31600,79.28000,0.37000
041225_04.42.10.004,-0.02400,-0.00200,1.00000,0.08700,-0.12300,-0.01800,0.56900,0.45900,-1.31600,78.80000,-0.48000
041225_04.42.10.016,-0.02400,-0.00100,1.00500,0.08700,-0.14000,-0.01800,0.57000,0.45700,-1.31200,79.39000,0.59000
041225_04.42.10.028,-0.02500,-0.00200,1.00100,0.10500,-0.12300,-0.01800,0.57200,0.45800,-1.31200,79.15000,-0.24000
041225_04.42.10.039,-0.02500,-0.00200,1.00400,0.10500,-0.10500,-0.01800,0.57600,0.45700,-1.31200,79.50000,0.35000
041225_04.42.10.051,-0.02400,0.00000,1.00100,0.12300,-0.10500,-0.01800,0.57600,0.45700,-1.31200,79.38000,-0.12000
041225_04.42.10.062,-0.02300,-0.00300,1.00300,0.10500,-0.10500,-0.01800,0.57700,0.45800,-1.31200,79.07000,-0.31000
041225_04.42.10.074,-0.02300,-0.00100,1.00000,0.10500,-0.12300,-0.01800,0.57500,0.45700,-1.31400,79.14000,0.07000
041225_04.42.10.085,-0.02500,-0.00100,1.00100,0.08700,-0.12300,-0.03500,0.56700,0.46000,-1.31100,78.63000,-0.51000
041225_04.42.10.097,-0.02500,-0.00300,1.00400,0.10500,-0.12300,-0.01800,0.56900,0.45900,-1.31000,78.78000,0.15000
041225_04.42.10.108,-0.02500,-0.00100,1.00000,0.08700,-0.12300,-0.03500,0.56900,0.45900,-1.31000,79.57000,0.79000
041225_04.42.10.120,-0.02500,-0.00100,1.00200,0.10500,-0.10500,-0.01800,0.57300,0.46100,-1.31600,79.25000,-0.32000
041225_04.42.10.131,-0.02600,-0.00100,1.00300,0.10500,-0.10500,-0.01800,0.56500,0.46100,-1.31200,78.75000,-0.50000
041225_04.42.10.143,-0.02300,-0.00100,1.00200,0.10500,-0.12300,-0.01800,0.56400,0.45900,-1.30300,78.96000,0.21000
041225_04.42.10.154,-0.02500,-0.00200,1.00400,0.10500,-0.14000,-0.03500,0.56600,0.46000,-1.30600,78.96000,0.00000
041225_04.42.10.166,-0.02400,-0.00100,1.00000,0.08700,-0.14000,-0.03500,0.56600,0.46000,-1.30600,78.67000,-0.29000
041225_04.42.10.177,-0.02500,-0.00200,1.00100,0.10500,-0.14000,-0.01800,0.56000,0.45800,-1.30900,78.19000,-0.48000
041225_04.42.10.189,-0.02600,-0.00300,1.00100,0.10500,-0.14000,-0.01800,0.55800,0.45600,-1.31200,78.59000,0.40000
041225_04.42.10.201,-0.02500,-0.00100,1.00300,0.10500,-0.14000,-0.01800,0.55700,0.45700,-1.31100,78.87000,0.28000
041225_04.42.10.212,-0.02300,-0.00200,1.00100,0.10500,-0.15700,-0.01800,0.55700,0.45700,-1.31100,79.30000,0.43000
041225_04.42.10.224,-0.02400,-0.00200,1.00100,0.08700,-0.14000,-0.01800,0.55600,0.45400,-1.30900,79.04000,-0.26000
041225_04.42.10.235,-0.02500,-0.00100,1.00400,0.08700,-0.12300,-0.03500,0.56100,0.45700,-1.31400,79.30000,0.26000
041225_04.42.10.247,-0.02300,-0.00100,1.00000,0.10500,-0.14000,-0.01800,0.56000,0.45700,-1.31000,79.06000,-0.24000
041225_04.42.10.258,-0.02300,-0.00100,1.00200,0.08700,-0.14000,-0.03500,0.56800,0.45600,-1.31300,79.13000,0.07000
041225_04.42.10.270,-0.02500,-0.00100,1.00300,0.10500,-0.14000,-0.03500,0.56800,0.45600,-1.31300,78.06000,-1.07000
041225_04.42.10.281,-0.02400,-0.00100,1.00100,0.12300,-0.12300,-0.03500,0.56500,0.45800,-1.31000,79.01000,0.95000
041225_04.42.10.293,-0.02300,-0.00100,1.00400,0.08700,-0.12300,-0.03500,0.56700,0.45500,-1.31000,78.44000,-0.57000
041225_04.42.10.304,-0.02400,-0.00200,0.99900,0.10500,-0.08700,-0.03500,0.57300,0.45500,-1.30400,78.87000,0.43000
041225_04.42.10.316,-0.02300,-0.00100,1.00100,0.08700,-0.08700,0.00000,0.56900,0.45500,-1.30900,79.24000,0.37000
041225_04.42.10.327,-0.02500,-0.00300,1.00300,0.07000,-0.08700,-0.03500,0.56900,0.45500,-1.30900,79.22000,-0.02000
041225_04.42.10.339,-0.02300,-0.00100,1.00100,0.07000,-0.14000,0.00000,0.57500,0.45600,-1.31000,79.41000,0.19000
041225_04.42.10.350,-0.02600,-0.00100,1.00200,0.07000,-0.15700,-0.01800,0.57700,0.46000,-1.31300,79.17000,-0.24000
041225_04.42.10.362,-0.02400,-0.00100,1.00100,0.10500,-0.14000,-0.03500,0.57400,0.45600,-1.31800,78.54000,-0.63000
041225_04.42.10.374,-0.02400,-0.00200,1.00400,0.08700,-0.14000,-0.01800,0.57400,0.45600,-1.31800,79.32000,0.78000
041225_04.42.10.386,-0.02500,-0.00100,1.00000,0.08700,-0.15700,-0.01800,0.57100,0.45900,-1.31400,79.25000,-0.07000
041225_04.42.10.397,-0.02400,-0.00100,1.00200,0.08700,-0.14000,0.00000,0.56900,0.46200,-1.30500,78.65000,-0.60000
041225_04.42.10.409,-0.02500,-0.00200,1.00400,0.08700,-0.14000,-0.01800,0.57100,0.45900,-1.30400,78.86000,0.21000
041225_04.42.10.421,-0.02400,-0.00100,1.00000,0.10500,-0.15700,-0.01800,0.56900,0.45700,-1.30200,79.05000,0.19000
041225_04.42.10.432,-0.02400,0.00000,1.00400,0.08700,-0.15700,-0.03500,0.56900,0.45700,-1.30200,78.78000,-0.27000
041225_04.42.10.444,-0.02700,-0.00200,1.00100,0.08700,-0.14000,-0.01800,0.56900,0.45900,-1.30700,79.43000,0.65000
041225_04.42.10.455,-0.02500,-0.00200,1.00300,0.08700,-0.12300,-0.01800,0.56300,0.46000,-1.31100,79.28000,-0.15000
041225_04.42.10.467,-0.02500,-0.00200,1.00400,0.08700,-0.12300,-0.01800,0.56200,0.45900,-1.30800,78.51000,-0.77000
041225_04.42.10.479,-0.02400,0.00000,0.99900,0.08700,-0.14000,-0.03500,0.55600,0.45700,-1.30800,79.07000,0.56000
041225_04.42.10.490,-0.02600,-0.00200,1.00400,0.07000,-0.14000,-0.01800,0.55600,0.45700,-1.30800,79.08000,0.01000
041225_04.42.10.502,-0.02400,-0.00100,1.00200,0.08700,-0.10500,-0.03500,0.56300,0.45900,-1.31400,78.57000,-0.51000
041225_04.42.10.513,-0.02500,-0.00100,1.00400,0.07000,-0.10500,-0.01800,0.55500,0.45600,-1.31200,79.22000,0.65000
041225_04.42.10.525,-0.02400,-0.00100,1.00100,0.08700,-0.12300,-0.03500,0.56200,0.45800,-1.30800,79.00000,-0.22000
041225_04.42.10.536,-0.02500,-0.00200,1.00200,0.08700,-0.12300,-0.03500,0.56200,0.45800,-1.30800,79.17000,0.17000
041225_04.42.10.548,-0.02500,-0.00100,1.00300,0.07000,-0.08700,-0.03500,0.56300,0.45700,-1.31100,78.23000,-0.94000
041225_04.42.10.559,-0.02300,-0.00200,1.00100,0.07000,-0.12300,-0.03500,0.56900,0.45500,-1.30800,79.71000,1.48000
041225_04.42.10.571,-0.02300,-0.00100,1.00500,0.07000,-0.12300,-0.01800,0.57400,0.45700,-1.31600,78.92000,-0.79000
041225_04.42.10.582,-0.02400,-0.00100,0.99900,0.05300,-0.10500,-0.01800,0.57300,0.45500,-1.31200,79.02000,0.10000
041225_04.42.10.594,-0.02400,-0.00200,1.00200,0.08700,-0.12300,-0.01800,0.57300,0.45500,-1.31200,78.87000,-0.15000
041225_04.42.10.605,-0.02500,-0.00300,1.00300,0.08700,-0.14000,-0.03500,0.57100,0.45800,-1.30300,79.39000,0.52000
041225_04.42.10.617,-0.02400,-0.00100,1.00000,0.07000,-0.14000,-0.01800,0.58200,0.46200,-1.32100,79.20000,-0.19000
041225_04.42.10.628,-0.02500,-0.00100,1.00200,0.07000,-0.12300,-0.01800,0.57500,0.46300,-1.30800,79.60000,0.40000
041225_04.42.10.640,-0.02500,-0.00100,1.00200,0.07000,-0.14000,-0.03500,0.57500,0.46100,-1.31000,79.22000,-0.38000
041225_04.42.10.651,-0.02400,-0.00100,1.00200,0.08700,-0.12300,-0.03500,0.57500,0.46100,-1.31000,79.48000,0.26000
041225_04.42.10.663,-0.02500,-0.00200,1.00200,0.07000,-0.12300,-0.01800,0.57500,0.46000,-1.31000,78.68000,-0.80000
041225_04.42.10.674,-0.02500,-0.00100,1.00400,0.07000,-0.12300,-0.03500,0.56900,0.46000,-1.30800,78.55000,-0.13000
041225_04.42.10.686,-0.02500,-0.00200,1.00200,0.08700,-0.12300,-0.01800,0.57000,0.46300,-1.31300,78.39000,-0.16000
041225_04.42.10.697,-0.02600,-0.00200,1.00000,0.12300,-0.12300,0.00000,0.57000,0.46300,-1.31300,79.01000,0.62000
041225_04.42.10.709,-0.02600,-0.00200,1.00400,0.10500,-0.12300,-0.01800,0.56600,0.46100,-1.31000,79.13000,0.12000
041225_04.42.10.721,-0.02400,-0.00200,1.00000,0.08700,-0.12300,-0.01800,0.56300,0.46100,-1.30900,79.13000,0.00000
041225_04.42.10.732,-0.02500,-0.00200,1.00100,0.08700,-0.12300,-0.01800,0.56600,0.46500,-1.31000,78.81000,-0.32000
041225_04.42.10.744,-0.02500,-0.00200,1.00400,0.10500,-0.12300,-0.01800,0.56700,0.46200,-1.31200,78.95000,0.14000
041225_04.42.10.755,-0.02500,0.00000,1.00100,0.10500,-0.12300,-0.01800,0.56700,0.46200,-1.31200,79.06000,0.11000
041225_04.42.10.767,-0.02500,-0.00300,1.00300,0.08700,-0.12300,-0.01800,0.56100,0.45800,-1.31500,78.90000,-0.16000
041225_04.42.10.779,-0.02300,-0.00200,1.00200,0.10500,-0.12300,-0.01800,0.56300,0.46000,-1.31100,79.43000,0.53000
041225_04.42.10.790,-0.02400,-0.00200,1.00100,0.08700,-0.12300,-0.01800,0.56200,0.46000,-1.30300,78.47000,-0.96000
041225_04.42.10.802,-0.02500,-0.00300,1.00400,0.10500,-0.12300,-0.01800,0.56300,0.45700,-1.30700,78.77000,0.30000
041225_04.42.10.813,-0.02500,-0.00100,1.00000,0.08700,-0.12300,-0.01800,0.56300,0.45700,-1.30700,79.38000,0.61000
041225_04.42.10.825,-0.02400,-0.00300,1.00400,0.08700,-0.12300,-0.01800,0.56300,0.45700,-1.31200,78.39000,-0.99000
041225_04.42.10.836,-0.02500,-0.00000,0.99900,0.10500,-0.12300,-0.03500,0.56500,0.46300,-1.30300,78.68000,0.29000
041225_04.42.10.848,-0.02600,-0.00100,1.00400,0.08700,-0.10500,-0.01800,0.56800,0.46300,-1.31100,78.38000,-0.30000
041225_04.42.10.860,-0.02400,-0.00100,1.00000,0.10500,-0.14000,-0.03500,0.56800,0.46300,-1.31100,78.00000,-0.38000
041225_04.42.10.871,-0.02400,-0.00100,1.00100,0.08700,-0.12300,-0.01800,0.57200,0.46200,-1.31300,79.52000,1.52000
041225_04.42.10.883,-0.02500,-0.00200,1.00400,0.10500,-0.14000,-0.03500,0.57000,0.46100,-1.31300,78.53000,-0.99000
041225_04.42.10.894,-0.02300,-0.00100,1.00000,0.08700,-0.14000,-0.01800,0.57300,0.46300,-1.30900,78.71000,0.18000
041225_04.42.10.906,-0.02500,-0.00200,1.00500,0.10500,-0.12300,-0.01800,0.57600,0.46300,-1.31200,79.42000,0.71000
041225_04.42.10.918,-0.02400,-0.00200,1.00200,0.08700,-0.14000,-0.01800,0.57600,0.46300,-1.31200,78.72000,-0.70000
041225_04.42.10.929,-0.02400,-0.00100,1.00100,0.08700,-0.14000,-0.03500,0.58000,0.45900,-1.30600,78.77000,0.05000
041225_04.42.10.941,-0.02500,-0.00200,1.00400,0.10500,-0.15700,-0.03500,0.57700,0.45900,-1.30700,78.83000,0.06000
041225_04.42.10.953,-0.02400,-0.00000,0.99900,0.08700,-0.14000,-0.03500,0.57100,0.45600,-1.31000,79.26000,0.43000
041225_04.42.10.964,-0.02500,-0.00100,1.00400,0.10500,-0.12300,-0.03500,0.57100,0.45800,-1.30700,78.77000,-0.49000
041225_04.42.10.976,-0.02400,-0.00100,1.00200,0.10500,-0.12300,-0.01800,0.57100,0.45800,-1.30700,78.86000,0.09000
041225_04.42.10.987,-0.02500,-0.00100,1.00000,0.10500,-0.14000,-0.01800,0.57100,0.46100,-1.30400,78.91000,0.05000
041225_04.42.10.999,-0.02300,-0.00200,0.99900,0.10500,-0.12300,-0.01800,0.56900,0.45700,-1.30900,78.96000,0.05000
041225_04.42.11.010,-0.02500,-0.00300,1.00200,0.10500,-0.12300,-0.01800,0.56100,0.45900,-1.30500,79.13000,0.17000
041225_04.42.11.022,-0.02500,-0.00200,1.00200,0.12300,-0.14000,-0.01800,0.56100,0.45900,-1.30500,79.31000,0.18000
041225_04.42.11.033,-0.02300,-0.00300,1.00100,0.10500,-0.12300,-0.01800,0.55700,0.45900,-1.31000,78.24000,-1.07000
041225_04.42.11.045,-0.02600,-0.00200,1.00400,0.12300,-0.08700,-0.03500,0.55900,0.46300,-1.30400,78.10000,-0.14000
041225_04.42.11.056,-0.02500,-0.00200,1.00100,0.10500,-0.12300,-0.01800,0.55600,0.46000,-1.31300,79.08000,0.98000
041225_04.42.11.067,-0.02600,-0.00100,1.00200,0.10500,-0.14000,-0.01800,0.55900,0.46100,-1.30600,79.23000,0.15000
041225_04.42.11.079,-0.02500,-0.00200,1.00300,0.10500,-0.12300,-0.01800,0.55900,0.46100,-1.30600,78.51000,-0.72000
041225_04.42.11.090,-0.02400,-0.00100,0.99900,0.10500,-0.12300,-0.01800,0.55900,0.46400,-1.31500,78.58000,0.07000
041225_04.42.11.102,-0.02500,-0.00200,1.00300,0.10500,-0.12300,-0.01800,0.55900,0.46200,-1.31300,78.57000,-0.01000
041225_04.42.11.114,-0.02500,-0.00100,1.00300,0.12300,-0.12300,-0.01800,0.56200,0.46200,-1.31000,79.10000,0.53000
041225_04.42.11.125,-0.02500,-0.00100,1.00100,0.14000,-0.14000,-0.01800,0.56400,0.45800,-1.31300,78.79000,-0.31000
041225_04.42.11.137,-0.02500,-0.00200,1.00300,0.10500,-0.14000,-0.01800,0.56400,0.45800,-1.31300,79.09000,0.30000
041225_04.42.11.148,-0.02500,-0.00200,1.00000,0.08700,-0.10500,-0.01800,0.56400,0.45800,-1.31700,78.47000,-0.62000
041225_04.42.11.160,-0.02500,-0.00200,1.00300,0.10500,-0.12300,-0.01800,0.56500,0.45800,-1.31400,79.15000,0.68000
041225_04.42.11.171,-0.02200,-0.00200,1.00000,0.10500,-0.14000,-0.01800,0.57200,0.45700,-1.31400,78.56000,-0.59000
041225_04.42.11.183,-0.02600,-0.00200,1.00300,0.10500,-0.12300,-0.03500,0.57200,0.45700,-1.31400,78.55000,-0.01000
041225_04.42.11.195,-0.02500,-0.00200,1.00100,0.10500,-0.14000,-0.03500,0.57300,0.45800,-1.30900,78.85000,0.30000
041225_04.42.11.206,-0.02500,-0.00000,1.00100,0.08700,-0.12300,0.00000,0.57400,0.45600,-1.31200,78.89000,0.04000
041225_04.42.11.218,-0.02600,-0.00300,1.00200,0.08700,-0.12300,-0.03500,0.57400,0.45800,-1.31200,78.62000,-0.27000
041225_04.42.11.229,-0.02300,-0.00100,1.00000,0.10500,-0.14000,-0.01800,0.57100,0.45500,-1.31000,78.62000,0.00000
041225_04.42.11.241,-0.02700,-0.00200,1.00400,0.08700,-0.10500,-0.03500,0.57100,0.45500,-1.31000,78.32000,-0.30000
041225_04.42.11.252,-0.02300,-0.00200,1.00200,0.07000,-0.12300,-0.05300,0.56800,0.45900,-1.30600,78.41000,0.09000
041225_04.42.11.264,-0.02600,-0.00200,1.00100,0.08700,-0.12300,-0.01800,0.56900,0.46000,-1.31000,79.02000,0.61000
041225_04.42.11.275,-0.02500,-0.00200,1.00500,0.10500,-0.12300,-0.03500,0.57100,0.46400,-1.30500,78.17000,-0.85000
041225_04.42.11.287,-0.02400,-0.00100,1.00000,0.08700,-0.14000,-0.03500,0.56300,0.46000,-1.30000,78.63000,0.46000
041225_04.42.11.298,-0.02500,-0.00200,1.00300,0.08700,-0.12300,-0.03500,0.56300,0.46000,-1.30000,78.53000,-0.10000
041225_04.42.11.310,-0.02400,-0.00200,1.00400,0.07000,-0.10500,-0.01800,0.56700,0.46300,-1.29700,78.67000,0.14000
041225_04.42.11.321,-0.02500,-0.00000,1.00400,0.07000,-0.12300,-0.01800,0.56400,0.45900,-1.30500,78.95000,0.28000
041225_04.42.11.333,-0.02500,-0.00200,1.00200,0.08700,-0.15700,-0.01800,0.56200,0.45800,-1.29800,78.40000,-0.55000
041225_04.42.11.344,-0.02500,0.00000,1.00200,0.10500,-0.14000,-0.01800,0.56200,0.45800,-1.29800,78.74000,0.34000
041225_04.42.11.356,-0.02400,-0.00200,1.00300,0.08700,-0.12300,-0.03500,0.55700,0.46000,-1.30400,79.19000,0.45000
041225_04.42.11.368,-0.02400,0.00000,1.00000,0.10500,-0.10500,-0.01800,0.56200,0.45500,-1.30800,78.39000,-0.80000
041225_04.42.11.379,-0.02300,-0.00200,1.00400,0.10500,-0.12300,-0.01800,0.55700,0.45800,-1.30600,78.32000,-0.07000
041225_04.42.11.391,-0.02400,-0.00100,1.00200,0.10500,-0.12300,-0.01800,0.55700,0.45900,-1.31600,78.56000,0.24000
041225_04.42.11.403,-0.02600,-0.00100,1.00000,0.08700,-0.12300,-0.01800,0.55700,0.45900,-1.31600,79.07000,0.51000
041225_04.42.11.415,-0.02500,-0.00200,1.00400,0.08700,-0.14000,0.00000,0.56100,0.46300,-1.31000,78.01000,-1.06000
041225_04.42.11.426,-0.02300,-0.00000,1.00100,0.10500,-0.12300,0.00000,0.56800,0.46100,-1.31100,78.54000,0.53000
041225_04.42.11.438,-0.02500,-0.00300,1.00200,0.08700,-0.12300,0.00000,0.56700,0.46000,-1.31200,78.79000,0.25000
041225_04.42.11.450,-0.02500,-0.00100,1.00400,0.08700,-0.10500,-0.03500,0.57000,0.46100,-1.31600,78.53000,-0.26000
041225_04.42.11.461,-0.02400,-0.00100,1.00000,0.07000,-0.12300,-0.01800,0.57000,0.46100,-1.31600,78.38000,-0.15000
041225_04.42.11.473,-0.02500,-0.00100,1.00300,0.08700,-0.12300,0.00000,0.57300,0.45500,-1.31100,78.21000,-0.17000
041225_04.42.11.484,-0.02600,0.00000,1.00200,0.07000,-0.12300,-0.01800,0.57000,0.45500,-1.30900,78.75000,0.54000
041225_04.42.11.496,-0.02400,-0.00200,1.00300,0.08700,-0.12300,-0.01800,0.57600,0.46200,-1.31100,78.90000,0.15000
041225_04.42.11.508,-0.02500,-0.00200,1.00000,0.07000,-0.10500,-0.01800,0.57600,0.46200,-1.31100,78.73000,-0.17000
041225_04.42.11.519,-0.02800,-0.00200,1.00400,0.07000,-0.10500,-0.03500,0.57400,0.45600,-1.30800,78.42000,-0.31000
041225_04.42.11.530,-0.02400,-0.00200,1.00400,0.08700,-0.14000,-0.01800,0.56800,0.46200,-1.31000,78.67000,0.25000
041225_04.42.11.542,-0.02500,-0.00100,1.00000,0.08700,-0.12300,-0.01800,0.56700,0.46200,-1.30600,78.67000,0.00000
041225_04.42.11.554,-0.02600,-0.00300,1.00400,0.07000,-0.10500,-0.01800,0.56600,0.46000,-1.30800,78.64000,-0.03000
041225_04.42.11.565,-0.02300,-0.00000,1.00100,0.10500,-0.14000,-0.01800,0.56600,0.46000,-1.30800,79.46000,0.82000
041225_04.42.11.577,-0.02600,-0.00200,1.00300,0.08700,-0.12300,-0.01800,0.56500,0.45800,-1.30800,78.40000,-1.06000
041225_04.42.11.589,-0.02400,-0.00100,1.00200,0.08700,-0.15700,-0.01800,0.56100,0.46000,-1.30900,78.92000,0.52000
041225_04.42.11.600,-0.02500,-0.00200,1.00100,0.08700,-0.12300,-0.01800,0.55700,0.46300,-1.30800,79.32000,0.40000
041225_04.42.11.612,-0.02500,-0.00200,1.00400,0.08700,-0.12300,-0.01800,0.55700,0.46200,-1.30600,79.15000,-0.17000
041225_04.42.11.623,-0.02300,-0.00200,1.00200,0.10500,-0.14000,-0.01800,0.55700,0.46200,-1.30600,78.76000,-0.39000
041225_04.42.11.635,-0.02500,-0.00000,1.00400,0.12300,-0.14000,-0.01800,0.55200,0.46100,-1.31600,78.59000,-0.17000
041225_04.42.11.646,-0.02300,-0.00200,1.00000,0.12300,-0.12300,-0.03500,0.55100,0.45900,-1.31000,79.04000,0.45000
041225_04.42.11.658,-0.02400,-0.00200,1.00400,0.08700,-0.12300,-0.03500,0.55500,0.45700,-1.30600,79.47000,0.43000
041225_04.42.11.670,-0.02300,-0.00100,1.00300,0.07000,-0.12300,-0.03500,0.55500,0.45700,-1.30600,79.09000,-0.38000
041225_04.42.11.681,-0.02400,-0.00100,1.00200,0.08700,-0.12300,-0.03500,0.55800,0.45800,-1.30900,77.92000,-1.17000
041225_04.42.11.693,-0.02500,-0.00300,1.00400,0.08700,-0.14000,-0.01800,0.56700,0.45700,-1.30100,79.03000,1.11000
041225_04.42.11.704,-0.02300,-0.00200,0.99900,0.07000,-0.12300,-0.01800,0.56900,0.45600,-1.30700,78.69000,-0.34000
041225_04.42.11.716,-0.02400,-0.00100,1.00300,0.08700,-0.10500,-0.03500,0.56700,0.46100,-1.31100,78.61000,-0.08000
041225_04.42.11.728,-0.02400,-0.00000,1.00200,0.08700,-0.14000,-0.01800,0.56700,0.46100,-1.31100,79.17000,0.56000
041225_04.42.11.740,-0.02400,-0.00100,1.00000,0.10500,-0.12300,-0.01800,0.56700,0.46300,-1.30600,79.13000,-0.04000
041225_04.42.11.751,-0.02400,0.00000,1.00600,0.10500,-0.12300,-0.01800,0.57100,0.46200,-1.30600,78.56000,-0.57000
041225_04.42.11.763,-0.02300,-0.00100,1.00100,0.08700,-0.14000,0.00000,0.57300,0.46200,-1.31400,78.95000,0.39000
041225_04.42.11.775,-0.02400,-0.00200,1.00300,0.10500,-0.12300,-0.01800,0.57300,0.45800,-1.31000,78.45000,-0.50000
041225_04.42.11.786,-0.02700,-0.00300,1.00200,0.08700,-0.12300,-0.01800,0.56900,0.45800,-1.31000,79.22000,0.77000
041225_04.42.11.798,-0.02400,-0.00000,1.00300,0.08700,-0.14000,-0.01800,0.56900,0.45500,-1.31100,79.17000,-0.05000
041225_04.42.11.810,-0.02600,-0.00000,1.00200,0.08700,-0.15700,-0.03500,0.56800,0.45600,-1.30800,79.07000,-0.10000
041225_04.42.11.821,-0.02500,0.00000,1.00100,0.07000,-0.14000,-0.01800,0.56400,0.45700,-1.31000,79.44000,0.37000
041225_04.42.11.833,-0.02600,-0.00100,1.00400,0.07000,-0.12300,-0.03500,0.56400,0.45700,-1.31000,79.05000,-0.39000
041225_04.42.11.845,-0.02500,0.00000,1.00200,0.08700,-0.12300,0.00000,0.56400,0.45800,-1.31000,78.82000,-0.23000
041225_04.42.11.856,-0.02600,-0.00100,1.00400,0.08700,-0.12300,0.00000,0.56200,0.45900,-1.30800,78.54000,-0.28000
041225_04.42.11.868,-0.02400,-0.00100,1.00300,0.08700,-0.14000,-0.01800,0.55900,0.45700,-1.30700,78.95000,0.41000
041225_04.42.11.880,-0.02500,-0.00100,1.00000,0.07000,-0.14000,-0.01800,0.55900,0.45900,-1.30600,78.74000,-0.21000
041225_04.42.11.891,-0.02600,-0.00100,1.00500,0.07000,-0.12300,-0.01800,0.55900,0.45900,-1.30600,78.73000,-0.01000
041225_04.42.11.903,-0.02500,-0.00100,1.00100,0.08700,-0.14000,-0.03500,0.55600,0.45600,-1.30300,79.14000,0.41000
041225_04.42.11.914,-0.02600,-0.00100,1.00100,0.07000,-0.12300,-0.01800,0.55800,0.45500,-1.31200,78.86000,-0.28000
041225_04.42.11.926,-0.02600,-0.00200,1.00200,0.08700,-0.10500,-0.01800,0.55200,0.45600,-1.30800,78.98000,0.12000
041225_04.42.11.937,-0.02400,-0.00200,1.00000,0.07000,-0.10500,-0.01800,0.55200,0.45800,-1.30800,78.32000,-0.66000
041225_04.42.11.949,-0.02700,-0.00100,1.00300,0.08700,-0.10500,-0.03500,0.55300,0.45800,-1.30800,79.00000,0.68000
041225_04.42.11.961,-0.02500,-0.00200,1.00100,0.08700,-0.10500,-0.03500,0.56300,0.45700,-1.31300,79.20000,0.20000
041225_04.42.11.972,-0.02600,-0.00400,1.00300,0.10500,-0.12300,-0.01800,0.56600,0.45600,-1.31000,78.74000,-0.46000
041225_04.42.11.984,-0.02500,-0.00300,1.00100,0.08700,-0.14000,-0.03500,0.56900,0.45400,-1.30900,79.03000,0.29000
041225_04.42.11.996,-0.02700,-0.00200,1.00400,0.08700,-0.12300,-0.01800,0.56900,0.45400,-1.30900,78.16000,-0.87000
041225_04.42.12.007,-0.02500,-0.00100,1.00200,0.10500,-0.14000,-0.01800,0.57100,0.45700,-1.30600,78.56000,0.40000
041225_04.42.12.019,-0.02400,-0.00200,1.00000,0.08700,-0.14000,-0.01800,0.57300,0.45200,-1.31600,78.27000,-0.29000
041225_04.42.12.031,-0.02400,-0.00300,1.00500,0.10500,-0.14000,-0.01800,0.57000,0.45400,-1.31100,78.76000,0.49000
041225_04.42.12.042,-0.02400,-0.00300,1.00200,0.10500,-0.14000,-0.01800,0.57400,0.45700,-1.31800,78.85000,0.09000
041225_04.42.12.054,-0.02500,-0.00200,1.00400,0.10500,-0.14000,-0.01800,0.57400,0.45700,-1.31800,78.42000,-0.43000
041225_04.42.12.066,-0.02500,-0.00200,1.00200,0.10500,-0.14000,-0.01800,0.57600,0.45900,-1.32100,79.04000,0.62000
041225_04.42.12.077,-0.02400,-0.00200,1.00100,0.10500,-0.15700,-0.01800,0.57700,0.45700,-1.31000,78.68000,-0.36000
041225_04.42.12.089,-0.02500,-0.00300,1.00500,0.10500,-0.17500,0.00000,0.57400,0.45600,-1.31100,78.79000,0.11000
041225_04.42.12.100,-0.02300,-0.00200,1.00100,0.10500,-0.15700,0.00000,0.57400,0.45700,-1.30400,78.52000,-0.27000
041225_04.42.12.112,-0.02400,-0.00100,1.00200,0.10500,-0.15700,-0.01800,0.56800,0.45700,-1.30400,78.88000,0.36000
041225_04.42.12.124,-0.02300,-0.00100,1.00100,0.12300,-0.14000,-0.03500,0.57200,0.45700,-1.30700,78.83000,-0.05000
041225_04.42.12.135,-0.02300,-0.00200,1.00200,0.12300,-0.14000,-0.01800,0.57100,0.45800,-1.31300,78.64000,-0.19000
041225_04.42.12.147,-0.02400,-0.00200,1.00200,0.10500,-0.12300,-0.01800,0.57100,0.45800,-1.30600,78.93000,0.29000
041225_04.42.12.158,-0.02400,-0.00200,1.00100,0.08700,-0.12300,-0.01800,0.57100,0.45800,-1.30600,78.42000,-0.51000
041225_04.42.12.170,-0.02500,-0.00200,1.00300,0.10500,-0.12300,-0.01800,0.56600,0.45800,-1.30200,79.34000,0.92000
041225_04.42.12.181,-0.02400,-0.00100,1.00000,0.10500,-0.12300,-0.01800,0.56200,0.45500,-1.30800,79.02000,-0.32000
041225_04.42.12.193,-0.02400,-0.00100,1.00400,0.12300,-0.12300,-0.01800,0.55800,0.45300,-1.30400,78.11000,-0.91000
041225_04.42.12.204,-0.02500,-0.00100,1.00200,0.10500,-0.10500,-0.01800,0.56300,0.45800,-1.31100,79.44000,1.33000
041225_04.42.12.216,-0.02300,-0.00000,1.00100,0.10500,-0.08700,-0.01800,0.56300,0.45800,-1.31100,78.18000,-1.26000
041225_04.42.12.228,-0.02500,-0.00100,1.00500,0.10500,-0.10500,0.00000,0.55300,0.46200,-1.30300,78.64000,0.46000
041225_04.42.12.239,-0.02400,-0.00100,1.00100,0.10500,-0.12300,0.00000,0.56100,0.45600,-1.30900,78.85000,0.21000
041225_04.42.12.251,-0.02400,0.00000,1.00100,0.10500,-0.12300,-0.01800,0.56600,0.46100,-1.31200,79.63000,0.78000
041225_04.42.12.263,-0.02700,-0.00100,1.00400,0.08700,-0.12300,-0.01800,0.56600,0.46100,-1.31200,78.67000,-0.96000
041225_04.42.12.274,-0.02400,0.00100,1.00100,0.08700,-0.10500,-0.03500,0.56800,0.45800,-1.31200,78.81000,0.14000
041225_04.42.12.286,-0.02600,-0.00200,1.00200,0.08700,-0.14000,-0.03500,0.56800,0.45800,-1.31200,78.50000,-0.31000
041225_04.42.12.297,-0.02600,0.00000,1.00100,0.08700,-0.12300,-0.03500,0.57200,0.45700,-1.31500,79.03000,0.53000
041225_04.42.12.309,-0.02500,-0.00100,1.00500,0.08700,-0.12300,-0.01800,0.57300,0.45800,-1.31600,78.76000,-0.27000
041225_04.42.12.320,-0.02500,0.00000,1.00200,0.08700,-0.12300,-0.01800,0.57300,0.45800,-1.31600,78.72000,-0.04000
041225_04.42.12.332,-0.02600,-0.00200,1.00400,0.08700,-0.10500,-0.01800,0.57200,0.45200,-1.31500,79.04000,0.32000
041225_04.42.12.343,-0.02500,-0.00200,1.00400,0.08700,-0.12300,-0.01800,0.57500,0.45600,-1.32000,78.65000,-0.39000
041225_04.42.12.355,-0.02600,-0.00000,1.00100,0.10500,-0.12300,-0.01800,0.56900,0.45600,-1.31200,79.05000,0.40000
041225_04.42.12.366,-0.02600,-0.00100,1.00500,0.10500,-0.12300,-0.01800,0.56800,0.45600,-1.31600,79.12000,0.07000
041225_04.42.12.378,-0.02400,-0.00300,1.00000,0.08700,-0.14000,-0.01800,0.56800,0.45600,-1.31600,78.86000,-0.26000
041225_04.42.12.390,-0.02400,-0.00300,1.00200,0.07000,-0.14000,-0.03500,0.57100,0.45500,-1.30600,78.63000,-0.23000
041225_04.42.12.401,-0.02500,-0.00300,1.00400,0.08700,-0.15700,-0.01800,0.57200,0.45300,-1.31200,78.84000,0.21000
041225_04.42.12.413,-0.02400,-0.00200,1.00100,0.08700,-0.12300,-0.03500,0.56900,0.46200,-1.31000,79.17000,0.33000
041225_04.42.12.424,-0.02400,-0.00200,1.00300,0.07000,-0.15700,-0.01800,0.56900,0.46200,-1.30700,78.86000,-0.31000
041225_04.42.12.436,-0.02500,-0.00200,1.00200,0.10500,-0.12300,-0.01800,0.56400,0.46300,-1.30700,78.93000,0.07000
041225_04.42.12.447,-0.02400,-0.00200,1.00500,0.10500,-0.12300,-0.03500,0.56500,0.45300,-1.31000,79.57000,0.64000
041225_04.42.12.459,-0.02400,0.00000,1.00100,0.10500,-0.14000,-0.01800,0.56000,0.45900,-1.30900,78.53000,-1.04000
041225_04.42.12.470,-0.02400,-0.00300,1.00300,0.08700,-0.10500,-0.01800,0.55600,0.45600,-1.30800,78.76000,0.23000
041225_04.42.12.482,-0.02500,-0.00200,1.00200,0.08700,-0.14000,-0.01800,0.55600,0.45600,-1.30800,79.26000,0.50000
041225_04.42.12.493,-0.02400,-0.00200,1.00100,0.10500,-0.15700,-0.03500,0.55400,0.45900,-1.30600,78.43000,-0.83000
041225_04.42.12.505,-0.02600,-0.00200,1.00400,0.10500,-0.14000,-0.01800,0.55400,0.45600,-1.30900,79.16000,0.73000
041225_04.42.12.516,-0.02400,-0.00200,1.00200,0.08700,-0.15700,-0.03500,0.55800,0.46100,-1.31000,79.48000,0.32000
041225_04.42.12.528,-0.02500,-0.00200,1.00200,0.10500,-0.14000,0.00000,0.55700,0.45500,-1.32100,78.86000,-0.62000
041225_04.42.12.539,-0.02600,-0.00300,1.00300,0.12300,-0.12300,0.00000,0.55700,0.45500,-1.32100,78.83000,-0.03000
041225_04.42.12.551,-0.02500,-0.00000,1.00100,0.12300,-0.12300,0.00000,0.56200,0.45600,-1.31600,78.51000,-0.32000
041225_04.42.12.562,-0.02500,-0.00200,1.00400,0.10500,-0.12300,0.00000,0.56600,0.45400,-1.31700,79.34000,0.83000
041225_04.42.12.574,-0.02500,-0.00000,1.00100,0.10500,-0.15700,-0.01800,0.57200,0.45100,-1.31100,78.74000,-0.60000
041225_04.42.12.585,-0.02500,-0.00100,1.00000,0.08700,-0.14000,-0.01800,0.57200,0.45100,-1.31300,78.84000,0.10000
041225_04.42.12.596,-0.02500,-0.00200,1.00500,0.08700,-0.14000,0.00000,0.57100,0.45000,-1.31300,78.83000,-0.01000
041225_04.42.12.608,-0.02600,-0.00100,1.00200,0.10500,-0.08700,-0.03500,0.57500,0.45000,-1.31300,78.56000,-0.27000
041225_04.42.12.619,-0.02500,-0.00100,1.00300,0.08700,-0.10500,-0.03500,0.57400,0.45700,-1.30700,78.73000,0.17000
041225_04.42.12.631,-0.02500,0.00000,1.00100,0.10500,-0.15700,-0.01800,0.57700,0.45400,-1.30600,79.08000,0.35000
041225_04.42.12.642,-0.02500,-0.00000,1.00400,0.12300,-0.12300,0.00000,0.57700,0.45400,-1.30600,78.99000,-0.09000
041225_04.42.12.654,-0.02400,-0.00100,1.00200,0.08700,-0.10500,-0.03500,0.57500,0.45800,-1.30500,78.65000,-0.34000
041225_04.42.12.666,-0.02500,-0.00000,1.00400,0.08700,-0.12300,-0.01800,0.57300,0.45700,-1.30300,79.52000,0.87000
041225_04.42.12.677,-0.02500,-0.00100,1.00500,0.10500,-0.12300,-0.03500,0.56600,0.45800,-1.30500,78.29000,-1.23000
041225_04.42.12.689,-0.02300,0.00200,1.00000,0.10500,-0.15700,0.00000,0.56900,0.45800,-1.30800,78.84000,0.55000
041225_04.42.12.700,-0.02600,-0.00100,1.00300,0.08700,-0.15700,-0.01800,0.56900,0.45800,-1.30800,78.33000,-0.51000
041225_04.42.12.711,-0.02500,-0.00000,1.00200,0.08700,-0.14000,-0.01800,0.56900,0.45700,-1.30800,78.46000,0.13000
041225_04.42.12.723,-0.02500,0.00100,1.00100,0.08700,-0.14000,-0.01800,0.56200,0.45900,-1.30500,78.20000,-0.26000
041225_04.42.12.734,-0.02500,-0.00100,1.00400,0.08700,-0.12300,-0.01800,0.56300,0.46200,-1.30100,78.81000,0.61000
041225_04.42.12.746,-0.02400,0.00000,1.00100,0.08700,-0.14000,-0.03500,0.56300,0.46200,-1.29800,78.64000,-0.17000
041225_04.42.12.758,-0.02400,-0.00200,1.00300,0.07000,-0.10500,-0.03500,0.55700,0.45400,-1.29800,79.01000,0.37000
041225_04.42.12.769,-0.02500,-0.00000,1.00100,0.07000,-0.10500,-0.01800,0.55700,0.45700,-1.29800,78.76000,-0.25000
041225_04.42.12.781,-0.02400,-0.00200,1.00500,0.08700,-0.12300,-0.01800,0.55500,0.45500,-1.30400,78.98000,0.22000
041225_04.42.12.792,-0.02500,-0.00200,1.00000,0.08700,-0.10500,-0.01800,0.55900,0.45500,-1.29900,78.79000,-0.19000
041225_04.42.12.804,-0.02400,-0.00200,1.00300,0.07000,-0.08700,-0.03500,0.55900,0.45500,-1.29900,79.24000,0.45000
041225_04.42.12.815,-0.02400,-0.00300,1.00600,0.10500,-0.10500,0.00000,0.55500,0.45500,-1.30400,78.65000,-0.59000
041225_04.42.12.826,-0.02300,-0.00200,1.00000,0.10500,-0.10500,-0.03500,0.56700,0.45700,-1.30000,78.92000,0.27000
041225_04.42.12.838,-0.02400,-0.00200,1.00400,0.10500,-0.10500,-0.03500,0.56900,0.45900,-1.30200,78.67000,-0.25000
041225_04.42.12.849,-0.02500,-0.00300,1.00100,0.08700,-0.12300,-0.03500,0.57000,0.45600,-1.30300,78.65000,-0.02000
041225_04.42.12.861,-0.02400,-0.00200,1.00100,0.08700,-0.14000,-0.01800,0.57000,0.45600,-1.30300,79.07000,0.42000
041225_04.42.12.872,-0.02400,-0.00200,1.00300,0.10500,-0.14000,-0.01800,0.56900,0.45700,-1.31100,78.92000,-0.15000
041225_04.42.12.884,-0.02300,-0.00200,0.99900,0.08700,-0.12300,0.00000,0.57400,0.45900,-1.30700,78.90000,-0.02000
041225_04.42.12.895,-0.02500,-0.00200,1.00300,0.08700,-0.10500,-0.01800,0.57600,0.45800,-1.31000,78.20000,-0.70000
041225_04.42.12.907,-0.02400,-0.00100,1.00300,0.10500,-0.15700,0.00000,0.57600,0.45800,-1.30800,78.73000,0.53000
041225_04.42.12.918,-0.02700,-0.00300,1.00000,0.08700,-0.14000,0.00000,0.57200,0.45900,-1.30800,78.93000,0.20000
041225_04.42.12.930,-0.02500,-0.00200,1.00000,0.10500,-0.12300,-0.01800,0.57200,0.45900,-1.31400,79.09000,0.16000
041225_04.42.12.941,-0.02500,-0.00200,1.00200,0.10500,-0.10500,-0.01800,0.57200,0.45900,-1.31600,79.02000,-0.07000
041225_04.42.12.953,-0.02500,-0.00200,1.00400,0.08700,-0.14000,-0.01800,0.57500,0.45900,-1.31400,79.07000,0.05000
041225_04.42.12.964,-0.02500,-0.00200,1.00100,0.12300,-0.14000,-0.01800,0.57500,0.45900,-1.31400,79.03000,-0.04000
041225_04.42.12.976,-0.02400,-0.00000,1.00200,0.12300,-0.14000,-0.01800,0.56700,0.46200,-1.31100,79.33000,0.30000
041225_04.42.12.987,-0.02600,-0.00200,1.00200,0.10500,-0.12300,-0.03500,0.56700,0.46000,-1.30800,79.70000,0.37000
041225_04.42.12.999,-0.02500,-0.00100,1.00200,0.12300,-0.10500,-0.01800,0.56600,0.46000,-1.30500,78.75000,-0.95000
041225_04.42.13.010,-0.02600,-0.00000,1.00200,0.12300,-0.10500,-0.01800,0.56500,0.46100,-1.30800,78.82000,0.07000
041225_04.42.13.022,-0.02500,0.00000,0.99900,0.08700,-0.12300,0.00000,0.56500,0.46100,-1.30800,78.54000,-0.28000
041225_04.42.13.033,-0.02600,-0.00200,1.00300,0.10500,-0.12300,-0.03500,0.55800,0.46100,-1.30700,78.66000,0.12000
041225_04.42.13.045,-0.02400,0.00000,1.00200,0.10500,-0.12300,-0.03500,0.56000,0.46200,-1.30400,78.27000,-0.39000
041225_04.42.13.056,-0.02500,-0.00100,1.00100,0.10500,-0.12300,0.00000,0.55700,0.46400,-1.31200,78.51000,0.24000
041225_04.42.13.067,-0.02500,-0.00100,1.00500,0.08700,-0.14000,-0.03500,0.55700,0.46400,-1.31200,78.18000,-0.33000
041225_04.42.13.079,-0.02500,-0.00100,1.00300,0.10500,-0.14000,-0.01800,0.55200,0.46300,-1.31200,79.07000,0.89000
041225_04.42.13.090,-0.02500,-0.00000,1.00400,0.08700,-0.12300,-0.03500,0.55900,0.45600,-1.31100,78.67000,-0.40000
041225_04.42.13.102,-0.02500,0.00000,1.00100,0.08700,-0.14000,-0.03500,0.56600,0.45800,-1.30800,78.32000,-0.35000
041225_04.42.13.113,-0.02500,-0.00100,1.00500,0.07000,-0.14000,-0.03500,0.56600,0.45800,-1.31100,78.51000,0.19000
041225_04.42.13.125,-0.02400,-0.00200,1.00200,0.08700,-0.14000,-0.03500,0.56600,0.45800,-1.31100,79.20000,0.69000
041225_04.42.13.136,-0.02600,-0.00100,1.00200,0.10500,-0.12300,-0.03500,0.56800,0.45700,-1.31400,78.97000,-0.23000
041225_04.42.13.148,-0.02500,-0.00300,1.00500,0.08700,-0.14000,-0.03500,0.56700,0.46000,-1.31800,78.24000,-0.73000
041225_04.42.13.159,-0.02400,-0.00100,1.00100,0.08700,-0.15700,-0.03500,0.57000,0.45600,-1.31400,79.36000,1.12000
041225_04.42.13.171,-0.02500,-0.00100,1.00400,0.10500,-0.14000,-0.01800,0.57200,0.45800,-1.31000,78.84000,-0.52000
041225_04.42.13.182,-0.02400,0.00000,1.00500,0.10500,-0.12300,-0.01800,0.57200,0.45800,-1.31000,78.15000,-0.69000
041225_04.42.13.194,-0.02400,-0.00100,1.00100,0.07000,-0.14000,-0.03500,0.57300,0.46100,-1.31500,79.46000,1.31000
041225_04.42.13.205,-0.02400,-0.00200,1.00400,0.07000,-0.12300,-0.03500,0.57500,0.45200,-1.31300,78.08000,-1.38000
041225_04.42.13.217,-0.02400,-0.00100,1.00200,0.10500,-0.12300,-0.03500,0.57000,0.45900,-1.31200,78.50000,0.42000
041225_04.42.13.228,-0.02400,-0.00100,1.00400,0.08700,-0.10500,-0.03500,0.57000,0.45900,-1.30700,78.95000,0.45000
041225_04.42.13.240,-0.02500,-0.00200,1.00100,0.07000,-0.10500,-0.01800,0.56800,0.45400,-1.30700,78.54000,-0.41000
041225_04.42.13.251,-0.02400,-0.00300,1.00400,0.08700,-0.10500,0.00000,0.57200,0.46200,-1.31400,78.70000,0.16000
041225_04.42.13.263,-0.02400,-0.00300,1.00100,0.10500,-0.14000,-0.03500,0.56600,0.45900,-1.31300,78.86000,0.16000
041225_04.42.13.274,-0.02400,-0.00100,1.00300,0.08700,-0.12300,-0.01800,0.56600,0.46400,-1.30800,78.39000,-0.47000
041225_04.42.13.286,-0.02500,-0.00200,1.00300,0.08700,-0.14000,-0.01800,0.56600,0.46400,-1.30800,78.82000,0.43000
041225_04.42.13.297,-0.02500,-0.00200,1.00000,0.10500,-0.14000,-0.01800,0.56300,0.46000,-1.31000,78.80000,-0.02000
041225_04.42.13.308,-0.02400,-0.00200,1.00400,0.10500,-0.14000,-0.01800,0.55700,0.46200,-1.31000,79.12000,0.32000
041225_04.42.13.320,-0.02500,-0.00200,1.00300,0.08700,-0.12300,-0.01800,0.55600,0.45900,-1.31200,78.56000,-0.56000
041225_04.42.13.331,-0.02500,-0.00200,1.00100,0.07000,-0.14000,-0.01800,0.55600,0.45700,-1.31000,79.09000,0.53000
041225_04.42.13.343,-0.02400,-0.00200,1.00400,0.10500,-0.12300,-0.01800,0.55600,0.45700,-1.31000,79.28000,0.19000
041225_04.42.13.354,-0.02400,-0.00200,1.00100,0.10500,-0.14000,-0.03500,0.55200,0.45900,-1.31200,79.04000,-0.24000
041225_04.42.13.366,-0.02500,-0.00200,1.00400,0.10500,-0.14000,-0.03500,0.55700,0.46000,-1.31800,79.38000,0.34000
041225_04.42.13.378,-0.02500,-0.00100,1.00200,0.10500,-0.14000,0.00000,0.56100,0.46200,-1.31500,78.90000,-0.48000
041225_04.42.13.389,-0.02300,-0.00100,1.00000,0.08700,-0.12300,0.00000,0.56100,0.46200,-1.31900,79.43000,0.53000
041225_04.42.13.401,-0.02400,-0.00200,1.00200,0.08700,-0.12300,-0.01800,0.55700,0.46000,-1.31900,78.89000,-0.54000
041225_04.42.13.412,-0.02500,-0.00100,1.00100,0.07000,-0.14000,-0.01800,0.56400,0.45700,-1.31400,79.20000,0.31000
041225_04.42.13.424,-0.02700,-0.00400,1.00300,0.07000,-0.10500,-0.01800,0.56900,0.46300,-1.31700,78.23000,-0.97000
041225_04.42.13.435,-0.02400,-0.00100,1.00100,0.07000,-0.12300,-0.01800,0.57200,0.45700,-1.31200,78.67000,0.44000
041225_04.42.13.446,-0.02400,-0.00100,1.00400,0.07000,-0.10500,-0.01800,0.57200,0.45700,-1.31200,78.92000,0.25000
041225_04.42.13.459,-0.02500,-0.00100,1.00200,0.10500,-0.12300,-0.03500,0.56900,0.45800,-1.32400,78.56000,-0.36000
041225_04.42.13.470,-0.02500,-0.00100,1.00100,0.07000,-0.12300,0.00000,0.56900,0.46400,-1.31800,79.13000,0.57000
041225_04.42.13.482,-0.02500,-0.00200,1.00400,0.10500,-0.12300,-0.01800,0.56900,0.45600,-1.31400,78.74000,-0.39000
041225_04.42.13.494,-0.02500,-0.00000,1.00000,0.08700,-0.10500,-0.03500,0.57200,0.45700,-1.31500,78.94000,0.20000
041225_04.42.13.505,-0.02500,-0.00200,1.00400,0.08700,-0.10500,-0.03500,0.57200,0.45700,-1.31500,79.03000,0.09000
041225_04.42.13.517,-0.02500,-0.00100,1.00300,0.08700,-0.12300,-0.03500,0.57100,0.46100,-1.31100,78.72000,-0.31000
041225_04.42.13.529,-0.02300,-0.00000,1.00100,0.10500,-0.12300,-0.01800,0.57100,0.46000,-1.31200,79.11000,0.39000
041225_04.42.13.540,-0.02400,-0.00200,1.00500,0.10500,-0.10500,-0.01800,0.56700,0.45800,-1.31000,78.73000,-0.38000
041225_04.42.13.552,-0.02500,-0.00100,1.00200,0.10500,-0.12300,-0.01800,0.56700,0.45800,-1.30900,78.14000,-0.59000
041225_04.42.13.564,-0.02300,-0.00100,1.00400,0.08700,-0.12300,-0.01800,0.56700,0.46400,-1.30900,78.57000,0.43000
041225_04.42.13.575,-0.02400,-0.00100,1.00100,0.08700,-0.10500,-0.03500,0.56300,0.45900,-1.31100,78.55000,-0.02000
041225_04.42.13.587,-0.02500,-0.00100,1.00500,0.08700,-0.12300,0.00000,0.55900,0.46000,-1.31500,78.71000,0.16000
041225_04.42.13.599,-0.02400,-0.00200,1.00300,0.08700,-0.12300,0.00000,0.55700,0.46200,-1.30500,78.64000,-0.07000
041225_04.42.13.610,-0.02400,-0.00100,1.00300,0.08700,-0.12300,0.00000,0.55700,0.46200,-1.30500,79.17000,0.53000
041225_04.42.13.622,-0.02500,-0.00200,1.00400,0.07000,-0.12300,-0.01800,0.55600,0.46100,-1.30300,78.52000,-0.65000
041225_04.42.13.634,-0.02500,-0.00000,1.00000,0.07000,-0.12300,-0.01800,0.55600,0.45700,-1.30900,79.08000,0.56000
041225_04.42.13.645,-0.02400,-0.00100,1.00400,0.08700,-0.14000,-0.01800,0.55600,0.45800,-1.30800,78.34000,-0.74000
041225_04.42.13.657,-0.02500,-0.00200,1.00200,0.08700,-0.14000,-0.01800,0.55900,0.45800,-1.31200,78.65000,0.31000
041225_04.42.13.669,-0.02400,-0.00100,1.00000,0.07000,-0.12300,-0.01800,0.55900,0.45800,-1.31200,78.43000,-0.22000
041225_04.42.13.681,-0.02600,-0.00200,1.00400,0.07000,-0.10500,-0.01800,0.56400,0.45800,-1.30700,79.08000,0.65000
041225_04.42.13.692,-0.02500,-0.00200,1.00100,0.10500,-0.12300,-0.01800,0.56500,0.45800,-1.30800,79.08000,0.00000
041225_04.42.13.704,-0.02500,-0.00100,1.00200,0.10500,-0.12300,-0.01800,0.56600,0.45900,-1.31600,78.83000,-0.25000
041225_04.42.13.716,-0.02600,-0.00200,1.00300,0.08700,-0.12300,-0.01800,0.56600,0.45900,-1.31300,78.77000,-0.06000
041225_04.42.13.727,-0.02700,-0.00200,1.00300,0.08700,-0.08700,-0.03500,0.56600,0.45600,-1.31300,79.39000,0.62000
041225_04.42.13.739,-0.02600,-0.00200,1.00200,0.10500,-0.12300,-0.01800,0.57100,0.46300,-1.31400,79.41000,0.02000
041225_04.42.13.751,-0.02600,-0.00200,1.00100,0.08700,-0.12300,-0.03500,0.57300,0.45800,-1.31300,78.75000,-0.66000
041225_04.42.13.763,-0.02700,-0.00200,1.00300,0.08700,-0.10500,-0.03500,0.57300,0.45800,-1.32600,79.18000,0.43000
041225_04.42.13.774,-0.02600,-0.00200,1.00000,0.08700,-0.14000,-0.03500,0.57300,0.45800,-1.32600,79.38000,0.20000
041225_04.42.13.786,-0.02500,-0.00300,1.00300,0.08700,-0.14000,-0.01800,0.57100,0.45900,-1.31500,78.75000,-0.63000
041225_04.42.13.798,-0.02500,-0.00100,1.00300,0.08700,-0.12300,-0.01800,0.56600,0.46100,-1.31200,78.72000,-0.03000
041225_04.42.13.810,-0.02500,-0.00200,1.00000,0.08700,-0.14000,-0.01800,0.56300,0.46200,-1.31400,78.52000,-0.20000
041225_04.42.13.821,-0.02500,-0.00300,1.00500,0.10500,-0.15700,-0.01800,0.56600,0.46000,-1.31500,78.61000,0.09000
041225_04.42.13.833,-0.02400,-0.00000,1.00200,0.08700,-0.14000,-0.03500,0.56600,0.46000,-1.31500,78.98000,0.37000
041225_04.42.13.845,-0.02400,0.00000,1.00200,0.08700,-0.12300,-0.03500,0.56600,0.46100,-1.31800,78.64000,-0.34000
041225_04.42.13.856,-0.02500,-0.00200,1.00400,0.08700,-0.14000,-0.01800,0.56100,0.46000,-1.31000,78.88000,0.24000
041225_04.42.13.868,-0.02500,-0.00100,1.00100,0.08700,-0.10500,-0.01800,0.56000,0.46100,-1.30400,78.71000,-0.17000
041225_04.42.13.880,-0.02500,-0.00200,1.00500,0.07000,-0.14000,-0.03500,0.56000,0.46100,-1.30700,78.66000,-0.05000
041225_04.42.13.891,-0.02400,-0.00100,1.00100,0.08700,-0.10500,-0.03500,0.55600,0.46500,-1.30700,78.94000,0.28000
041225_04.42.13.903,-0.02600,-0.00200,1.00600,0.07000,-0.12300,-0.03500,0.55200,0.46300,-1.32000,79.40000,0.46000
041225_04.42.13.914,-0.02400,-0.00100,1.00100,0.08700,-0.12300,-0.03500,0.55900,0.46200,-1.31300,78.86000,-0.54000
041225_04.42.13.926,-0.02400,-0.00100,1.00400,0.08700,-0.12300,-0.01800,0.55500,0.46000,-1.31600,78.72000,-0.14000
041225_04.42.13.938,-0.02400,-0.00200,1.00300,0.07000,-0.12300,-0.03500,0.55500,0.46000,-1.31600,78.82000,0.10000
041225_04.42.13.949,-0.02400,-0.00200,1.00100,0.08700,-0.14000,-0.03500,0.56000,0.45800,-1.31800,78.71000,-0.11000
041225_04.42.13.961,-0.02500,-0.00200,1.00400,0.08700,-0.10500,-0.01800,0.56100,0.46000,-1.31400,79.62000,0.91000
041225_04.42.13.973,-0.02500,-0.00200,0.99900,0.07000,-0.15700,-0.01800,0.56600,0.45700,-1.31500,79.13000,-0.49000
041225_04.42.13.984,-0.02300,-0.00200,1.00300,0.08700,-0.14000,-0.01800,0.56900,0.45600,-1.31200,78.71000,-0.42000
041225_04.42.13.996,-0.02500,-0.00300,1.00300,0.08700,-0.14000,0.00000,0.56900,0.45600,-1.31200,78.98000,0.27000
041225_04.42.14.008,-0.02400,-0.00100,1.00100,0.07000,-0.15700,-0.01800,0.57200,0.45500,-1.31600,78.24000,-0.74000
041225_04.42.14.019,-0.02600,-0.00200,1.00400,0.07000,-0.12300,-0.01800,0.57300,0.45900,-1.31900,78.20000,-0.04000
041225_04.42.14.031,-0.02400,-0.00300,1.00100,0.07000,-0.12300,-0.01800,0.57000,0.46300,-1.31500,78.15000,-0.05000
041225_04.42.14.043,-0.02600,-0.00200,1.00000,0.07000,-0.14000,-0.01800,0.57000,0.45700,-1.31500,78.05000,-0.10000
041225_04.42.14.054,-0.02500,-0.00200,1.00100,0.08700,-0.14000,-0.03500,0.57200,0.45700,-1.31500,79.47000,1.42000
041225_04.42.14.066,-0.02500,-0.00300,1.00300,0.10500,-0.14000,-0.01800,0.57300,0.45700,-1.31600,79.18000,-0.29000
041225_04.42.14.078,-0.02300,-0.00300,1.00100,0.10500,-0.14000,-0.03500,0.57000,0.45800,-1.31400,78.36000,-0.82000
041225_04.42.14.089,-0.02400,-0.00300,1.00000,0.08700,-0.12300,-0.01800,0.56700,0.46300,-1.31800,78.80000,0.44000
041225_04.42.14.101,-0.02500,-0.00300,1.00300,0.08700,-0.12300,-0.01800,0.56700,0.46300,-1.31800,78.97000,0.17000
041225_04.42.14.113,-0.02200,-0.00200,1.00000,0.10500,-0.15700,-0.01800,0.56200,0.45800,-1.31400,78.84000,-0.13000
041225_04.42.14.124,-0.02400,-0.00100,1.00100,0.07000,-0.12300,-0.01800,0.56500,0.45900,-1.31400,78.74000,-0.10000
041225_04.42.14.136,-0.02300,-0.00200,1.00300,0.10500,-0.14000,-0.03500,0.56400,0.46000,-1.31900,78.37000,-0.37000
041225_04.42.14.148,-0.02300,-0.00200,1.00000,0.08700,-0.12300,-0.03500,0.56100,0.46200,-1.31500,78.63000,0.26000
041225_04.42.14.159,-0.02300,-0.00200,1.00300,0.10500,-0.12300,-0.03500,0.56100,0.46200,-1.31500,78.96000,0.33000
041225_04.42.14.171,-0.02200,-0.00100,1.00200,0.10500,-0.14000,-0.01800,0.55600,0.46000,-1.31100,78.73000,-0.23000
041225_04.42.14.183,-0.02300,0.00000,1.00100,0.10500,-0.12300,-0.01800,0.55800,0.45500,-1.31100,79.22000,0.49000
041225_04.42.14.194,-0.02200,-0.00300,1.00500,0.10500,-0.10500,-0.01800,0.55600,0.45700,-1.31300,78.28000,-0.94000
041225_04.42.14.206,-0.02300,-0.00100,1.00100,0.12300,-0.12300,-0.03500,0.55600,0.46100,-1.31700,78.52000,0.24000
041225_04.42.14.218,-0.02400,-0.00100,1.00200,0.08700,-0.10500,-0.01800,0.56200,0.46100,-1.31700,79.17000,0.65000
041225_04.42.14.229,-0.02500,-0.00100,1.00100,0.08700,-0.08700,-0.01800,0.56300,0.45600,-1.30800,78.50000,-0.67000
041225_04.42.14.241,-0.02400,-0.00100,1.00500,0.08700,-0.12300,-0.01800,0.56600,0.45600,-1.30900,78.92000,0.42000
041225_04.42.14.253,-0.02400,0.00000,1.00200,0.12300,-0.12300,0.00000,0.56600,0.45700,-1.30600,79.14000,0.22000
041225_04.42.14.264,-0.02500,-0.00100,1.00300,0.08700,-0.10500,-0.01800,0.56600,0.45700,-1.30600,78.33000,-0.81000
041225_04.42.14.276,-0.02600,-0.00100,1.00500,0.08700,-0.10500,0.00000,0.56800,0.45800,-1.31200,78.46000,0.13000
041225_04.42.14.287,-0.02600,0.00000,1.00200,0.10500,-0.12300,-0.01800,0.56900,0.45400,-1.32000,78.77000,0.31000
041225_04.42.14.299,-0.02600,-0.00100,1.00400,0.08700,-0.10500,-0.01800,0.56800,0.45700,-1.31400,78.86000,0.09000
041225_04.42.14.311,-0.02500,-0.00200,1.00000,0.10500,-0.12300,-0.01800,0.57300,0.45500,-1.31600,79.19000,0.33000
041225_04.42.14.322,-0.02700,-0.00100,1.00200,0.08700,-0.08700,0.00000,0.57300,0.45500,-1.31600,78.93000,-0.26000
041225_04.42.14.334,-0.02600,-0.00200,1.00500,0.10500,-0.08700,-0.01800,0.57500,0.45800,-1.31500,77.91000,-1.02000
041225_04.42.14.346,-0.02700,-0.00100,1.00100,0.08700,-0.10500,-0.03500,0.57500,0.46400,-1.30700,79.02000,1.11000
041225_04.42.14.357,-0.02700,-0.00200,1.00400,0.08700,-0.08700,-0.03500,0.57100,0.45700,-1.30900,79.07000,0.05000
041225_04.42.14.369,-0.02600,-0.00300,1.00400,0.08700,-0.10500,-0.03500,0.57100,0.45800,-1.31100,78.40000,-0.67000
041225_04.42.14.380,-0.02600,-0.00400,1.00400,0.07000,-0.08700,-0.05300,0.57100,0.45800,-1.31100,78.08000,-0.32000
041225_04.42.14.391,-0.02500,-0.00200,1.00000,0.08700,-0.10500,-0.03500,0.57100,0.46000,-1.30800,78.41000,0.33000
041225_04.42.14.403,-0.02900,-0.00300,1.00300,0.08700,-0.12300,-0.03500,0.56500,0.45500,-1.31600,78.54000,0.13000
041225_04.42.14.414,-0.02800,-0.00200,1.00100,0.07000,-0.14000,-0.01800,0.56400,0.45500,-1.31800,78.22000,-0.32000
041225_04.42.14.426,-0.02600,-0.00200,0.99900,0.05300,-0.14000,-0.03500,0.56400,0.45500,-1.31800,79.09000,0.87000
041225_04.42.14.437,-0.02600,-0.00200,1.00300,0.08700,-0.14000,-0.03500,0.56200,0.45400,-1.30700,78.61000,-0.48000
041225_04.42.14.449,-0.02400,-0.00300,0.99900,0.10500,-0.14000,-0.03500,0.56500,0.45800,-1.31400,78.66000,0.05000
041225_04.42.14.460,-0.02600,-0.00100,1.00200,0.10500,-0.10500,-0.01800,0.56400,0.45800,-1.30800,79.00000,0.34000
041225_04.42.14.471,-0.02500,-0.00100,1.00400,0.10500,-0.12300,-0.03500,0.56000,0.45600,-1.31200,78.13000,-0.87000
041225_04.42.14.483,-0.02500,-0.00100,1.00100,0.10500,-0.14000,-0.01800,0.56000,0.45600,-1.31200,78.93000,0.80000
041225_04.42.14.494,-0.02500,-0.00100,1.00300,0.10500,-0.14000,-0.03500,0.56200,0.45800,-1.31500,79.02000,0.09000
041225_04.42.14.506,-0.02500,-0.00100,1.00200,0.10500,-0.12300,-0.03500,0.56300,0.45700,-1.30900,79.22000,0.20000
041225_04.42.14.517,-0.02400,-0.00100,1.00200,0.08700,-0.15700,-0.01800,0.56700,0.45900,-1.30700,78.83000,-0.39000
041225_04.42.14.529,-0.02600,-0.00300,1.00100,0.10500,-0.15700,-0.01800,0.56700,0.45200,-1.30900,78.90000,0.07000
041225_04.42.14.540,-0.02500,-0.00100,1.00400,0.10500,-0.12300,-0.01800,0.56600,0.45200,-1.30900,79.31000,0.41000
041225_04.42.14.552,-0.02400,-0.00200,1.00200,0.10500,-0.15700,0.00000,0.56900,0.45500,-1.32000,79.00000,-0.31000
041225_04.42.14.563,-0.02300,-0.00100,1.00100,0.10500,-0.14000,-0.01800,0.56900,0.44900,-1.31100,78.25000,-0.75000
041225_04.42.14.575,-0.02500,-0.00100,1.00400,0.10500,-0.12300,-0.03500,0.57000,0.45500,-1.31600,79.35000,1.10000
041225_04.42.14.586,-0.02200,-0.00100,1.00200,0.12300,-0.14000,-0.01800,0.57000,0.45500,-1.31600,78.40000,-0.95000
041225_04.42.14.598,-0.02600,-0.00100,1.00200,0.10500,-0.14000,-0.01800,0.57600,0.45900,-1.31700,78.64000,0.24000
041225_04.42.14.609,-0.02400,-0.00200,1.00400,0.10500,-0.14000,0.00000,0.57300,0.45600,-1.31600,78.74000,0.10000
041225_04.42.14.620,-0.02300,-0.00000,1.00000,0.10500,-0.15700,0.00000,0.56800,0.45800,-1.30900,78.68000,-0.06000
041225_04.42.14.632,-0.02500,-0.00000,1.00200,0.07000,-0.12300,0.00000,0.57100,0.45900,-1.31400,78.34000,-0.34000
041225_04.42.14.643,-0.02500,-0.00100,1.00100,0.10500,-0.14000,-0.01800,0.57100,0.45900,-1.31400,78.65000,0.31000
041225_04.42.14.655,-0.02500,-0.00100,1.00200,0.12300,-0.12300,-0.01800,0.57000,0.45800,-1.31200,78.85000,0.20000
041225_04.42.14.666,-0.02500,-0.00300,1.00500,0.10500,-0.14000,-0.01800,0.56800,0.45800,-1.30800,78.07000,-0.78000
041225_04.42.14.678,-0.02400,-0.00000,0.99900,0.10500,-0.12300,-0.01800,0.56800,0.45800,-1.31000,78.57000,0.50000
041225_04.42.14.690,-0.02600,-0.00100,1.00300,0.12300,-0.12300,0.00000,0.56800,0.45800,-1.30900,79.15000,0.58000
041225_04.42.14.701,-0.02600,-0.00100,1.00000,0.10500,-0.12300,0.00000,0.56300,0.46000,-1.30900,78.87000,-0.28000
041225_04.42.14.713,-0.02400,-0.00100,1.00400,0.08700,-0.12300,-0.03500,0.55600,0.45600,-1.31300,78.74000,-0.13000
041225_04.42.14.725,-0.02500,-0.00000,1.00000,0.10500,-0.14000,-0.03500,0.55700,0.45500,-1.30400,78.94000,0.20000
041225_04.42.14.736,-0.02500,-0.00200,1.00400,0.12300,-0.14000,-0.01800,0.55600,0.45700,-1.30700,78.21000,-0.73000
041225_04.42.14.748,-0.02600,-0.00200,1.00400,0.08700,-0.12300,-0.01800,0.55600,0.45700,-1.30700,78.46000,0.25000
041225_04.42.14.760,-0.02300,-0.00100,1.00000,0.08700,-0.14000,-0.03500,0.55600,0.46000,-1.31200,79.32000,0.86000
041225_04.42.14.771,-0.02500,-0.00300,1.00400,0.10500,-0.14000,-0.03500,0.55600,0.46100,-1.31300,78.85000,-0.47000
041225_04.42.14.783,-0.02500,-0.00200,1.00100,0.12300,-0.12300,-0.03500,0.55900,0.45600,-1.31100,78.79000,-0.06000
041225_04.42.14.795,-0.02500,-0.00200,1.00100,0.10500,-0.10500,-0.01800,0.56100,0.45900,-1.30600,78.67000,-0.12000
041225_04.42.14.806,-0.02500,-0.00100,1.00300,0.10500,-0.12300,-0.01800,0.56100,0.45900,-1.30600,78.64000,-0.03000
041225_04.42.14.818,-0.02300,-0.00200,1.00000,0.10500,-0.14000,-0.01800,0.56500,0.45400,-1.31300,78.78000,0.14000
041225_04.42.14.830,-0.02500,-0.00200,1.00400,0.10500,-0.14000,-0.01800,0.57000,0.45300,-1.31300,78.77000,-0.01000
041225_04.42.14.842,-0.02500,-0.00200,1.00400,0.08700,-0.12300,-0.01800,0.57400,0.45600,-1.31000,78.89000,0.12000
041225_04.42.14.853,-0.02500,-0.00300,1.00500,0.10500,-0.15700,-0.01800,0.57400,0.45600,-1.30800,78.71000,-0.18000
041225_04.42.14.865,-0.02300,-0.00200,1.00000,0.08700,-0.12300,-0.03500,0.57200,0.45600,-1.30800,78.59000,-0.12000
041225_04.42.14.876,-0.02400,-0.00200,1.00400,0.08700,-0.14000,-0.01800,0.57100,0.45700,-1.31200,79.21000,0.62000
041225_04.42.14.887,-0.02300,0.00000,1.00400,0.10500,-0.14000,0.00000,0.57200,0.45600,-1.31300,78.61000,-0.60000
041225_04.42.14.899,-0.02300,-0.00000,1.00100,0.12300,-0.10500,0.00000,0.57200,0.45700,-1.31100,79.10000,0.49000
041225_04.42.14.911,-0.02500,-0.00100,1.00300,0.12300,-0.08700,0.00000,0.57200,0.45700,-1.31100,78.28000,-0.82000
041225_04.42.14.922,-0.02500,-0.00200,1.00000,0.08700,-0.12300,-0.01800,0.56800,0.45700,-1.31100,79.02000,0.74000
041225_04.42.14.934,-0.02500,0.00000,1.00200,0.10500,-0.12300,-0.01800,0.56600,0.45600,-1.30100,78.35000,-0.67000
041225_04.42.14.945,-0.02600,-0.00100,1.00400,0.10500,-0.12300,-0.01800,0.57000,0.45900,-1.30200,78.75000,0.40000
041225_04.42.14.957,-0.02500,0.00100,1.00000,0.12300,-0.12300,0.00000,0.56400,0.45500,-1.30800,78.56000,-0.19000
041225_04.42.14.968,-0.02700,-0.00200,1.00200,0.08700,-0.10500,0.00000,0.56400,0.45500,-1.30800,78.44000,-0.12000
041225_04.42.14.980,-0.02700,-0.00200,1.00200,0.08700,-0.10500,0.00000,0.56500,0.45600,-1.31000,78.18000,-0.26000
041225_04.42.14.991,-0.02700,0.00000,1.00100,0.12300,-0.10500,0.00000,0.55600,0.45800,-1.30900,78.34000,0.16000
041225_04.42.15.003,-0.02700,-0.00200,1.00400,0.08700,-0.14000,-0.01800,0.55600,0.46000,-1.30000,78.90000,0.56000
041225_04.42.15.015,-0.02600,-0.00200,1.00400,0.07000,-0.12300,-0.03500,0.55600,0.46000,-1.30400,79.25000,0.35000
041225_04.42.15.026,-0.02800,-0.00100,1.00400,0.10500,-0.14000,-0.01800,0.55600,0.45400,-1.30400,78.55000,-0.70000
041225_04.42.15.037,-0.02600,-0.00200,1.00000,0.12300,-0.14000,-0.03500,0.56000,0.45500,-1.30600,78.73000,0.18000
041225_04.42.15.049,-0.02700,-0.00200,1.00400,0.10500,-0.14000,-0.03500,0.55500,0.45500,-1.31200,78.73000,0.00000
041225_04.42.15.060,-0.02700,-0.00200,1.00200,0.08700,-0.17500,-0.01800,0.56200,0.45300,-1.30200,79.00000,0.27000
041225_04.42.15.072,-0.02600,-0.00000,1.00400,0.08700,-0.15700,-0.01800,0.56200,0.45300,-1.30200,79.23000,0.23000
041225_04.42.15.083,-0.02400,-0.00200,1.00400,0.10500,-0.17500,-0.01800,0.56200,0.46000,-1.30700,78.63000,-0.60000
041225_04.42.15.095,-0.02600,-0.00100,1.00100,0.10500,-0.14000,-0.03500,0.57000,0.45700,-1.31000,79.23000,0.60000
041225_04.42.15.106,-0.02700,-0.00300,1.00300,0.12300,-0.15700,-0.03500,0.56800,0.45700,-1.31300,78.95000,-0.28000
041225_04.42.15.118,-0.02500,-0.00200,1.00200,0.10500,-0.15700,-0.01800,0.57100,0.45400,-1.31200,78.92000,-0.03000
041225_04.42.15.130,-0.02500,-0.00000,1.00100,0.08700,-0.15700,-0.01800,0.57100,0.45400,-1.31200,79.10000,0.18000
041225_04.42.15.141,-0.02300,-0.00200,1.00500,0.08700,-0.15700,-0.03500,0.57300,0.45700,-1.31000,79.25000,0.15000
041225_04.42.15.153,-0.02300,-0.00200,1.00000,0.10500,-0.14000,-0.03500,0.57300,0.45800,-1.31000,78.37000,-0.88000
041225_04.42.15.164,-0.02400,-0.00300,1.00300,0.10500,-0.15700,-0.03500,0.57300,0.45500,-1.31500,78.76000,0.39000
041225_04.42.15.176,-0.02100,-0.00100,1.00000,0.10500,-0.14000,-0.03500,0.57300,0.45500,-1.31200,78.35000,-0.41000
041225_04.42.15.187,-0.02200,-0.00200,1.00300,0.10500,-0.12300,-0.03500,0.57200,0.45600,-1.31200,79.17000,0.82000
041225_04.42.15.199,-0.02200,-0.00200,1.00100,0.12300,-0.14000,-0.03500,0.57000,0.45500,-1.30900,79.21000,0.04000
041225_04.42.15.210,-0.02200,0.00100,1.00300,0.10500,-0.12300,-0.01800,0.57000,0.45400,-1.30600,79.06000,-0.15000
041225_04.42.15.222,-0.02200,-0.00200,1.00300,0.10500,-0.14000,-0.01800,0.56700,0.45500,-1.30400,79.59000,0.53000
041225_04.42.15.233,-0.02200,-0.00200,1.00100,0.10500,-0.12300,0.00000,0.56700,0.45500,-1.30400,78.88000,-0.71000
041225_04.42.15.245,-0.02200,-0.00200,1.00300,0.10500,-0.14000,0.00000,0.56700,0.45500,-1.31100,78.87000,-0.01000
041225_04.42.15.256,-0.02100,-0.00300,1.00300,0.08700,-0.14000,0.00000,0.56200,0.45100,-1.30600,79.08000,0.21000
041225_04.42.15.268,-0.02300,-0.00100,1.00100,0.10500,-0.12300,-0.03500,0.55800,0.45500,-1.31000,78.66000,-0.42000
041225_04.42.15.280,-0.02300,-0.00100,1.00400,0.10500,-0.12300,-0.01800,0.56200,0.45900,-1.31300,78.62000,-0.04000
041225_04.42.15.291,-0.02200,-0.00000,1.00100,0.12300,-0.12300,-0.01800,0.56200,0.45900,-1.31300,78.53000,-0.09000
041225_04.42.15.303,-0.02400,-0.00200,1.00300,0.10500,-0.10500,0.00000,0.55400,0.45400,-1.30700,78.90000,0.37000
041225_04.42.15.314,-0.02400,-0.00100,1.00300,0.08700,-0.10500,0.00000,0.55600,0.46000,-1.30900,78.92000,0.02000
041225_04.42.15.326,-0.02400,-0.00000,1.00100,0.08700,-0.10500,0.00000,0.55700,0.45500,-1.30400,78.35000,-0.57000
041225_04.42.15.337,-0.02400,-0.00300,1.00100,0.10500,-0.12300,-0.01800,0.55700,0.45500,-1.31400,79.13000,0.78000
041225_04.42.15.349,-0.02600,-0.00100,1.00300,0.08700,-0.14000,0.00000,0.55900,0.45600,-1.31400,78.52000,-0.61000
041225_04.42.15.360,-0.02500,-0.00000,1.00200,0.08700,-0.10500,-0.01800,0.56100,0.46200,-1.31600,78.65000,0.13000
041225_04.42.15.372,-0.02600,-0.00100,1.00100,0.08700,-0.10500,-0.01800,0.57000,0.45600,-1.31900,78.52000,-0.13000
041225_04.42.15.383,-0.02600,-0.00200,1.00400,0.08700,-0.10500,-0.03500,0.57200,0.45600,-1.31100,78.61000,0.09000
041225_04.42.15.395,-0.02500,-0.00100,1.00200,0.10500,-0.14000,-0.03500,0.57200,0.45600,-1.31100,78.55000,-0.06000
041225_04.42.15.406,-0.02700,-0.00100,1.00000,0.08700,-0.10500,-0.05300,0.57400,0.45800,-1.31600,79.00000,0.45000
041225_04.42.15.418,-0.02600,-0.00200,1.00300,0.08700,-0.10500,-0.03500,0.57500,0.46000,-1.31700,78.84000,-0.16000
041225_04.42.15.430,-0.02700,-0.00000,1.00000,0.08700,-0.10500,-0.03500,0.57200,0.45900,-1.31200,78.83000,-0.01000
041225_04.42.15.441,-0.02800,-0.00100,1.00300,0.07000,-0.10500,-0.03500,0.56900,0.45800,-1.30600,79.43000,0.60000
041225_04.42.15.453,-0.02700,-0.00000,1.00200,0.07000,-0.14000,-0.01800,0.56900,0.45800,-1.30600,79.02000,-0.41000
041225_04.42.15.464,-0.02500,-0.00100,1.00000,0.05300,-0.10500,-0.03500,0.57200,0.45600,-1.30800,78.73000,-0.29000
041225_04.42.15.476,-0.02700,-0.00100,1.00500,0.08700,-0.10500,-0.03500,0.57200,0.46000,-1.30800,78.11000,-0.62000
041225_04.42.15.487,-0.02700,-0.00200,1.00100,0.10500,-0.10500,-0.05300,0.56600,0.45700,-1.30500,78.24000,0.13000
041225_04.42.15.499,-0.02600,-0.00100,1.00200,0.08700,-0.12300,-0.03500,0.56600,0.45700,-1.31000,78.46000,0.22000
041225_04.42.15.510,-0.02500,-0.00100,1.00000,0.10500,-0.15700,-0.01800,0.56700,0.46200,-1.31000,77.99000,-0.47000
041225_04.42.15.521,-0.02600,-0.00200,1.00500,0.08700,-0.12300,-0.01800,0.56400,0.45900,-1.30400,78.54000,0.55000
041225_04.42.15.533,-0.02500,-0.00000,1.00200,0.08700,-0.12300,-0.03500,0.56100,0.46000,-1.30200,78.58000,0.04000
041225_04.42.15.544,-0.02400,-0.00100,1.00200,0.08700,-0.12300,-0.01800,0.55800,0.45900,-1.30800,78.01000,-0.57000
041225_04.42.15.556,-0.02700,-0.00300,1.00200,0.08700,-0.14000,-0.01800,0.55800,0.45900,-1.30800,78.28000,0.27000
041225_04.42.15.567,-0.02400,-0.00200,1.00100,0.08700,-0.12300,-0.03500,0.55600,0.45900,-1.31000,78.76000,0.48000
041225_04.42.15.579,-0.02500,-0.00200,1.00400,0.08700,-0.14000,-0.01800,0.55700,0.45800,-1.30500,78.68000,-0.08000
041225_04.42.15.591,-0.02400,-0.00200,1.00200,0.08700,-0.14000,-0.01800,0.55900,0.45600,-1.31200,79.17000,0.49000
041225_04.42.15.602,-0.02400,-0.00200,1.00100,0.10500,-0.14000,-0.01800,0.55600,0.45900,-1.30800,78.01000,-1.16000
041225_04.42.15.614,-0.02600,-0.00200,1.00400,0.10500,-0.14000,-0.01800,0.55600,0.45900,-1.30800,78.54000,0.53000
041225_04.42.15.625,-0.02400,-0.00200,0.99900,0.08700,-0.15700,-0.03500,0.56200,0.45800,-1.30900,78.30000,-0.24000
041225_04.42.15.637,-0.02500,-0.00200,1.00300,0.08700,-0.15700,-0.01800,0.56600,0.46000,-1.31400,78.70000,0.40000
041225_04.42.15.648,-0.02500,-0.00200,0.97200,0.08700,-0.14000,-0.01800,0.57000,0.46000,-1.31600,78.41000,-0.29000
041225_04.42.15.660,-0.02600,-0.00100,1.00300,0.08700,-0.14000,-0.01800,0.57000,0.46000,-1.30900,78.48000,0.07000
041225_04.42.15.672,-0.02300,-0.00300,1.00200,0.10500,-0.14000,-0.01800,0.57000,0.45700,-1.30900,78.77000,0.29000
041225_04.42.15.683,-0.02300,-0.00000,1.00000,0.10500,-0.12300,-0.01800,0.57200,0.45800,-1.31400,78.04000,-0.73000
041225_04.42.15.695,-0.02500,-0.00200,1.00200,0.10500,-0.14000,-0.01800,0.57200,0.46400,-1.31100,79.04000,1.00000
041225_04.42.15.706,-0.02200,-0.00100,1.00100,0.08700,-0.14000,-0.01800,0.57200,0.46300,-1.31100,78.87000,-0.17000
041225_04.42.15.718,-0.02400,-0.00200,1.00400,0.07000,-0.14000,-0.03500,0.57200,0.46300,-1.31100,78.43000,-0.44000
041225_04.42.15.730,-0.02300,-0.00200,1.00200,0.07000,-0.17500,-0.03500,0.57400,0.46100,-1.31400,78.88000,0.45000
041225_04.42.15.741,-0.02300,0.00100,0.99900,0.08700,-0.14000,-0.01800,0.57300,0.45800,-1.31800,78.46000,-0.42000
041225_04.42.15.753,-0.02300,-0.00200,1.00400,0.08700,-0.12300,0.00000,0.56900,0.45900,-1.31400,79.27000,0.81000
041225_04.42.15.765,-0.02300,-0.00000,1.00000,0.08700,-0.12300,-0.01800,0.57000,0.46000,-1.31600,78.72000,-0.55000
041225_04.42.15.776,-0.02400,-0.00100,1.00200,0.08700,-0.10500,-0.03500,0.57000,0.46000,-1.31600,79.05000,0.33000
041225_04.42.15.788,-0.02400,-0.00100,1.00400,0.08700,-0.14000,-0.01800,0.56700,0.45800,-1.31400,78.09000,-0.96000
041225_04.42.15.799,-0.02400,-0.00100,1.00100,0.10500,-0.12300,-0.01800,0.56200,0.45900,-1.30900,78.54000,0.45000
041225_04.42.15.811,-0.02300,-0.00000,1.00100,0.08700,-0.12300,-0.01800,0.56500,0.46000,-1.31400,79.17000,0.63000
041225_04.42.15.822,-0.02500,-0.00000,1.00200,0.10500,-0.12300,-0.01800,0.56500,0.46000,-1.30300,78.82000,-0.35000
041225_04.42.15.834,-0.02400,-0.00100,1.00400,0.08700,-0.12300,-0.01800,0.56200,0.45500,-1.30300,78.95000,0.13000
041225_04.42.15.845,-0.02400,-0.00000,1.00100,0.10500,-0.10500,-0.03500,0.56300,0.45700,-1.30500,78.82000,-0.13000
041225_04.42.15.857,-0.02400,-0.00100,1.00500,0.08700,-0.12300,-0.03500,0.55400,0.45700,-1.30900,78.69000,-0.13000
041225_04.42.15.869,-0.02300,-0.00100,1.00200,0.08700,-0.10500,-0.01800,0.56100,0.45800,-1.31300,78.93000,0.24000
041225_04.42.15.880,-0.02400,0.00000,1.00200,0.08700,-0.10500,-0.01800,0.56100,0.45800,-1.31300,78.10000,-0.83000
041225_04.42.15.892,-0.02500,-0.00200,1.00400,0.08700,-0.08700,-0.01800,0.56200,0.45300,-1.31300,78.65000,0.55000
041225_04.42.15.903,-0.02500,-0.00000,1.00100,0.08700,-0.12300,-0.01800,0.56500,0.45200,-1.29900,79.17000,0.52000
041225_04.42.15.915,-0.02500,-0.00100,1.00400,0.07000,-0.12300,-0.01800,0.57000,0.45900,-1.31000,78.43000,-0.74000
041225_04.42.15.926,-0.02500,-0.00100,1.00100,0.07000,-0.10500,-0.03500,0.56900,0.45500,-1.30400,79.28000,0.85000
041225_04.42.15.938,-0.02400,-0.00200,1.00100,0.07000,-0.10500,-0.03500,0.56900,0.45500,-1.30400,79.45000,0.17000
041225_04.42.15.949,-0.02600,-0.00100,1.00400,0.08700,-0.08700,-0.01800,0.57000,0.45500,-1.31000,78.78000,-0.67000
041225_04.42.15.960,-0.02500,-0.00100,1.00100,0.08700,-0.12300,0.00000,0.57500,0.45800,-1.31000,78.95000,0.17000
041225_04.42.15.972,-0.02700,-0.00100,1.00400,0.07000,-0.12300,0.00000,0.57700,0.46100,-1.31800,78.30000,-0.65000
041225_04.42.15.983,-0.02500,-0.00200,1.00000,0.08700,-0.10500,-0.01800,0.57700,0.46100,-1.31800,78.75000,0.45000
041225_04.42.15.995,-0.02700,-0.00300,1.00200,0.08700,-0.08700,-0.01800,0.57600,0.45800,-1.31100,78.91000,0.16000
041225_04.42.16.006,-0.02700,-0.00400,1.00100,0.07000,-0.12300,-0.01800,0.57600,0.45800,-1.30600,79.71000,0.80000
041225_04.42.16.018,-0.02600,-0.00200,1.00000,0.07000,-0.10500,-0.01800,0.58000,0.46000,-1.30500,78.94000,-0.77000
041225_04.42.16.030,-0.02700,-0.00300,1.00400,0.08700,-0.10500,-0.01800,0.57500,0.45800,-1.30400,79.27000,0.33000
041225_04.42.16.041,-0.02600,-0.00100,1.00000,0.05300,-0.14000,-0.01800,0.57500,0.45800,-1.30400,78.26000,-1.01000
041225_04.42.16.053,-0.02800,-0.00400,1.00100,0.08700,-0.12300,-0.01800,0.57600,0.45800,-1.30500,78.66000,0.40000
041225_04.42.16.065,-0.02500,-0.00200,1.00200,0.08700,-0.10500,-0.01800,0.57100,0.46300,-1.30600,78.72000,0.06000
041225_04.42.16.076,-0.02600,-0.00300,1.00000,0.08700,-0.10500,-0.01800,0.57100,0.45600,-1.30200,79.37000,0.65000
041225_04.42.16.088,-0.02600,-0.00200,1.00500,0.08700,-0.12300,0.00000,0.57100,0.46100,-1.30000,78.79000,-0.58000
041225_04.42.16.099,-0.02600,-0.00100,1.00100,0.08700,-0.10500,-0.01800,0.57100,0.46100,-1.30000,78.97000,0.18000
041225_04.42.16.111,-0.02700,-0.00100,1.00100,0.07000,-0.12300,-0.01800,0.56200,0.46300,-1.30500,79.28000,0.31000
041225_04.42.16.123,-0.02400,-0.00400,1.00400,0.10500,-0.12300,-0.01800,0.56300,0.45600,-1.30100,78.68000,-0.60000
041225_04.42.16.134,-0.02400,-0.00100,1.00400,0.10500,-0.14000,-0.01800,0.55500,0.46000,-1.30600,78.75000,0.07000
041225_04.42.16.146,-0.02300,-0.00200,1.00100,0.08700,-0.15700,-0.03500,0.55500,0.46000,-1.30600,79.33000,0.58000
041225_04.42.16.158,-0.02500,-0.00100,1.00000,0.08700,-0.14000,-0.03500,0.55700,0.45800,-1.30300,79.07000,-0.26000
041225_04.42.16.169,-0.02300,-0.00300,1.00400,0.08700,-0.17500,-0.03500,0.56000,0.45400,-1.30400,78.81000,-0.26000
041225_04.42.16.181,-0.02200,0.00000,0.99900,0.12300,-0.14000,-0.01800,0.56100,0.45700,-1.30400,78.72000,-0.09000
041225_04.42.16.193,-0.02400,-0.00200,1.00300,0.12300,-0.12300,-0.03500,0.56300,0.45400,-1.30000,78.35000,-0.37000
041225_04.42.16.204,-0.02200,-0.00100,1.00200,0.10500,-0.12300,-0.03500,0.56300,0.45400,-1.30000,78.54000,0.19000
041225_04.42.16.216,-0.02100,0.00100,1.00000,0.08700,-0.12300,-0.03500,0.57200,0.45300,-1.30800,78.56000,0.02000
041225_04.42.16.227,-0.02400,0.00000,1.00600,0.10500,-0.14000,-0.01800,0.57000,0.45400,-1.31100,79.34000,0.78000
041225_04.42.16.239,-0.02200,-0.00000,1.00100,0.08700,-0.12300,-0.01800,0.56800,0.45200,-1.31600,78.37000,-0.97000
041225_04.42.16.250,-0.02100,-0.00000,1.00200,0.12300,-0.12300,-0.01800,0.57400,0.45300,-1.31200,78.69000,0.32000
041225_04.42.16.262,-0.02300,-0.00100,1.00400,0.12300,-0.14000,0.00000,0.57400,0.45300,-1.31200,79.55000,0.86000
041225_04.42.16.274,-0.02300,-0.00000,1.00200,0.12300,-0.12300,-0.01800,0.57300,0.45600,-1.31100,79.27000,-0.28000
041225_04.42.16.285,-0.02300,-0.00000,1.00500,0.12300,-0.12300,-0.01800,0.57700,0.45700,-1.31200,78.81000,-0.46000
041225_04.42.16.297,-0.02400,-0.00000,1.00200,0.08700,-0.10500,-0.01800,0.57500,0.45900,-1.31500,78.49000,-0.32000
041225_04.42.16.309,-0.02400,-0.00000,1.00500,0.08700,-0.10500,-0.01800,0.57500,0.45900,-1.31500,79.04000,0.55000
041225_04.42.16.320,-0.02400,0.00100,1.00000,0.08700,-0.12300,-0.01800,0.56900,0.45200,-1.30600,78.70000,-0.34000
041225_04.42.16.332,-0.02500,-0.00100,1.00300,0.10500,-0.10500,-0.01800,0.56800,0.45300,-1.31700,78.61000,-0.09000
041225_04.42.16.343,-0.02500,-0.00200,1.00400,0.08700,-0.10500,0.00000,0.57100,0.46000,-1.31100,78.57000,-0.04000
041225_04.42.16.355,-0.02500,-0.00100,1.00200,0.08700,-0.12300,0.00000,0.56800,0.45800,-1.31300,79.12000,0.55000
041225_04.42.16.366,-0.02600,-0.00100,1.00300,0.08700,-0.14000,-0.01800,0.56800,0.45800,-1.31300,78.71000,-0.41000
041225_04.42.16.378,-0.02500,-0.00200,1.00100,0.07000,-0.14000,-0.01800,0.56800,0.46100,-1.31500,79.16000,0.45000
041225_04.42.16.390,-0.02500,-0.00200,1.00200,0.07000,-0.14000,-0.01800,0.55900,0.45700,-1.31500,78.23000,-0.93000
041225_04.42.16.401,-0.02600,-0.00100,1.00200,0.08700,-0.14000,-0.01800,0.56400,0.45500,-1.31200,79.18000,0.95000
041225_04.42.16.413,-0.02500,-0.00000,1.00100,0.07000,-0.14000,-0.01800,0.55200,0.45600,-1.31700,79.51000,0.33000
041225_04.42.16.425,-0.02600,-0.00100,1.00600,0.05300,-0.14000,-0.01800,0.55200,0.45600,-1.31700,78.53000,-0.98000
041225_04.42.16.436,-0.02500,-0.00200,1.00000,0.08700,-0.14000,-0.03500,0.55600,0.45600,-1.31700,79.23000,0.70000
041225_04.42.16.448,-0.02500,-0.00200,1.00100,0.10500,-0.12300,-0.01800,0.55500,0.45500,-1.32000,78.52000,-0.71000
041225_04.42.16.460,-0.02600,-0.00200,1.00000,0.08700,-0.14000,-0.01800,0.55800,0.45500,-1.31500,78.83000,0.31000
041225_04.42.16.471,-0.02500,-0.00300,1.00200,0.08700,-0.14000,0.00000,0.55800,0.45500,-1.31500,79.25000,0.42000
041225_04.42.16.483,-0.02300,-0.00300,1.00100,0.10500,-0.15700,-0.03500,0.56300,0.46000,-1.31500,79.09000,-0.16000
041225_04.42.16.494,-0.02500,-0.00200,0.99900,0.12300,-0.12300,-0.01800,0.56700,0.45400,-1.31200,79.20000,0.11000
041225_04.42.16.506,-0.02500,-0.00300,1.00100,0.12300,-0.14000,-0.01800,0.56900,0.46000,-1.31300,79.56000,0.36000
041225_04.42.16.518,-0.02300,-0.00300,0.99800,0.14000,-0.10500,-0.03500,0.57100,0.45500,-1.31200,78.68000,-0.88000
041225_04.42.16.529,-0.02500,-0.00300,1.00200,0.10500,-0.10500,0.00000,0.57100,0.45500,-1.31200,79.06000,0.38000
041225_04.42.16.541,-0.02500,-0.00300,1.00400,0.10500,-0.10500,-0.01800,0.56900,0.45200,-1.31800,79.11000,0.05000
041225_04.42.16.553,-0.02400,-0.00300,1.00000,0.10500,-0.12300,-0.03500,0.57500,0.45800,-1.31700,79.35000,0.24000
041225_04.42.16.564,-0.02500,-0.00400,1.00400,0.10500,-0.12300,-0.03500,0.57000,0.45400,-1.32200,77.79000,-1.56000
041225_04.42.16.576,-0.02500,-0.00100,1.00100,0.12300,-0.08700,-0.03500,0.56900,0.45300,-1.32000,79.27000,1.48000
041225_04.42.16.588,-0.02400,-0.00000,1.00200,0.10500,-0.12300,-0.01800,0.56900,0.45300,-1.32000,79.17000,-0.10000
041225_04.42.16.599,-0.02600,-0.00100,1.00400,0.12300,-0.14000,-0.01800,0.56900,0.45800,-1.31600,79.08000,-0.09000
041225_04.42.16.611,-0.02400,-0.00200,1.00000,0.10500,-0.10500,-0.01800,0.57100,0.45700,-1.31300,79.38000,0.30000
041225_04.42.16.622,-0.02300,-0.00100,1.00200,0.10500,-0.12300,-0.01800,0.56800,0.46400,-1.31200,79.25000,-0.13000
041225_04.42.16.634,-0.02400,-0.00100,1.00200,0.08700,-0.15700,-0.03500,0.56800,0.46400,-1.31200,78.76000,-0.49000
041225_04.42.16.646,-0.02400,-0.00100,1.00400,0.10500,-0.15700,-0.01800,0.56400,0.46000,-1.30700,79.13000,0.37000
041225_04.42.16.658,-0.02400,-0.00100,1.00100,0.10500,-0.12300,-0.01800,0.57100,0.45900,-1.31200,78.88000,-0.25000
041225_04.42.16.669,-0.02500,-0.00100,1.00200,0.10500,-0.08700,-0.03500,0.56500,0.46100,-1.31200,78.67000,-0.21000
041225_04.42.16.681,-0.02600,-0.00000,1.00300,0.10500,-0.10500,-0.03500,0.55800,0.46300,-1.30800,79.08000,0.41000
041225_04.42.16.692,-0.02300,0.00000,1.00100,0.10500,-0.14000,-0.03500,0.55800,0.46300,-1.30800,78.27000,-0.81000
041225_04.42.16.704,-0.02600,0.00000,1.00400,0.08700,-0.10500,-0.03500,0.55400,0.46000,-1.31200,78.76000,0.49000
041225_04.42.16.715,-0.02400,-0.00000,1.00200,0.10500,-0.10500,-0.01800,0.55900,0.46100,-1.31200,78.33000,-0.43000
041225_04.42.16.727,-0.02600,0.00000,1.00400,0.07000,-0.10500,-0.01800,0.54800,0.45800,-1.31200,79.70000,1.37000
041225_04.42.16.739,-0.02400,0.00000,1.00500,0.08700,-0.10500,-0.01800,0.56300,0.45900,-1.31200,79.06000,-0.64000
041225_04.42.16.750,-0.02300,-0.00100,1.00100,0.08700,-0.12300,-0.01800,0.56300,0.45900,-1.31200,78.76000,-0.30000
041225_04.42.16.762,-0.02600,-0.00200,1.00500,0.07000,-0.10500,0.00000,0.56200,0.46100,-1.31500,78.75000,-0.01000
041225_04.42.16.774,-0.02400,-0.00100,1.00300,0.08700,-0.12300,-0.03500,0.56500,0.45800,-1.31400,79.49000,0.74000
041225_04.42.16.785,-0.02400,-0.00100,1.00400,0.08700,-0.10500,-0.01800,0.57200,0.45800,-1.31400,79.10000,-0.39000
041225_04.42.16.797,-0.02300,-0.00100,1.00100,0.08700,-0.12300,-0.01800,0.57200,0.45800,-1.31400,79.15000,0.05000
041225_04.42.16.809,-0.02600,-0.00100,1.00200,0.08700,-0.10500,-0.01800,0.57300,0.45500,-1.32200,79.94000,0.79000
041225_04.42.16.820,-0.02400,-0.00100,1.00300,0.08700,-0.12300,-0.01800,0.57000,0.45700,-1.32300,78.61000,-1.33000
041225_04.42.16.832,-0.02500,-0.00100,1.00000,0.08700,-0.12300,-0.01800,0.57300,0.45300,-1.32000,79.42000,0.81000
041225_04.42.16.844,-0.02500,-0.00300,1.00300,0.08700,-0.10500,0.00000,0.57500,0.45800,-1.31400,78.76000,-0.66000
041225_04.42.16.856,-0.02500,-0.00200,1.00000,0.07000,-0.14000,0.00000,0.57500,0.45800,-1.31400,79.23000,0.47000
041225_04.42.16.867,-0.02700,-0.00100,1.00200,0.10500,-0.14000,-0.01800,0.57900,0.45800,-1.31500,78.83000,-0.40000
041225_04.42.16.879,-0.02600,-0.00100,1.00400,0.10500,-0.14000,-0.01800,0.57400,0.46000,-1.31600,79.57000,0.74000
041225_04.42.16.891,-0.02400,-0.00100,1.00000,0.08700,-0.12300,-0.01800,0.57200,0.45900,-1.30900,79.23000,-0.34000
041225_04.42.16.902,-0.02500,-0.00300,1.00300,0.08700,-0.10500,-0.01800,0.57000,0.45800,-1.31300,79.16000,-0.07000
041225_04.42.16.914,-0.02600,-0.00200,1.00300,0.10500,-0.14000,-0.03500,0.57000,0.45800,-1.31300,79.42000,0.26000
041225_04.42.16.926,-0.02600,-0.00200,1.00100,0.08700,-0.15700,-0.03500,0.56800,0.46300,-1.32000,79.25000,-0.17000
041225_04.42.16.938,-0.02500,-0.00400,1.00200,0.08700,-0.12300,-0.01800,0.56700,0.46000,-1.31500,78.86000,-0.39000
041225_04.42.16.949,-0.02400,-0.00200,1.00400,0.08700,-0.10500,-0.01800,0.56500,0.46100,-1.32000,79.26000,0.40000
041225_04.42.16.961,-0.02500,-0.00200,1.00100,0.07000,-0.12300,-0.05300,0.56500,0.46100,-1.32000,78.67000,-0.59000
041225_04.42.16.973,-0.02400,-0.00200,1.00100,0.08700,-0.12300,-0.03500,0.56000,0.45800,-1.31500,79.39000,0.72000
041225_04.42.16.984,-0.02500,-0.00200,1.00400,0.08700,-0.12300,-0.01800,0.56000,0.46000,-1.31200,79.31000,-0.08000
041225_04.42.16.996,-0.02500,-0.00300,0.99900,0.08700,-0.10500,-0.01800,0.56300,0.45700,-1.31600,79.15000,-0.16000
041225_04.42.17.008,-0.02500,-0.00200,1.00300,0.07000,-0.12300,-0.01800,0.55500,0.46100,-1.31700,78.85000,-0.30000
041225_04.42.17.019,-0.02400,-0.00100,1.00200,0.10500,-0.12300,-0.03500,0.55500,0.46100,-1.31700,78.51000,-0.34000
041225_04.42.17.031,-0.02300,-0.00100,1.00100,0.10500,-0.12300,-0.03500,0.56400,0.45900,-1.31800,78.67000,0.16000
041225_04.42.17.043,-0.02500,-0.00100,1.00400,0.10500,-0.08700,-0.01800,0.56300,0.46100,-1.31900,79.20000,0.53000
041225_04.42.17.054,-0.02400,-0.00100,1.00200,0.08700,-0.10500,-0.03500,0.57000,0.46500,-1.32400,78.99000,-0.21000
041225_04.42.17.066,-0.02300,-0.00000,1.00300,0.10500,-0.12300,-0.03500,0.56500,0.45700,-1.32400,78.83000,-0.16000
041225_04.42.17.077,-0.02400,-0.00100,1.00200,0.08700,-0.12300,-0.03500,0.56500,0.45700,-1.32400,78.88000,0.05000
041225_04.42.17.089,-0.02200,-0.00100,1.00100,0.08700,-0.14000,-0.01800,0.56700,0.46200,-1.31700,78.55000,-0.33000
041225_04.42.17.100,-0.02500,-0.00200,1.00300,0.10500,-0.12300,-0.01800,0.57100,0.46000,-1.31600,78.04000,-0.51000
041225_04.42.17.112,-0.02300,-0.00100,1.00100,0.10500,-0.14000,-0.03500,0.57200,0.46300,-1.31700,78.53000,0.49000
041225_04.42.17.123,-0.02500,-0.00300,1.00400,0.10500,-0.12300,-0.01800,0.57200,0.46300,-1.31700,78.95000,0.42000
041225_04.42.17.134,-0.02300,-0.00100,1.00100,0.08700,-0.12300,-0.01800,0.57200,0.46600,-1.32100,78.48000,-0.47000
041225_04.42.17.146,-0.02400,-0.00200,1.00300,0.08700,-0.12300,0.00000,0.57500,0.45800,-1.31700,78.93000,0.45000
041225_04.42.17.157,-0.02300,-0.00200,1.00300,0.08700,-0.12300,0.00000,0.57500,0.46500,-1.31700,78.80000,-0.13000
041225_04.42.17.169,-0.02400,-0.00100,1.00100,0.10500,-0.12300,-0.01800,0.56900,0.45900,-1.31900,78.90000,0.10000
041225_04.42.17.180,-0.02500,-0.00200,1.00400,0.08700,-0.14000,0.00000,0.56900,0.45900,-1.31900,78.92000,0.02000
041225_04.42.17.192,-0.02500,-0.00200,1.00200,0.10500,-0.12300,-0.01800,0.57100,0.46000,-1.31200,78.88000,-0.04000
