t,Ax,Ay,Az,Gx,Gy,Gz,Mx,My,Mz,Alt
2025-08-21 18:14:02.325, 0.072, -0.003, -0.989 ,  0.00, -0.00, 0.00 ,  -537.3, 192.2, 70.1 ,167.85
2025-08-21 18:14:02.334, 0.073, -0.003, -0.988 ,  0.00, -0.00, 0.00 ,  -539.1, 193.8, 76.9 ,169.30
2025-08-21 18:14:02.345, 0.072, -0.005, -0.988 ,  0.00, -0.00, 0.00 ,  -542.6, 200.2, 66.5 ,167.88
2025-08-21 18:14:02.356, 0.072, -0.004, -0.991 ,  0.00, -0.00, 0.00 ,  -542.6, 195.9, 76.6 ,168.43
2025-08-21 18:14:02.367, 0.073, -0.005, -0.991 ,  0.00, -0.00, 0.00 ,  -541.4, 195.9, 76.6 ,168.47
2025-08-21 18:14:02.377, 0.071, -0.005, -0.989 ,  0.00, -0.00, 0.00 ,  -542.9, 199.4, 77.0 ,168.26
2025-08-21 18:14:02.388, 0.071, -0.003, -0.989 ,  0.00, -0.00, -0.00 ,  -539.0, 192.4, 67.1 ,168.04
2025-08-21 18:14:02.399, 0.072, -0.005, -0.990 ,  0.00, -0.00, 0.00 ,  -535.9, 195.6, 69.6 ,167.74
2025-08-21 18:14:02.410, 0.073, -0.004, -0.989 ,  0.00, -0.00, 0.00 ,  -539.3, 197.8, 72.5 ,168.42
2025-08-21 18:14:02.421, 0.072, -0.003, -0.991 ,  0.00, -0.00, 0.00 ,  -541.1, 196.6, 66.6 ,168.25
2025-08-21 18:14:02.494, 0.073, -0.005, -0.992 ,  0.00, -0.00, 0.00 ,  -539.7, 192.5, 66.4 ,168.31
2025-08-21 18:14:02.494, 0.072, -0.005, -0.989 ,  0.00, -0.00, 0.00 ,  -539.7, 192.5, 66.4 ,169.18
2025-08-21 18:14:02.496, 0.073, -0.005, -0.989 ,  0.00, -0.00, 0.00 ,  -545.9, 194.9, 72.0 ,168.19
2025-08-21 18:14:02.497, 0.073, -0.004, -0.989 ,  0.00, -0.00, 0.00 ,  -542.9, 192.8, 71.0 ,168.00
2025-08-21 18:14:02.498, 0.073, -0.006, -0.987 ,  0.00, -0.00, 0.00 ,  -543.2, 190.5, 75.7 ,168.75
2025-08-21 18:14:02.498, 0.073, -0.005, -0.989 ,  0.00, -0.00, 0.00 ,  -542.1, 192.4, 77.8 ,168.60
2025-08-21 18:14:02.499, 0.071, -0.005, -0.991 ,  0.00, -0.00, 0.00 ,  -540.7, 188.4, 75.0 ,169.03
2025-08-21 18:14:02.510, 0.073, -0.005, -0.991 ,  0.00, -0.00, 0.00 ,  -541.5, 191.9, 73.4 ,168.32
2025-08-21 18:14:02.521, 0.072, -0.004, -0.991 ,  0.00, -0.00, 0.00 ,  -541.5, 191.9, 73.4 ,168.12
2025-08-21 18:14:02.531, 0.073, -0.004, -0.990 ,  0.00, -0.00, 0.00 ,  -543.9, 191.2, 76.3 ,167.94
2025-08-21 18:14:02.604, 0.072, -0.006, -0.989 ,  0.00, -0.00, 0.00 ,  -542.6, 187.7, 69.2 ,168.38
2025-08-21 18:14:02.605, 0.073, -0.003, -0.989 ,  0.00, -0.00, 0.00 ,  -541.4, 194.6, 75.3 ,167.93
2025-08-21 18:14:02.606, 0.073, -0.005, -0.988 ,  0.00, -0.00, 0.00 ,  -543.8, 189.3, 74.3 ,168.06
2025-08-21 18:14:02.607, 0.073, -0.005, -0.988 ,  0.00, -0.00, 0.00 ,  -540.7, 193.5, 70.7 ,168.57
2025-08-21 18:14:02.608, 0.072, -0.005, -0.989 ,  0.00, -0.00, 0.00 ,  -542.4, 193.2, 76.4 ,167.92
2025-08-21 18:14:02.608, 0.073, -0.005, -0.990 ,  0.00, -0.00, 0.00 ,  -542.4, 193.2, 76.4 ,168.40
2025-08-21 18:14:02.610, 0.072, -0.006, -0.989 ,  0.00, -0.00, 0.00 ,  -540.1, 191.5, 72.5 ,168.02
2025-08-21 18:14:02.619, 0.073, -0.004, -0.988 ,  0.00, -0.00, 0.00 ,  -540.3, 189.4, 68.3 ,168.50
2025-08-21 18:14:02.630, 0.074, -0.004, -0.990 ,  0.00, -0.00, 0.00 ,  -541.9, 190.8, 68.5 ,167.99
2025-08-21 18:14:02.641, 0.073, -0.005, -0.989 ,  0.00, -0.00, 0.00 ,  -540.7, 191.2, 78.0 ,168.51
2025-08-21 18:14:02.658, 0.072, -0.005, -0.990 ,  0.00, -0.00, 0.00 ,  -537.0, 195.0, 66.8 ,167.99
2025-08-21 18:14:02.664, 0.072, -0.004, -0.990 ,  0.00, -0.00, 0.00 ,  -540.5, 191.0, 74.3 ,168.70
2025-08-21 18:14:02.675, 0.072, -0.004, -0.991 ,  0.00, -0.00, 0.00 ,  -540.5, 191.0, 74.3 ,168.46
2025-08-21 18:14:02.686, 0.072, -0.006, -0.991 ,  0.00, -0.00, 0.00 ,  -544.2, 197.4, 69.4 ,168.72
2025-08-21 18:14:02.697, 0.072, -0.004, -0.989 ,  0.00, -0.00, 0.00 ,  -539.8, 191.4, 65.4 ,167.84
2025-08-21 18:14:02.707, 0.073, -0.005, -0.987 ,  0.00, -0.00, 0.00 ,  -541.2, 188.4, 66.8 ,167.86
2025-08-21 18:14:02.718, 0.072, -0.003, -0.988 ,  0.00, -0.00, 0.00 ,  -542.8, 194.2, 70.1 ,168.37
2025-08-21 18:14:02.729, 0.073, -0.005, -0.990 ,  0.00, -0.00, 0.00 ,  -541.5, 194.0, 68.7 ,169.02
2025-08-21 18:14:02.741, 0.072, -0.005, -0.988 ,  0.00, -0.00, 0.00 ,  -542.2, 192.8, 67.5 ,168.20
2025-08-21 18:14:02.752, 0.073, -0.005, -0.989 ,  0.00, -0.00, 0.00 ,  -542.2, 192.8, 67.5 ,168.90
2025-08-21 18:14:02.767, 0.073, -0.005, -0.990 ,  0.00, -0.00, 0.00 ,  -540.8, 192.2, 69.4 ,168.43
2025-08-21 18:14:02.774, 0.073, -0.005, -0.991 ,  0.00, -0.00, 0.00 ,  -543.9, 190.3, 67.9 ,168.11
2025-08-21 18:14:02.785, 0.072, -0.005, -0.989 ,  0.00, -0.00, 0.00 ,  -546.1, 188.9, 72.8 ,168.05
2025-08-21 18:14:02.795, 0.073, -0.005, -0.989 ,  0.00, -0.00, 0.00 ,  -542.9, 190.3, 67.9 ,168.46
2025-08-21 18:14:02.807, 0.073, -0.004, -0.988 ,  0.00, -0.00, 0.00 ,  -542.4, 190.8, 65.5 ,168.47
2025-08-21 18:14:02.817, 0.073, -0.005, -0.988 ,  0.00, -0.00, 0.00 ,  -541.1, 190.5, 68.6 ,168.19
2025-08-21 18:14:02.829, 0.072, -0.004, -0.990 ,  0.00, -0.00, 0.00 ,  -541.1, 190.5, 68.6 ,167.86
2025-08-21 18:14:02.840, 0.072, -0.004, -0.991 ,  0.00, -0.00, 0.00 ,  -546.4, 190.3, 72.4 ,168.39
2025-08-21 18:14:02.850, 0.073, -0.004, -0.989 ,  0.00, -0.00, 0.00 ,  -544.3, 192.2, 68.9 ,168.84
2025-08-21 18:14:02.862, 0.073, -0.005, -0.989 ,  0.00, -0.00, 0.00 ,  -543.2, 192.1, 66.6 ,168.34
2025-08-21 18:14:02.875, 0.072, -0.004, -0.988 ,  0.00, -0.00, 0.00 ,  -542.8, 193.9, 69.9 ,168.74
2025-08-21 18:14:02.883, 0.073, -0.005, -0.989 ,  0.00, -0.00, 0.00 ,  -539.3, 192.2, 70.6 ,168.60
2025-08-21 18:14:02.895, 0.073, -0.004, -0.989 ,  0.00, -0.00, 0.00 ,  -537.5, 189.0, 61.5 ,168.27
2025-08-21 18:14:02.906, 0.073, -0.005, -0.991 ,  0.00, -0.00, 0.00 ,  -537.5, 189.0, 61.5 ,168.09
2025-08-21 18:14:02.916, 0.074, -0.003, -0.989 ,  0.00, -0.00, 0.00 ,  -541.9, 191.0, 65.0 ,168.07
2025-08-21 18:14:02.927, 0.073, -0.004, -0.989 ,  0.00, -0.00, 0.00 ,  -540.0, 189.1, 69.6 ,168.06
2025-08-21 18:14:02.939, 0.072, -0.005, -0.990 ,  0.00, -0.00, 0.00 ,  -538.4, 190.7, 63.6 ,167.55
2025-08-21 18:14:02.950, 0.073, -0.004, -0.990 ,  0.00, -0.00, 0.00 ,  -541.0, 195.3, 62.2 ,168.87
2025-08-21 18:14:02.961, 0.073, -0.006, -0.987 ,  0.00, -0.00, 0.00 ,  -541.7, 194.5, 67.8 ,168.28
2025-08-21 18:14:02.972, 0.073, -0.006, -0.990 ,  0.00, -0.00, 0.00 ,  -541.1, 192.2, 67.3 ,167.73
2025-08-21 18:14:02.985, 0.072, -0.005, -0.989 ,  0.00, -0.00, 0.00 ,  -541.1, 192.2, 67.3 ,168.44
2025-08-21 18:14:02.993, 0.074, -0.004, -0.989 ,  0.00, -0.00, 0.00 ,  -542.4, 194.0, 71.0 ,168.62
2025-08-21 18:14:03.005, 0.073, -0.004, -0.991 ,  0.00, -0.00, 0.00 ,  -542.4, 195.3, 67.3 ,168.02
2025-08-21 18:14:03.015, 0.073, -0.005, -0.988 ,  0.00, -0.00, 0.00 ,  -541.5, 195.2, 70.1 ,168.19
2025-08-21 18:14:03.027, 0.072, -0.004, -0.989 ,  0.00, -0.00, 0.00 ,  -543.5, 190.3, 71.4 ,168.16
2025-08-21 18:14:03.037, 0.073, -0.005, -0.990 ,  0.00, -0.00, 0.00 ,  -543.3, 192.4, 66.5 ,168.14
2025-08-21 18:14:03.049, 0.073, -0.005, -0.992 ,  0.00, -0.00, 0.00 ,  -542.6, 193.1, 73.6 ,168.05
2025-08-21 18:14:03.059, 0.072, -0.005, -0.990 ,  0.00, -0.00, 0.00 ,  -542.6, 193.1, 73.6 ,168.45
2025-08-21 18:14:03.071, 0.073, -0.005, -0.989 ,  0.00, -0.00, 0.00 ,  -544.6, 190.5, 78.1 ,168.16
2025-08-21 18:14:03.082, 0.073, -0.005, -0.989 ,  0.00, -0.00, 0.00 ,  -542.9, 193.9, 69.0 ,168.16
2025-08-21 18:14:03.095, 0.074, -0.004, -0.991 ,  0.00, -0.00, 0.00 ,  -544.0, 192.1, 64.3 ,168.82
2025-08-21 18:14:03.104, 0.073, -0.005, -0.991 ,  0.00, -0.00, 0.00 ,  -540.5, 192.1, 61.0 ,168.49
2025-08-21 18:14:03.115, 0.072, -0.004, -0.988 ,  0.00, -0.00, 0.00 ,  -541.8, 194.6, 67.9 ,168.76
2025-08-21 18:14:03.125, 0.073, -0.003, -0.989 ,  0.00, -0.00, 0.00 ,  -540.5, 194.9, 64.8 ,167.81
2025-08-21 18:14:03.136, 0.073, -0.004, -0.991 ,  0.00, -0.00, 0.00 ,  -540.5, 194.9, 71.4 ,168.60
2025-08-21 18:14:03.148, 0.073, -0.004, -0.990 ,  0.00, -0.00, 0.00 ,  -544.6, 196.4, 71.4 ,168.84
2025-08-21 18:14:03.159, 0.072, -0.004, -0.988 ,  0.00, -0.00, -0.00 ,  -544.3, 194.7, 71.1 ,169.30
2025-08-21 18:14:03.170, 0.072, -0.004, -0.991 ,  0.00, -0.00, 0.00 ,  -547.1, 193.9, 65.9 ,167.71
2025-08-21 18:14:03.181, 0.074, -0.003, -0.990 ,  0.00, -0.00, 0.00 ,  -546.3, 193.1, 65.1 ,167.98
2025-08-21 18:14:03.192, 0.073, -0.004, -0.989 ,  0.00, -0.00, 0.00 ,  -546.7, 194.5, 71.4 ,168.23
2025-08-21 18:14:03.269, 0.073, -0.005, -0.990 ,  0.00, -0.00, 0.00 ,  -547.8, 192.1, 70.6 ,168.63
2025-08-21 18:14:03.270, 0.072, -0.006, -0.987 ,  0.00, -0.00, -0.00 ,  -547.8, 194.7, 64.3 ,168.02
2025-08-21 18:14:03.271, 0.074, -0.004, -0.989 ,  0.00, -0.00, 0.00 ,  -545.6, 194.7, 64.3 ,168.95
2025-08-21 18:14:03.271, 0.072, -0.004, -0.991 ,  0.00, -0.00, 0.00 ,  -541.7, 191.1, 73.5 ,168.45
2025-08-21 18:14:03.272, 0.072, -0.003, -0.988 ,  0.00, -0.00, 0.00 ,  -545.2, 194.2, 71.8 ,168.24
2025-08-21 18:14:03.273, 0.073, -0.004, -0.989 ,  0.00, -0.00, 0.00 ,  -544.0, 191.0, 71.0 ,168.64
2025-08-21 18:14:03.274, 0.072, -0.005, -0.990 ,  0.00, -0.00, 0.00 ,  -545.2, 190.5, 70.4 ,168.47
2025-08-21 18:14:03.280, 0.072, -0.005, -0.991 ,  0.00, -0.00, 0.00 ,  -543.6, 187.7, 62.4 ,168.42
2025-08-21 18:14:03.291, 0.073, -0.003, -0.989 ,  0.00, -0.00, 0.00 ,  -542.9, 188.9, 73.2 ,168.63
2025-08-21 18:14:03.302, 0.072, -0.006, -0.990 ,  0.00, -0.00, 0.00 ,  -542.9, 188.9, 73.2 ,168.30
2025-08-21 18:14:03.377, 0.073, -0.004, -0.990 ,  0.00, -0.00, 0.00 ,  -542.9, 192.1, 70.1 ,168.56
2025-08-21 18:14:03.378, 0.074, -0.003, -0.991 ,  0.00, -0.00, 0.00 ,  -541.9, 194.7, 67.8 ,168.55
2025-08-21 18:14:03.379, 0.072, -0.004, -0.992 ,  0.00, -0.00, 0.00 ,  -541.8, 188.2, 67.5 ,168.21
2025-08-21 18:14:03.380, 0.072, -0.006, -0.990 ,  0.00, -0.00, 0.00 ,  -547.8, 190.5, 73.9 ,168.30
2025-08-21 18:14:03.380, 0.074, -0.004, -0.989 ,  0.00, -0.00, 0.00 ,  -543.6, 189.6, 72.9 ,167.80
2025-08-21 18:14:03.381, 0.072, -0.006, -0.991 ,  0.00, -0.00, 0.00 ,  -547.4, 191.5, 78.8 ,168.56
2025-08-21 18:14:03.383, 0.074, -0.005, -0.990 ,  0.00, -0.00, 0.00 ,  -547.4, 191.5, 78.8 ,168.55
2025-08-21 18:14:03.389, 0.072, -0.004, -0.989 ,  0.00, -0.00, 0.00 ,  -544.6, 191.7, 72.5 ,168.12
2025-08-21 18:14:03.400, 0.074, -0.005, -0.990 ,  0.00, -0.00, 0.00 ,  -543.5, 191.1, 72.1 ,168.61
2025-08-21 18:14:03.412, 0.073, -0.005, -0.990 ,  0.00, -0.00, 0.00 ,  -545.3, 190.7, 67.3 ,168.68
2025-08-21 18:14:03.425, 0.072, -0.003, -0.990 ,  0.00, -0.00, 0.00 ,  -545.2, 195.6, 73.8 ,168.28
2025-08-21 18:14:03.434, 0.072, -0.004, -0.989 ,  0.00, -0.00, 0.00 ,  -547.5, 191.4, 70.3 ,168.80
2025-08-21 18:14:03.445, 0.073, -0.005, -0.988 ,  0.00, -0.00, 0.00 ,  -544.6, 191.2, 77.3 ,168.69
2025-08-21 18:14:03.456, 0.073, -0.004, -0.990 ,  0.00, -0.00, 0.00 ,  -544.6, 191.2, 77.3 ,168.11
2025-08-21 18:14:03.467, 0.073, -0.006, -0.989 ,  0.00, -0.00, 0.00 ,  -546.1, 194.5, 71.4 ,168.26
2025-08-21 18:14:03.478, 0.072, -0.005, -0.988 ,  0.00, -0.00, 0.00 ,  -543.3, 192.8, 72.1 ,168.64
2025-08-21 18:14:03.489, 0.073, -0.004, -0.992 ,  0.00, -0.00, 0.00 ,  -543.5, 189.8, 74.6 ,168.70
2025-08-21 18:14:03.500, 0.073, -0.005, -0.991 ,  0.00, -0.00, 0.00 ,  -545.9, 195.4, 74.5 ,168.50
2025-08-21 18:14:03.511, 0.072, -0.005, -0.987 ,  0.00, -0.00, 0.00 ,  -544.3, 193.1, 72.8 ,167.97
2025-08-21 18:14:03.522, 0.074, -0.004, -0.987 ,  0.00, -0.00, 0.00 ,  -540.1, 189.3, 77.0 ,168.96
2025-08-21 18:14:03.597, 0.072, -0.005, -0.991 ,  0.00, -0.00, 0.00 ,  -540.1, 189.3, 77.0 ,168.45
2025-08-21 18:14:03.598, 0.073, -0.005, -0.992 ,  0.00, -0.00, 0.00 ,  -544.9, 188.4, 72.0 ,168.24
2025-08-21 18:14:03.599, 0.072, -0.004, -0.987 ,  0.00, -0.00, 0.00 ,  -542.5, 190.0, 73.1 ,168.72
2025-08-21 18:14:03.599, 0.074, -0.003, -0.988 ,  0.00, -0.00, 0.00 ,  -547.7, 190.7, 64.1 ,167.97
2025-08-21 18:14:03.600, 0.072, -0.004, -0.991 ,  0.00, -0.00, 0.00 ,  -543.8, 188.3, 73.2 ,168.28
2025-08-21 18:14:03.601, 0.071, -0.005, -0.992 ,  0.00, -0.00, 0.00 ,  -544.0, 188.9, 75.3 ,167.90
2025-08-21 18:14:03.601, 0.072, -0.005, -0.991 ,  0.00, -0.00, 0.00 ,  -548.7, 188.2, 70.4 ,168.17
2025-08-21 18:14:03.610, 0.071, -0.004, -0.986 ,  0.00, -0.00, 0.00 ,  -548.7, 188.2, 70.4 ,168.28
2025-08-21 18:14:03.621, 0.071, -0.004, -0.991 ,  0.00, -0.00, 0.00 ,  -544.5, 190.8, 77.4 ,168.77
2025-08-21 18:14:03.631, 0.072, -0.004, -0.993 ,  0.00, -0.00, 0.00 ,  -543.5, 191.0, 76.3 ,168.58
2025-08-21 18:14:03.646, 0.074, -0.004, -0.990 ,  0.00, -0.00, 0.00 ,  -541.5, 190.4, 70.0 ,168.02
2025-08-21 18:14:03.653, 0.072, -0.004, -0.986 ,  0.00, -0.00, 0.00 ,  -541.1, 187.2, 71.1 ,167.64
2025-08-21 18:14:03.665, 0.072, -0.004, -0.989 ,  0.00, -0.00, 0.00 ,  -541.4, 187.6, 69.4 ,168.17
2025-08-21 18:14:03.676, 0.073, -0.005, -0.991 ,  0.00, -0.00, 0.00 ,  -541.4, 189.3, 72.1 ,168.46
2025-08-21 18:14:03.687, 0.073, -0.005, -0.988 ,  0.00, -0.00, 0.00 ,  -541.4, 189.3, 72.1 ,168.60
2025-08-21 18:14:03.697, 0.072, -0.003, -0.988 ,  0.00, -0.00, 0.00 ,  -542.5, 189.3, 70.8 ,168.17
2025-08-21 18:14:03.708, 0.072, -0.005, -0.989 ,  0.00, -0.00, 0.00 ,  -541.4, 190.0, 72.8 ,167.87
2025-08-21 18:14:03.719, 0.073, -0.005, -0.989 ,  0.00, -0.00, 0.00 ,  -539.7, 191.8, 77.6 ,168.79
2025-08-21 18:14:03.730, 0.073, -0.004, -0.990 ,  0.00, -0.00, 0.00 ,  -543.3, 190.1, 75.3 ,168.73
2025-08-21 18:14:03.741, 0.072, -0.004, -0.991 ,  0.00, -0.00, 0.00 ,  -540.3, 190.0, 79.8 ,168.27
2025-08-21 18:14:03.756, 0.071, -0.005, -0.989 ,  0.00, -0.00, 0.00 ,  -542.9, 192.2, 73.9 ,168.04
2025-08-21 18:14:03.763, 0.073, -0.004, -0.987 ,  0.00, -0.00, 0.00 ,  -542.9, 192.2, 73.9 ,168.91
2025-08-21 18:14:03.775, 0.072, -0.005, -0.989 ,  0.00, -0.00, 0.00 ,  -539.0, 189.0, 74.6 ,168.86
2025-08-21 18:14:03.785, 0.072, -0.004, -0.990 ,  0.00, -0.00, 0.00 ,  -536.6, 190.5, 72.2 ,168.55
2025-08-21 18:14:03.796, 0.072, -0.005, -0.992 ,  0.00, -0.00, 0.00 ,  -540.5, 192.4, 70.8 ,168.57
2025-08-21 18:14:03.807, 0.072, -0.005, -0.988 ,  0.00, -0.00, 0.00 ,  -542.9, 189.7, 71.5 ,168.44
2025-08-21 18:14:03.819, 0.073, -0.004, -0.991 ,  0.00, -0.00, 0.00 ,  -541.4, 194.9, 74.2 ,167.75
2025-08-21 18:14:03.830, 0.073, -0.005, -0.991 ,  0.00, -0.00, 0.00 ,  -547.1, 191.7, 76.2 ,168.09
2025-08-21 18:14:03.840, 0.072, -0.004, -0.990 ,  0.00, -0.00, 0.00 ,  -547.1, 191.7, 76.2 ,167.63
2025-08-21 18:14:03.851, 0.073, -0.006, -0.988 ,  0.00, -0.00, 0.00 ,  -541.7, 190.5, 79.1 ,168.43
2025-08-21 18:14:03.866, 0.073, -0.005, -0.989 ,  0.00, -0.00, 0.00 ,  -540.1, 191.9, 78.3 ,168.17
2025-08-21 18:14:03.873, 0.073, -0.004, -0.988 ,  0.00, -0.00, 0.00 ,  -538.0, 190.0, 74.1 ,168.90
2025-08-21 18:14:03.885, 0.071, -0.005, -0.989 ,  0.00, -0.00, 0.00 ,  -540.8, 189.7, 76.4 ,168.86
2025-08-21 18:14:03.896, 0.073, -0.004, -0.991 ,  0.00, -0.00, 0.00 ,  -538.4, 191.1, 78.4 ,168.46
2025-08-21 18:14:03.907, 0.072, -0.005, -0.991 ,  0.00, -0.00, 0.00 ,  -537.2, 191.9, 77.4 ,169.09
2025-08-21 18:14:03.918, 0.072, -0.004, -0.990 ,  0.00, -0.00, 0.00 ,  -537.2, 191.9, 77.4 ,168.73
2025-08-21 18:14:03.929, 0.073, -0.003, -0.989 ,  0.00, -0.00, 0.00 ,  -536.3, 188.6, 74.2 ,168.31
2025-08-21 18:14:03.940, 0.073, -0.004, -0.987 ,  0.00, -0.00, 0.00 ,  -537.6, 190.5, 72.0 ,168.11
2025-08-21 18:14:03.951, 0.072, -0.004, -0.990 ,  0.00, -0.00, 0.00 ,  -541.5, 189.4, 78.1 ,168.95
2025-08-21 18:14:03.961, 0.073, -0.006, -0.991 ,  0.00, -0.00, 0.00 ,  -538.4, 196.8, 73.9 ,168.32
2025-08-21 18:14:03.975, 0.073, -0.004, -0.989 ,  0.00, -0.00, 0.00 ,  -540.7, 194.7, 70.8 ,167.70
2025-08-21 18:14:03.984, 0.073, -0.004, -0.990 ,  0.00, -0.00, 0.00 ,  -539.8, 190.8, 65.2 ,168.63
2025-08-21 18:14:03.995, 0.072, -0.002, -0.992 ,  0.00, -0.00, 0.00 ,  -539.8, 190.8, 71.8 ,168.45
2025-08-21 18:14:04.006, 0.073, -0.003, -0.991 ,  0.00, -0.00, 0.00 ,  -543.6, 189.6, 71.8 ,168.10
2025-08-21 18:14:04.017, 0.072, -0.004, -0.989 ,  0.00, -0.00, 0.00 ,  -543.2, 190.7, 72.2 ,168.40
2025-08-21 18:14:04.027, 0.073, -0.006, -0.989 ,  0.00, -0.00, 0.00 ,  -543.8, 190.3, 70.1 ,167.95
2025-08-21 18:14:04.038, 0.072, -0.004, -0.991 ,  0.00, -0.00, 0.00 ,  -542.5, 189.1, 70.8 ,168.54
2025-08-21 18:14:04.050, 0.073, -0.003, -0.992 ,  0.00, -0.00, 0.00 ,  -541.7, 190.3, 72.0 ,168.09
2025-08-21 18:14:04.061, 0.073, -0.005, -0.989 ,  0.00, -0.00, 0.00 ,  -540.0, 194.3, 65.8 ,168.31
2025-08-21 18:14:04.072, 0.072, -0.004, -0.990 ,  0.00, -0.00, 0.00 ,  -540.0, 191.2, 70.0 ,168.06
2025-08-21 18:14:04.086, 0.073, -0.003, -0.991 ,  0.00, -0.00, 0.00 ,  -542.8, 191.2, 70.0 ,167.81
2025-08-21 18:14:04.093, 0.072, -0.006, -0.991 ,  0.00, -0.00, 0.00 ,  -540.5, 192.6, 66.1 ,167.88
2025-08-21 18:14:04.104, 0.071, -0.004, -0.989 ,  0.00, -0.00, 0.00 ,  -538.6, 193.1, 66.6 ,167.56
2025-08-21 18:14:04.115, 0.073, -0.004, -0.989 ,  0.00, -0.00, 0.00 ,  -541.8, 192.6, 67.5 ,168.12
2025-08-21 18:14:04.127, 0.071, -0.004, -0.991 ,  0.00, -0.00, 0.00 ,  -538.0, 194.3, 70.1 ,168.30
2025-08-21 18:14:04.137, 0.075, -0.004, -0.991 ,  0.00, -0.00, 0.00 ,  -537.3, 193.1, 69.9 ,168.38
2025-08-21 18:14:04.148, 0.073, -0.004, -0.988 ,  0.00, -0.00, 0.00 ,  -540.4, 190.5, 74.3 ,168.27
2025-08-21 18:14:04.159, 0.073, -0.004, -0.990 ,  0.00, -0.00, 0.00 ,  -540.4, 190.5, 74.3 ,168.41
2025-08-21 18:14:04.171, 0.072, -0.005, -0.991 ,  0.00, -0.00, 0.00 ,  -541.0, 188.3, 71.4 ,168.65
2025-08-21 18:14:04.182, 0.073, -0.005, -0.991 ,  0.00, -0.00, 0.00 ,  -548.0, 193.6, 70.3 ,168.74
2025-08-21 18:14:04.195, 0.073, -0.004, -0.987 ,  0.00, -0.00, 0.00 ,  -542.1, 193.9, 75.3 ,168.32
2025-08-21 18:14:04.203, 0.073, -0.005, -0.988 ,  0.00, -0.00, 0.00 ,  -539.3, 190.4, 68.0 ,167.92
2025-08-21 18:14:04.215, 0.073, -0.003, -0.991 ,  0.00, -0.00, 0.00 ,  -542.6, 189.7, 73.5 ,168.50
2025-08-21 18:14:04.225, 0.071, -0.005, -0.994 ,  0.00, -0.00, 0.00 ,  -541.4, 190.1, 76.3 ,168.44
2025-08-21 18:14:04.236, 0.072, -0.004, -0.992 ,  0.00, -0.00, -0.00 ,  -541.4, 190.1, 76.3 ,168.39
2025-08-21 18:14:04.248, 0.073, -0.005, -0.987 ,  0.00, -0.00, 0.00 ,  -539.7, 196.6, 71.8 ,168.07
2025-08-21 18:14:04.258, 0.073, -0.005, -0.992 ,  0.00, -0.00, 0.00 ,  -543.3, 191.8, 68.6 ,167.92
2025-08-21 18:14:04.269, 0.072, -0.005, -0.991 ,  0.00, -0.00, 0.00 ,  -544.0, 192.2, 67.1 ,168.05
2025-08-21 18:14:04.280, 0.073, -0.004, -0.989 ,  0.00, -0.00, 0.00 ,  -542.8, 192.4, 77.1 ,168.51
2025-08-21 18:14:04.292, 0.072, -0.006, -0.986 ,  0.00, -0.00, 0.00 ,  -541.7, 190.0, 67.2 ,169.08
2025-08-21 18:14:04.364, 0.073, -0.005, -0.989 ,  0.00, -0.00, 0.00 ,  -540.5, 196.3, 68.2 ,168.92
2025-08-21 18:14:04.364, 0.072, -0.004, -0.994 ,  0.00, -0.00, 0.00 ,  -540.5, 196.3, 68.2 ,167.81
2025-08-21 18:14:04.365, 0.072, -0.005, -0.989 ,  0.00, -0.00, 0.00 ,  -541.5, 194.6, 66.8 ,168.62
2025-08-21 18:14:04.366, 0.073, -0.004, -0.986 ,  0.00, -0.00, 0.00 ,  -539.6, 193.5, 66.4 ,168.24
2025-08-21 18:14:04.367, 0.073, -0.005, -0.989 ,  0.00, -0.00, 0.00 ,  -547.8, 189.8, 67.1 ,168.87
2025-08-21 18:14:04.367, 0.073, -0.005, -0.994 ,  0.00, -0.00, 0.00 ,  -545.0, 196.7, 73.9 ,167.75
2025-08-21 18:14:04.368, 0.072, -0.006, -0.990 ,  0.00, -0.00, 0.00 ,  -542.5, 194.3, 61.5 ,168.43
2025-08-21 18:14:04.380, 0.073, -0.005, -0.991 ,  0.00, -0.00, 0.00 ,  -541.4, 191.0, 69.9 ,168.59
2025-08-21 18:14:04.391, 0.072, -0.006, -0.991 ,  0.00, -0.00, 0.00 ,  -541.4, 191.0, 69.9 ,168.93
2025-08-21 18:14:04.402, 0.072, -0.005, -0.991 ,  0.00, -0.00, 0.00 ,  -544.9, 194.0, 71.0 ,168.29
2025-08-21 18:14:04.473, 0.074, -0.005, -0.987 ,  0.00, -0.00, 0.00 ,  -544.3, 191.2, 67.3 ,168.23
2025-08-21 18:14:04.473, 0.072, -0.004, -0.989 ,  0.00, -0.00, 0.00 ,  -540.0, 191.1, 69.0 ,167.88
2025-08-21 18:14:04.475, 0.071, -0.003, -0.992 ,  0.00, -0.00, 0.00 ,  -535.9, 191.8, 70.1 ,168.59
2025-08-21 18:14:04.476, 0.072, -0.004, -0.990 ,  0.00, -0.00, 0.00 ,  -540.5, 193.3, 73.4 ,168.31
2025-08-21 18:14:04.477, 0.073, -0.005, -0.989 ,  0.00, -0.00, 0.00 ,  -540.4, 195.9, 74.2 ,168.24
2025-08-21 18:14:04.478, 0.072, -0.005, -0.990 ,  0.00, -0.00, 0.00 ,  -540.4, 195.9, 74.2 ,167.88
2025-08-21 18:14:04.478, 0.073, -0.006, -0.991 ,  0.00, -0.00, 0.00 ,  -536.9, 190.8, 71.4 ,168.19
2025-08-21 18:14:04.489, 0.071, -0.003, -0.990 ,  0.00, -0.00, 0.00 ,  -543.2, 189.7, 71.5 ,169.22
2025-08-21 18:14:04.501, 0.074, -0.005, -0.988 ,  0.00, -0.00, 0.00 ,  -543.9, 192.8, 70.1 ,168.38
2025-08-21 18:14:04.511, 0.072, -0.005, -0.987 ,  0.00, -0.00, 0.00 ,  -543.2, 189.8, 72.9 ,168.44
2025-08-21 18:14:04.583, 0.073, -0.004, -0.992 ,  0.00, -0.00, 0.00 ,  -538.0, 191.2, 74.9 ,168.06
2025-08-21 18:14:04.584, 0.073, -0.004, -0.990 ,  0.00, -0.00, 0.00 ,  -541.7, 197.0, 73.8 ,168.35
2025-08-21 18:14:04.584, 0.073, -0.005, -0.988 ,  0.00, -0.00, 0.00 ,  -541.7, 197.0, 73.8 ,168.20
2025-08-21 18:14:04.585, 0.074, -0.003, -0.990 ,  0.00, -0.00, 0.00 ,  -541.8, 194.7, 68.3 ,168.58
2025-08-21 18:14:04.586, 0.073, -0.006, -0.989 ,  0.00, -0.00, 0.00 ,  -541.1, 190.4, 67.1 ,168.01
2025-08-21 18:14:04.586, 0.072, -0.005, -0.988 ,  0.00, -0.00, 0.00 ,  -543.8, 193.6, 64.0 ,168.30
2025-08-21 18:14:04.589, 0.073, -0.003, -0.991 ,  0.00, -0.00, 0.00 ,  -540.7, 192.6, 68.2 ,167.50
2025-08-21 18:14:04.600, 0.071, -0.005, -0.992 ,  0.00, -0.00, 0.00 ,  -541.4, 193.6, 69.6 ,168.12
2025-08-21 18:14:04.611, 0.072, -0.005, -0.992 ,  0.00, -0.00, 0.00 ,  -539.7, 193.2, 72.8 ,168.08
2025-08-21 18:14:04.622, 0.072, -0.004, -0.991 ,  0.00, -0.00, 0.00 ,  -539.7, 193.2, 72.8 ,168.21
2025-08-21 18:14:04.693, 0.073, -0.005, -0.988 ,  0.00, -0.00, 0.00 ,  -536.2, 193.2, 71.7 ,168.35
2025-08-21 18:14:04.693, 0.073, -0.005, -0.991 ,  0.00, -0.00, 0.00 ,  -542.9, 195.4, 69.6 ,168.53
2025-08-21 18:14:04.694, 0.073, -0.004, -0.989 ,  0.00, -0.00, -0.00 ,  -540.1, 192.6, 73.6 ,168.34
2025-08-21 18:14:04.695, 0.072, -0.004, -0.990 ,  0.00, -0.00, 0.00 ,  -544.2, 191.7, 72.0 ,168.62
2025-08-21 18:14:04.695, 0.072, -0.005, -0.990 ,  0.00, -0.00, 0.00 ,  -544.0, 190.4, 70.7 ,167.93
2025-08-21 18:14:04.697, 0.071, -0.005, -0.990 ,  0.00, -0.00, 0.00 ,  -543.9, 186.3, 72.1 ,168.09
2025-08-21 18:14:04.699, 0.072, -0.005, -0.989 ,  0.00, -0.00, 0.00 ,  -543.9, 186.3, 72.1 ,168.40
2025-08-21 18:14:04.710, 0.072, -0.005, -0.990 ,  0.00, -0.00, 0.00 ,  -539.3, 188.3, 73.5 ,168.29
2025-08-21 18:14:04.721, 0.072, -0.004, -0.990 ,  0.00, -0.00, -0.00 ,  -541.5, 187.6, 76.7 ,168.24
2025-08-21 18:14:04.732, 0.074, -0.004, -0.991 ,  0.00, -0.00, 0.00 ,  -544.5, 188.3, 72.7 ,168.80
2025-08-21 18:14:04.805, 0.073, -0.005, -0.991 ,  0.00, -0.00, 0.00 ,  -544.5, 188.3, 66.8 ,168.31
2025-08-21 18:14:04.805, 0.073, -0.003, -0.987 ,  0.00, -0.00, -0.00 ,  -539.0, 188.4, 74.1 ,167.97
2025-08-21 18:14:04.806, 0.073, -0.004, -0.989 ,  0.00, -0.00, 0.00 ,  -541.5, 187.5, 72.4 ,169.03
2025-08-21 18:14:04.807, 0.073, -0.005, -0.988 ,  0.00, -0.00, 0.00 ,  -541.5, 187.5, 72.4 ,167.76
2025-08-21 18:14:04.808, 0.072, -0.005, -0.990 ,  0.00, -0.00, 0.00 ,  -540.1, 189.4, 76.4 ,168.28
2025-08-21 18:14:04.808, 0.073, -0.004, -0.989 ,  0.00, -0.00, 0.00 ,  -539.6, 188.2, 79.9 ,168.50
2025-08-21 18:14:04.810, 0.073, -0.003, -0.990 ,  0.00, -0.00, 0.00 ,  -541.7, 188.2, 70.4 ,168.09
2025-08-21 18:14:04.819, 0.073, -0.004, -0.989 ,  0.00, -0.00, 0.00 ,  -540.8, 185.6, 72.0 ,168.59
2025-08-21 18:14:04.830, 0.072, -0.004, -0.988 ,  0.00, -0.00, 0.00 ,  -542.6, 190.4, 72.2 ,167.88
2025-08-21 18:14:04.841, 0.071, -0.006, -0.988 ,  0.00, -0.00, 0.00 ,  -542.5, 192.8, 72.4 ,168.16
2025-08-21 18:14:04.855, 0.071, -0.004, -0.988 ,  0.00, -0.00, 0.00 ,  -542.5, 192.8, 72.4 ,168.36
2025-08-21 18:14:04.864, 0.071, -0.004, -0.990 ,  0.00, -0.00, 0.00 ,  -539.4, 190.5, 67.3 ,168.59
2025-08-21 18:14:04.874, 0.070, -0.004, -0.992 ,  0.00, -0.00, 0.00 ,  -539.3, 191.5, 70.1 ,168.19
2025-08-21 18:14:04.886, 0.073, -0.003, -0.986 ,  0.00, -0.00, 0.00 ,  -543.1, 189.4, 70.6 ,168.10
2025-08-21 18:14:04.896, 0.071, -0.003, -0.991 ,  0.00, -0.00, 0.00 ,  -539.1, 189.1, 62.9 ,168.08
2025-08-21 18:14:04.908, 0.071, -0.005, -0.994 ,  0.00, -0.00, 0.00 ,  -541.1, 190.5, 64.3 ,168.05
2025-08-21 18:14:04.918, 0.072, -0.005, -0.990 ,  0.00, -0.00, 0.00 ,  -535.9, 189.1, 69.6 ,168.68
2025-08-21 18:14:04.929, 0.072, -0.003, -0.987 ,  0.00, -0.00, 0.00 ,  -535.9, 189.1, 66.2 ,167.45
2025-08-21 18:14:04.941, 0.072, -0.006, -0.991 ,  0.00, -0.00, 0.00 ,  -534.7, 186.8, 66.2 ,169.13
2025-08-21 18:14:04.951, 0.073, -0.004, -0.990 ,  0.00, -0.00, 0.00 ,  -543.2, 189.8, 70.8 ,167.83
2025-08-21 18:14:04.965, 0.072, -0.004, -0.990 ,  0.00, -0.00, 0.00 ,  -537.3, 191.1, 72.5 ,168.45
2025-08-21 18:14:04.974, 0.071, -0.005, -0.987 ,  0.00, -0.00, 0.00 ,  -537.6, 187.3, 68.0 ,168.31
2025-08-21 18:14:04.984, 0.072, -0.005, -0.990 ,  0.00, -0.00, 0.00 ,  -540.4, 189.0, 70.8 ,168.54
2025-08-21 18:14:04.996, 0.071, -0.003, -0.993 ,  0.00, -0.00, 0.00 ,  -542.1, 187.9, 71.8 ,168.48
2025-08-21 18:14:05.006, 0.073, -0.006, -0.988 ,  0.00, -0.00, 0.00 ,  -542.1, 190.4, 77.3 ,168.53
2025-08-21 18:14:05.018, 0.073, -0.005, -0.987 ,  0.00, -0.00, 0.00 ,  -540.1, 190.4, 77.3 ,168.51
2025-08-21 18:14:05.029, 0.072, -0.004, -0.991 ,  0.00, -0.00, 0.00 ,  -540.0, 186.9, 71.0 ,168.21
2025-08-21 18:14:05.040, 0.073, -0.004, -0.990 ,  0.00, -0.00, 0.00 ,  -538.3, 187.7, 68.6 ,167.84
2025-08-21 18:14:05.050, 0.073, -0.004, -0.989 ,  0.00, -0.00, 0.00 ,  -541.0, 191.5, 70.0 ,167.88
2025-08-21 18:14:05.061, 0.073, -0.004, -0.989 ,  0.00, -0.00, 0.00 ,  -540.8, 191.4, 71.3 ,168.56
2025-08-21 18:14:05.075, 0.072, -0.004, -0.990 ,  0.00, -0.00, 0.00 ,  -547.5, 189.4, 70.7 ,168.83
2025-08-21 18:14:05.083, 0.071, -0.005, -0.988 ,  0.00, -0.00, 0.00 ,  -543.5, 190.0, 75.7 ,168.63
2025-08-21 18:14:05.095, 0.072, -0.005, -0.988 ,  0.00, -0.00, 0.00 ,  -543.5, 190.0, 75.7 ,168.55
2025-08-21 18:14:05.106, 0.073, -0.005, -0.989 ,  0.00, -0.00, 0.00 ,  -541.2, 187.7, 74.9 ,168.17
2025-08-21 18:14:05.116, 0.071, -0.004, -0.991 ,  0.00, -0.00, 0.00 ,  -539.4, 188.2, 73.6 ,168.52
2025-08-21 18:14:05.128, 0.072, -0.005, -0.990 ,  0.00, -0.00, 0.00 ,  -538.7, 184.4, 79.7 ,168.29
2025-08-21 18:14:05.138, 0.072, -0.005, -0.990 ,  0.00, -0.00, 0.00 ,  -538.7, 189.1, 80.2 ,167.95
2025-08-21 18:14:05.149, 0.071, -0.005, -0.990 ,  0.00, -0.00, 0.00 ,  -537.3, 190.3, 69.3 ,167.54
2025-08-21 18:14:05.160, 0.072, -0.005, -0.990 ,  0.00, -0.00, 0.00 ,  -538.6, 189.3, 71.8 ,168.07
2025-08-21 18:14:05.172, 0.071, -0.004, -0.990 ,  0.00, -0.00, 0.00 ,  -538.6, 189.3, 71.8 ,167.92
2025-08-21 18:14:05.185, 0.073, -0.005, -0.989 ,  0.00, -0.00, 0.00 ,  -541.8, 190.3, 79.8 ,168.00
2025-08-21 18:14:05.193, 0.073, -0.004, -0.987 ,  0.00, -0.00, 0.00 ,  -539.8, 194.0, 73.9 ,168.03
2025-08-21 18:14:05.205, 0.073, -0.004, -0.989 ,  0.00, -0.00, 0.00 ,  -539.8, 187.5, 72.1 ,167.92
2025-08-21 18:14:05.216, 0.072, -0.006, -0.989 ,  0.00, -0.00, 0.00 ,  -541.2, 187.3, 73.6 ,168.29
2025-08-21 18:14:05.226, 0.071, -0.005, -0.991 ,  0.00, -0.00, 0.00 ,  -544.9, 190.3, 71.3 ,168.26
2025-08-21 18:14:05.238, 0.072, -0.004, -0.991 ,  0.00, -0.00, 0.00 ,  -538.3, 191.1, 81.5 ,168.17
2025-08-21 18:14:05.249, 0.072, -0.003, -0.990 ,  0.00, -0.00, 0.00 ,  -538.3, 191.1, 81.5 ,168.15
2025-08-21 18:14:05.259, 0.073, -0.004, -0.991 ,  0.00, -0.00, 0.00 ,  -538.0, 191.2, 72.1 ,168.69
2025-08-21 18:14:05.270, 0.074, -0.004, -0.990 ,  0.00, -0.00, 0.00 ,  -534.2, 188.2, 77.3 ,168.64
2025-08-21 18:14:05.281, 0.072, -0.004, -0.991 ,  0.00, -0.00, 0.00 ,  -541.1, 190.3, 74.6 ,168.04
2025-08-21 18:14:05.294, 0.073, -0.005, -0.988 ,  0.00, -0.00, 0.00 ,  -540.3, 191.9, 70.4 ,168.84
2025-08-21 18:14:05.303, 0.073, -0.004, -0.986 ,  0.00, -0.00, 0.00 ,  -534.9, 191.2, 76.0 ,168.90
2025-08-21 18:14:05.314, 0.073, -0.004, -0.990 ,  0.00, -0.00, 0.00 ,  -539.4, 190.4, 72.4 ,167.82
2025-08-21 18:14:05.326, 0.071, -0.005, -0.992 ,  0.00, -0.00, 0.00 ,  -539.4, 190.4, 72.4 ,168.58
2025-08-21 18:14:05.336, 0.074, -0.004, -0.989 ,  0.00, -0.00, 0.00 ,  -540.1, 188.7, 77.7 ,168.86
2025-08-21 18:14:05.348, 0.073, -0.005, -0.989 ,  0.00, -0.00, 0.00 ,  -539.7, 196.7, 78.1 ,168.14
2025-08-21 18:14:05.359, 0.072, -0.006, -0.991 ,  0.00, -0.00, 0.00 ,  -539.6, 192.6, 79.1 ,168.09
2025-08-21 18:14:05.370, 0.073, -0.004, -0.991 ,  0.00, -0.00, 0.00 ,  -538.0, 191.5, 74.1 ,168.33
2025-08-21 18:14:05.381, 0.074, -0.004, -0.990 ,  0.00, -0.00, 0.00 ,  -540.3, 191.5, 78.0 ,168.47
2025-08-21 18:14:05.392, 0.072, -0.005, -0.990 ,  0.00, -0.00, 0.00 ,  -544.2, 188.4, 72.9 ,167.74
2025-08-21 18:14:05.405, 0.074, -0.004, -0.990 ,  0.00, -0.00, 0.00 ,  -544.2, 188.4, 72.9 ,168.26
2025-08-21 18:14:05.414, 0.073, -0.004, -0.993 ,  0.00, -0.00, 0.00 ,  -541.7, 187.2, 73.2 ,167.88
2025-08-21 18:14:05.425, 0.072, -0.005, -0.991 ,  0.00, -0.00, 0.00 ,  -541.0, 189.3, 75.5 ,168.54
2025-08-21 18:14:05.435, 0.074, -0.006, -0.988 ,  0.00, -0.00, 0.00 ,  -545.2, 188.7, 77.7 ,167.67
2025-08-21 18:14:05.447, 0.073, -0.003, -0.989 ,  0.00, -0.00, 0.00 ,  -540.5, 186.5, 77.7 ,168.05
2025-08-21 18:14:05.457, 0.072, -0.005, -0.991 ,  0.00, -0.00, 0.00 ,  -538.3, 189.6, 77.0 ,168.61
2025-08-21 18:14:05.469, 0.072, -0.005, -0.992 ,  0.00, -0.00, 0.00 ,  -545.0, 191.7, 75.7 ,168.55
2025-08-21 18:14:05.480, 0.072, -0.003, -0.989 ,  0.00, -0.00, 0.00 ,  -545.0, 191.7, 75.7 ,168.43
2025-08-21 18:14:05.491, 0.073, -0.004, -0.989 ,  0.00, -0.00, 0.00 ,  -540.0, 191.0, 78.4 ,167.77
2025-08-21 18:14:05.502, 0.072, -0.004, -0.991 ,  0.00, -0.00, 0.00 ,  -541.2, 188.0, 73.8 ,168.55
2025-08-21 18:14:05.575, 0.073, -0.004, -0.990 ,  0.00, -0.00, 0.00 ,  -543.8, 189.7, 74.9 ,168.82
2025-08-21 18:14:05.575, 0.073, -0.004, -0.991 ,  0.00, -0.00, 0.00 ,  -542.4, 186.5, 78.4 ,168.17
2025-08-21 18:14:05.576, 0.072, -0.003, -0.989 ,  0.00, -0.00, 0.00 ,  -540.8, 190.5, 77.3 ,168.30
2025-08-21 18:14:05.577, 0.073, -0.004, -0.990 ,  0.00, -0.00, 0.00 ,  -537.3, 192.4, 75.2 ,168.16
2025-08-21 18:14:05.578, 0.072, -0.004, -0.990 ,  0.00, -0.00, 0.00 ,  -537.3, 192.4, 75.2 ,168.32
2025-08-21 18:14:05.578, 0.073, -0.005, -0.990 ,  0.00, -0.00, 0.00 ,  -541.2, 190.3, 67.3 ,167.84
2025-08-21 18:14:05.579, 0.072, -0.005, -0.989 ,  0.00, -0.00, 0.00 ,  -540.5, 188.7, 73.1 ,168.20
2025-08-21 18:14:05.590, 0.072, -0.004, -0.991 ,  0.00, -0.00, 0.00 ,  -543.3, 188.7, 73.1 ,167.95
2025-08-21 18:14:05.601, 0.072, -0.004, -0.990 ,  0.00, -0.00, 0.00 ,  -542.9, 186.9, 65.1 ,168.11
2025-08-21 18:14:05.612, 0.073, -0.005, -0.991 ,  0.00, -0.00, 0.00 ,  -543.3, 188.0, 70.3 ,168.88
2025-08-21 18:14:05.625, 0.072, -0.004, -0.990 ,  0.00, -0.00, 0.00 ,  -542.2, 189.4, 72.4 ,168.13
2025-08-21 18:14:05.634, 0.073, -0.005, -0.991 ,  0.00, -0.00, 0.00 ,  -542.2, 189.4, 72.4 ,168.52
2025-08-21 18:14:05.645, 0.073, -0.005, -0.990 ,  0.00, -0.00, 0.00 ,  -540.8, 187.7, 70.6 ,168.77
2025-08-21 18:14:05.656, 0.073, -0.004, -0.990 ,  0.00, -0.00, -0.00 ,  -537.7, 187.3, 72.8 ,168.70
2025-08-21 18:14:05.667, 0.072, -0.005, -0.992 ,  0.00, -0.00, 0.00 ,  -540.8, 187.0, 71.3 ,168.08
2025-08-21 18:14:05.678, 0.073, -0.004, -0.989 ,  0.00, -0.00, 0.00 ,  -544.3, 190.8, 71.8 ,168.42
2025-08-21 18:14:05.689, 0.073, -0.005, -0.989 ,  0.00, -0.00, 0.00 ,  -539.4, 189.3, 74.8 ,168.05
2025-08-21 18:14:05.700, 0.073, -0.005, -0.989 ,  0.00, -0.00, 0.00 ,  -542.8, 188.6, 69.2 ,168.46
2025-08-21 18:14:05.711, 0.073, -0.005, -0.990 ,  0.00, -0.00, 0.00 ,  -542.8, 188.6, 69.2 ,168.78
2025-08-21 18:14:05.722, 0.072, -0.005, -0.990 ,  0.00, -0.00, 0.00 ,  -540.0, 186.9, 72.8 ,168.10
2025-08-21 18:14:05.795, 0.074, -0.005, -0.989 ,  0.00, -0.00, 0.00 ,  -536.5, 186.5, 70.8 ,168.61
2025-08-21 18:14:05.795, 0.073, -0.005, -0.987 ,  0.00, -0.00, 0.00 ,  -535.8, 188.0, 74.3 ,168.04
2025-08-21 18:14:05.796, 0.073, -0.004, -0.989 ,  0.00, -0.00, 0.00 ,  -536.6, 189.4, 69.3 ,168.66
2025-08-21 18:14:05.797, 0.072, -0.004, -0.991 ,  0.00, -0.00, 0.00 ,  -545.4, 188.6, 68.9 ,168.59
2025-08-21 18:14:05.797, 0.071, -0.005, -0.990 ,  0.00, -0.00, 0.00 ,  -543.6, 185.8, 67.2 ,167.40
2025-08-21 18:14:05.798, 0.072, -0.004, -0.989 ,  0.00, -0.00, 0.00 ,  -543.6, 185.8, 66.4 ,168.52
2025-08-21 18:14:05.800, 0.071, -0.005, -0.990 ,  0.00, -0.00, 0.00 ,  -537.7, 190.5, 66.4 ,168.57
2025-08-21 18:14:05.809, 0.073, -0.005, -0.990 ,  0.00, -0.00, 0.00 ,  -542.4, 188.6, 72.2 ,168.90
2025-08-21 18:14:05.820, 0.072, -0.004, -0.989 ,  0.00, -0.00, 0.00 ,  -540.3, 185.1, 76.0 ,168.33
2025-08-21 18:14:05.831, 0.074, -0.005, -0.989 ,  0.00, -0.00, 0.00 ,  -542.1, 188.2, 77.3 ,168.25
2025-08-21 18:14:05.845, 0.073, -0.003, -0.989 ,  0.00, -0.00, 0.00 ,  -543.9, 187.7, 74.5 ,167.94
2025-08-21 18:14:05.853, 0.072, -0.003, -0.988 ,  0.00, -0.00, -0.00 ,  -541.2, 188.4, 84.7 ,168.31
2025-08-21 18:14:05.865, 0.072, -0.005, -0.991 ,  0.00, -0.00, 0.00 ,  -541.2, 188.4, 82.5 ,167.88
2025-08-21 18:14:05.876, 0.071, -0.005, -0.990 ,  0.00, -0.00, 0.00 ,  -541.5, 190.0, 82.5 ,168.34
2025-08-21 18:14:05.887, 0.072, -0.005, -0.991 ,  0.00, -0.00, 0.00 ,  -542.2, 185.4, 77.7 ,168.25
2025-08-21 18:14:05.897, 0.072, -0.004, -0.988 ,  0.00, -0.00, 0.00 ,  -543.6, 188.2, 79.7 ,168.31
2025-08-21 18:14:05.908, 0.072, -0.004, -0.991 ,  0.00, -0.00, 0.00 ,  -541.0, 188.2, 75.0 ,168.43
2025-08-21 18:14:05.919, 0.072, -0.004, -0.991 ,  0.00, -0.00, 0.00 ,  -539.0, 189.4, 74.9 ,168.82
2025-08-21 18:14:05.930, 0.072, -0.005, -0.991 ,  0.00, -0.00, 0.00 ,  -539.0, 188.4, 70.3 ,168.74
2025-08-21 18:14:05.941, 0.073, -0.005, -0.987 ,  0.00, -0.00, 0.00 ,  -539.0, 191.2, 75.7 ,168.18
2025-08-21 18:14:05.956, 0.073, -0.005, -0.990 ,  0.00, -0.00, 0.00 ,  -539.6, 191.2, 75.7 ,168.24
2025-08-21 18:14:05.964, 0.073, -0.005, -0.991 ,  0.00, -0.00, 0.00 ,  -541.7, 190.0, 74.1 ,168.16
2025-08-21 18:14:05.975, 0.073, -0.005, -0.991 ,  0.00, -0.00, 0.00 ,  -539.6, 188.4, 74.2 ,168.66
2025-08-21 18:14:05.986, 0.074, -0.005, -0.988 ,  0.00, -0.00, 0.00 ,  -537.6, 187.2, 77.3 ,167.84
2025-08-21 18:14:05.996, 0.072, -0.004, -0.989 ,  0.00, -0.00, 0.00 ,  -538.4, 190.1, 64.0 ,168.29
2025-08-21 18:14:06.008, 0.073, -0.005, -0.990 ,  0.00, -0.00, 0.00 ,  -536.3, 191.2, 71.4 ,168.19
2025-08-21 18:14:06.019, 0.073, -0.004, -0.990 ,  0.00, -0.00, 0.00 ,  -539.3, 189.8, 70.4 ,168.76
2025-08-21 18:14:06.030, 0.073, -0.004, -0.988 ,  0.00, -0.00, 0.00 ,  -539.3, 189.8, 70.4 ,168.72
2025-08-21 18:14:06.041, 0.073, -0.004, -0.988 ,  0.00, -0.00, 0.00 ,  -539.7, 190.4, 69.4 ,168.27
2025-08-21 18:14:06.052, 0.072, -0.004, -0.990 ,  0.00, -0.00, 0.00 ,  -538.6, 190.8, 69.0 ,168.69
2025-08-21 18:14:06.065, 0.071, -0.005, -0.990 ,  0.00, -0.00, 0.00 ,  -541.5, 188.7, 70.6 ,168.40
2025-08-21 18:14:06.073, 0.072, -0.004, -0.988 ,  0.00, -0.00, 0.00 ,  -543.8, 193.6, 66.8 ,168.45
2025-08-21 18:14:06.085, 0.072, -0.003, -0.990 ,  0.00, -0.00, 0.00 ,  -541.0, 191.4, 71.0 ,168.50
2025-08-21 18:14:06.096, 0.073, -0.005, -0.991 ,  0.00, -0.00, 0.00 ,  -540.5, 189.6, 74.3 ,168.61
2025-08-21 18:14:06.107, 0.071, -0.006, -0.990 ,  0.00, -0.00, 0.00 ,  -540.5, 189.6, 74.3 ,168.53
2025-08-21 18:14:06.118, 0.073, -0.005, -0.989 ,  0.00, -0.00, 0.00 ,  -542.2, 190.0, 71.5 ,168.57
2025-08-21 18:14:06.129, 0.073, -0.004, -0.989 ,  0.00, -0.00, 0.00 ,  -542.5, 192.8, 78.0 ,168.93
2025-08-21 18:14:06.140, 0.073, -0.004, -0.989 ,  0.00, -0.00, 0.00 ,  -546.3, 193.6, 76.6 ,168.42
2025-08-21 18:14:06.150, 0.072, -0.005, -0.990 ,  0.00, -0.00, 0.00 ,  -545.0, 189.1, 75.3 ,168.45
2025-08-21 18:14:06.162, 0.074, -0.004, -0.989 ,  0.00, -0.00, -0.00 ,  -543.9, 190.0, 71.5 ,167.95
2025-08-21 18:14:06.176, 0.074, -0.005, -0.989 ,  0.00, -0.00, 0.00 ,  -543.3, 192.1, 73.4 ,168.10
2025-08-21 18:14:06.184, 0.073, -0.006, -0.989 ,  0.00, -0.00, 0.00 ,  -543.3, 192.1, 73.4 ,168.16
2025-08-21 18:14:06.195, 0.072, -0.004, -0.989 ,  0.00, -0.00, 0.00 ,  -540.0, 185.8, 76.9 ,168.63
2025-08-21 18:14:06.206, 0.073, -0.004, -0.989 ,  0.00, -0.00, 0.00 ,  -541.4, 188.7, 68.9 ,168.30
2025-08-21 18:14:06.216, 0.071, -0.004, -0.991 ,  0.00, -0.00, 0.00 ,  -541.1, 188.9, 63.6 ,168.63
2025-08-21 18:14:06.228, 0.071, -0.003, -0.990 ,  0.00, -0.00, 0.00 ,  -546.1, 191.8, 66.5 ,167.92
2025-08-21 18:14:06.238, 0.072, -0.004, -0.991 ,  0.00, -0.00, 0.00 ,  -541.4, 189.1, 65.9 ,167.88
2025-08-21 18:14:06.250, 0.072, -0.006, -0.989 ,  0.00, -0.00, 0.00 ,  -545.7, 192.5, 73.6 ,168.28
2025-08-21 18:14:06.260, 0.072, -0.005, -0.988 ,  0.00, -0.00, 0.00 ,  -545.7, 192.5, 73.6 ,168.51
2025-08-21 18:14:06.272, 0.072, -0.005, -0.993 ,  0.00, -0.00, 0.00 ,  -539.1, 189.6, 68.7 ,168.70
2025-08-21 18:14:06.285, 0.073, -0.005, -0.991 ,  0.00, -0.00, 0.00 ,  -539.0, 191.8, 76.6 ,168.82
2025-08-21 18:14:06.293, 0.073, -0.005, -0.988 ,  0.00, -0.00, 0.00 ,  -539.7, 192.4, 71.7 ,167.64
2025-08-21 18:14:06.305, 0.072, -0.004, -0.989 ,  0.00, -0.00, 0.00 ,  -537.6, 191.0, 62.6 ,168.75
2025-08-21 18:14:06.316, 0.072, -0.005, -0.992 ,  0.00, -0.00, 0.00 ,  -540.0, 189.3, 65.1 ,168.58
2025-08-21 18:14:06.326, 0.073, -0.005, -0.991 ,  0.00, -0.00, 0.00 ,  -538.2, 187.9, 64.5 ,168.26
2025-08-21 18:14:06.337, 0.074, -0.004, -0.988 ,  0.00, -0.00, 0.00 ,  -538.2, 187.9, 64.5 ,168.26
2025-08-21 18:14:06.348, 0.072, -0.005, -0.989 ,  0.00, -0.00, 0.00 ,  -541.0, 190.0, 76.3 ,167.68
2025-08-21 18:14:06.360, 0.072, -0.004, -0.991 ,  0.00, -0.00, 0.00 ,  -540.5, 189.3, 72.1 ,168.86
2025-08-21 18:14:06.370, 0.074, -0.004, -0.992 ,  0.00, -0.00, 0.00 ,  -540.7, 189.4, 67.2 ,169.15
2025-08-21 18:14:06.382, 0.073, -0.005, -0.988 ,  0.00, -0.00, 0.00 ,  -539.7, 191.1, 71.4 ,168.33
2025-08-21 18:14:06.396, 0.072, -0.005, -0.987 ,  0.00, -0.00, -0.00 ,  -545.0, 189.8, 71.0 ,168.27
2025-08-21 18:14:06.404, 0.072, -0.005, -0.992 ,  0.00, -0.00, 0.00 ,  -541.1, 190.0, 74.5 ,168.42
2025-08-21 18:14:06.415, 0.071, -0.005, -0.992 ,  0.00, -0.00, 0.00 ,  -541.1, 190.0, 74.5 ,168.23
2025-08-21 18:14:06.426, 0.073, -0.005, -0.988 ,  0.00, -0.00, 0.00 ,  -540.5, 195.2, 70.7 ,168.33
2025-08-21 18:14:06.437, 0.074, -0.004, -0.989 ,  0.00, -0.00, 0.00 ,  -540.7, 192.6, 70.4 ,168.85
2025-08-21 18:14:06.448, 0.074, -0.004, -0.991 ,  0.00, -0.00, 0.00 ,  -539.7, 192.4, 69.4 ,168.15
2025-08-21 18:14:06.459, 0.072, -0.006, -0.987 ,  0.00, -0.00, -0.00 ,  -537.5, 197.5, 69.3 ,168.15
2025-08-21 18:14:06.470, 0.072, -0.004, -0.990 ,  0.00, -0.00, 0.00 ,  -537.5, 189.7, 73.8 ,168.27
2025-08-21 18:14:06.481, 0.072, -0.005, -0.990 ,  0.00, -0.00, 0.00 ,  -537.2, 189.8, 68.5 ,168.26
2025-08-21 18:14:06.492, 0.072, -0.005, -0.991 ,  0.00, -0.00, 0.00 ,  -537.2, 189.8, 68.5 ,168.47
2025-08-21 18:14:06.505, 0.071, -0.004, -0.990 ,  0.00, -0.00, 0.00 ,  -535.2, 189.3, 66.1 ,168.16
2025-08-21 18:14:06.514, 0.073, -0.004, -0.989 ,  0.00, -0.00, 0.00 ,  -543.6, 191.8, 63.8 ,168.24
2025-08-21 18:14:06.525, 0.072, -0.005, -0.990 ,  0.00, -0.00, 0.00 ,  -537.0, 187.6, 67.8 ,167.94
2025-08-21 18:14:06.536, 0.074, -0.003, -0.989 ,  0.00, -0.00, 0.00 ,  -539.1, 189.6, 73.1 ,168.21
2025-08-21 18:14:06.547, 0.073, -0.004, -0.990 ,  0.00, -0.00, 0.00 ,  -537.3, 191.1, 68.7 ,168.74
2025-08-21 18:14:06.558, 0.071, -0.005, -0.992 ,  0.00, -0.00, 0.00 ,  -538.7, 190.5, 70.4 ,168.65
2025-08-21 18:14:06.569, 0.074, -0.005, -0.989 ,  0.00, -0.00, -0.00 ,  -538.7, 190.5, 70.4 ,168.04
2025-08-21 18:14:06.580, 0.073, -0.004, -0.988 ,  0.00, -0.00, 0.00 ,  -537.7, 188.7, 77.3 ,168.67
2025-08-21 18:14:06.590, 0.072, -0.005, -0.991 ,  0.00, -0.00, 0.00 ,  -538.3, 190.3, 75.2 ,168.04
2025-08-21 18:14:06.601, 0.072, -0.004, -0.990 ,  0.00, -0.00, 0.00 ,  -537.7, 195.6, 70.1 ,167.70
2025-08-21 18:14:06.615, 0.072, -0.004, -0.988 ,  0.00, -0.00, 0.00 ,  -541.9, 194.5, 62.0 ,168.89
2025-08-21 18:14:06.624, 0.071, -0.004, -0.990 ,  0.00, -0.00, 0.00 ,  -541.4, 191.8, 65.7 ,167.94
2025-08-21 18:14:06.634, 0.073, -0.005, -0.988 ,  0.00, -0.00, 0.00 ,  -541.9, 190.5, 72.0 ,167.74
2025-08-21 18:14:06.646, 0.073, -0.004, -0.989 ,  0.00, -0.00, 0.00 ,  -541.9, 190.5, 72.0 ,168.32
2025-08-21 18:14:06.657, 0.072, -0.006, -0.991 ,  0.00, -0.00, 0.00 ,  -539.6, 190.7, 71.1 ,168.48
2025-08-21 18:14:06.668, 0.073, -0.005, -0.991 ,  0.00, -0.00, 0.00 ,  -540.3, 190.1, 68.6 ,168.73
2025-08-21 18:14:06.679, 0.073, -0.002, -0.990 ,  0.00, -0.00, -0.00 ,  -537.5, 191.4, 71.0 ,169.01
2025-08-21 18:14:06.690, 0.074, -0.005, -0.989 ,  0.00, -0.00, 0.00 ,  -537.7, 192.5, 72.7 ,168.84
2025-08-21 18:14:06.701, 0.073, -0.005, -0.990 ,  0.00, -0.00, 0.00 ,  -540.1, 186.3, 66.6 ,168.05
2025-08-21 18:14:06.712, 0.071, -0.004, -0.990 ,  0.00, -0.00, 0.00 ,  -538.0, 190.3, 61.3 ,168.30
2025-08-21 18:14:06.726, 0.073, -0.006, -0.989 ,  0.00, -0.00, 0.00 ,  -538.0, 190.3, 71.4 ,168.58
2025-08-21 18:14:06.733, 0.073, -0.004, -0.988 ,  0.00, -0.00, -0.00 ,  -537.3, 189.8, 71.4 ,167.77
2025-08-21 18:14:06.745, 0.074, -0.005, -0.991 ,  0.00, -0.00, 0.00 ,  -540.3, 189.3, 74.3 ,168.22
2025-08-21 18:14:06.755, 0.071, -0.005, -0.992 ,  0.00, -0.00, 0.00 ,  -537.3, 191.2, 74.9 ,168.30
2025-08-21 18:14:06.767, 0.072, -0.005, -0.989 ,  0.00, -0.00, 0.00 ,  -538.0, 189.7, 78.4 ,168.67
2025-08-21 18:14:06.777, 0.073, -0.004, -0.990 ,  0.00, -0.00, 0.00 ,  -538.0, 188.3, 81.1 ,168.83
2025-08-21 18:14:06.788, 0.073, -0.005, -0.991 ,  0.00, -0.00, 0.00 ,  -539.8, 185.6, 80.1 ,167.89
2025-08-21 18:14:06.800, 0.073, -0.004, -0.990 ,  0.00, -0.00, 0.00 ,  -539.8, 188.7, 67.3 ,168.27
2025-08-21 18:14:06.810, 0.073, -0.003, -0.988 ,  0.00, -0.00, 0.00 ,  -540.8, 188.7, 67.3 ,168.79
2025-08-21 18:14:06.822, 0.073, -0.003, -0.989 ,  0.00, -0.00, 0.00 ,  -543.2, 190.1, 69.3 ,167.94
2025-08-21 18:14:06.835, 0.074, -0.006, -0.991 ,  0.00, -0.00, 0.00 ,  -538.7, 190.4, 74.6 ,168.02
2025-08-21 18:14:06.843, 0.072, -0.003, -0.990 ,  0.00, -0.00, 0.00 ,  -542.4, 190.0, 70.3 ,168.57
2025-08-21 18:14:06.854, 0.073, -0.004, -0.989 ,  0.00, -0.00, 0.00 ,  -544.0, 189.8, 63.0 ,168.31
2025-08-21 18:14:06.866, 0.071, -0.004, -0.991 ,  0.00, -0.00, 0.00 ,  -539.3, 187.5, 71.5 ,169.04
2025-08-21 18:14:06.877, 0.073, -0.004, -0.992 ,  0.00, -0.00, 0.00 ,  -541.4, 191.7, 72.2 ,168.22
2025-08-21 18:14:06.888, 0.073, -0.002, -0.990 ,  0.00, -0.00, 0.00 ,  -541.4, 191.7, 72.2 ,168.69
2025-08-21 18:14:06.899, 0.073, -0.004, -0.987 ,  0.00, -0.00, 0.00 ,  -540.1, 188.9, 66.9 ,168.17
2025-08-21 18:14:06.910, 0.073, -0.003, -0.991 ,  0.00, -0.00, 0.00 ,  -540.0, 189.7, 75.6 ,168.76
2025-08-21 18:14:06.921, 0.072, -0.004, -0.992 ,  0.00, -0.00, 0.00 ,  -537.9, 188.0, 78.0 ,168.62
2025-08-21 18:14:06.931, 0.073, -0.006, -0.991 ,  0.00, -0.00, 0.00 ,  -542.5, 188.9, 68.2 ,169.08
2025-08-21 18:14:06.946, 0.074, -0.005, -0.989 ,  0.00, -0.00, 0.00 ,  -539.0, 184.8, 71.5 ,167.74
2025-08-21 18:14:06.953, 0.073, -0.005, -0.989 ,  0.00, -0.00, 0.00 ,  -538.2, 189.3, 67.8 ,168.09
2025-08-21 18:14:06.964, 0.073, -0.006, -0.991 ,  0.00, -0.00, 0.00 ,  -538.2, 189.3, 67.8 ,168.34
2025-08-21 18:14:06.976, 0.073, -0.004, -0.989 ,  0.00, -0.00, 0.00 ,  -537.5, 188.4, 75.7 ,168.26
2025-08-21 18:14:06.987, 0.072, -0.005, -0.986 ,  0.00, -0.00, -0.00 ,  -537.3, 190.5, 76.7 ,168.28
2025-08-21 18:14:06.998, 0.073, -0.006, -0.988 ,  0.00, -0.00, 0.00 ,  -541.1, 190.4, 79.4 ,168.57
2025-08-21 18:14:07.009, 0.071, -0.005, -0.990 ,  0.00, -0.00, 0.00 ,  -540.7, 188.4, 76.9 ,168.30
2025-08-21 18:14:07.020, 0.071, -0.003, -0.993 ,  0.00, -0.00, 0.00 ,  -539.8, 188.3, 73.1 ,168.77
2025-08-21 18:14:07.030, 0.072, -0.005, -0.988 ,  0.00, -0.00, 0.00 ,  -540.4, 187.3, 76.2 ,168.09
2025-08-21 18:14:07.042, 0.072, -0.005, -0.988 ,  0.00, -0.00, 0.00 ,  -540.4, 187.3, 76.2 ,168.19
2025-08-21 18:14:07.057, 0.073, -0.005, -0.990 ,  0.00, -0.00, 0.00 ,  -537.6, 189.1, 78.1 ,167.69
2025-08-21 18:14:07.063, 0.072, -0.005, -0.991 ,  0.00, -0.00, 0.00 ,  -540.0, 186.3, 78.3 ,168.34
2025-08-21 18:14:07.074, 0.072, -0.005, -0.988 ,  0.00, -0.00, 0.00 ,  -538.7, 187.0, 76.2 ,168.79
2025-08-21 18:14:07.086, 0.073, -0.004, -0.987 ,  0.00, -0.00, 0.00 ,  -535.4, 187.9, 77.4 ,168.87
2025-08-21 18:14:07.096, 0.073, -0.004, -0.990 ,  0.00, -0.00, 0.00 ,  -538.6, 186.1, 78.5 ,167.68
2025-08-21 18:14:07.108, 0.072, -0.003, -0.990 ,  0.00, -0.00, 0.00 ,  -538.4, 183.0, 76.3 ,167.94
2025-08-21 18:14:07.119, 0.072, -0.003, -0.988 ,  0.00, -0.00, 0.00 ,  -538.4, 183.0, 76.3 ,168.06
2025-08-21 18:14:07.130, 0.071, -0.003, -0.988 ,  0.00, -0.00, 0.00 ,  -538.6, 188.4, 78.7 ,168.15
2025-08-21 18:14:07.140, 0.072, -0.004, -0.990 ,  0.00, -0.00, 0.00 ,  -533.7, 185.8, 73.8 ,167.79
2025-08-21 18:14:07.152, 0.072, -0.004, -0.992 ,  0.00, -0.00, 0.00 ,  -538.6, 190.3, 80.9 ,167.92
2025-08-21 18:14:07.165, 0.072, -0.004, -0.988 ,  0.00, -0.00, -0.00 ,  -541.0, 187.2, 80.1 ,167.91
2025-08-21 18:14:07.173, 0.074, -0.005, -0.987 ,  0.00, -0.00, 0.00 ,  -537.0, 187.7, 69.6 ,168.02
2025-08-21 18:14:07.185, 0.072, -0.005, -0.990 ,  0.00, -0.00, 0.00 ,  -537.5, 187.7, 77.1 ,168.20
2025-08-21 18:14:07.195, 0.072, -0.005, -0.992 ,  0.00, -0.00, 0.00 ,  -537.5, 187.7, 77.1 ,168.45
2025-08-21 18:14:07.206, 0.072, -0.005, -0.990 ,  0.00, -0.00, 0.00 ,  -537.0, 183.4, 69.7 ,168.46
2025-08-21 18:14:07.217, 0.073, -0.005, -0.989 ,  0.00, -0.00, 0.00 ,  -539.4, 183.0, 80.2 ,168.63
2025-08-21 18:14:07.229, 0.073, -0.005, -0.991 ,  0.00, -0.00, 0.00 ,  -542.2, 188.4, 78.7 ,168.73
2025-08-21 18:14:07.240, 0.073, -0.004, -0.991 ,  0.00, -0.00, 0.00 ,  -538.7, 184.0, 80.6 ,168.22
2025-08-21 18:14:07.251, 0.073, -0.004, -0.989 ,  0.00, -0.00, -0.00 ,  -539.4, 184.7, 83.2 ,168.16
2025-08-21 18:14:07.262, 0.073, -0.004, -0.989 ,  0.00, -0.00, -0.00 ,  -537.7, 186.2, 78.5 ,167.96
2025-08-21 18:14:07.275, 0.073, -0.005, -0.989 ,  0.00, -0.00, 0.00 ,  -537.7, 186.2, 78.5 ,168.84
2025-08-21 18:14:07.283, 0.071, -0.005, -0.991 ,  0.00, -0.00, 0.00 ,  -541.4, 187.6, 75.5 ,168.22
2025-08-21 18:14:07.294, 0.071, -0.005, -0.990 ,  0.00, -0.00, 0.00 ,  -537.5, 186.3, 73.9 ,168.27
2025-08-21 18:14:07.305, 0.072, -0.004, -0.988 ,  0.00, -0.00, 0.00 ,  -537.9, 188.0, 76.2 ,168.74
2025-08-21 18:14:07.315, 0.074, -0.005, -0.989 ,  0.00, -0.00, 0.00 ,  -538.7, 185.9, 70.8 ,168.17
2025-08-21 18:14:07.327, 0.073, -0.004, -0.991 ,  0.00, -0.00, 0.00 ,  -538.3, 186.3, 77.1 ,167.96
2025-08-21 18:14:07.339, 0.073, -0.005, -0.991 ,  0.00, -0.00, 0.00 ,  -539.7, 189.8, 74.8 ,168.22
2025-08-21 18:14:07.349, 0.072, -0.004, -0.989 ,  0.00, -0.00, 0.00 ,  -539.7, 189.8, 74.8 ,167.77
2025-08-21 18:14:07.361, 0.073, -0.005, -0.991 ,  0.00, -0.00, 0.00 ,  -538.0, 187.9, 76.6 ,169.23
2025-08-21 18:14:07.371, 0.072, -0.005, -0.991 ,  0.00, -0.00, 0.00 ,  -541.0, 185.4, 73.6 ,168.58
2025-08-21 18:14:07.385, 0.072, -0.004, -0.989 ,  0.00, -0.00, 0.00 ,  -542.9, 183.3, 72.9 ,168.04
2025-08-21 18:14:07.394, 0.072, -0.004, -0.989 ,  0.00, -0.00, 0.00 ,  -540.7, 188.7, 68.2 ,168.49
2025-08-21 18:14:07.405, 0.073, -0.004, -0.989 ,  0.00, -0.00, 0.00 ,  -541.7, 187.3, 69.9 ,168.20
2025-08-21 18:14:07.415, 0.072, -0.004, -0.990 ,  0.00, -0.00, 0.00 ,  -538.4, 184.0, 65.0 ,168.42
2025-08-21 18:14:07.427, 0.072, -0.004, -0.988 ,  0.00, -0.00, 0.00 ,  -538.4, 184.0, 65.0 ,168.50
2025-08-21 18:14:07.437, 0.073, -0.004, -0.989 ,  0.00, -0.00, 0.00 ,  -540.0, 186.9, 67.2 ,167.81
2025-08-21 18:14:07.448, 0.073, -0.005, -0.990 ,  0.00, -0.00, 0.00 ,  -540.1, 186.9, 63.8 ,168.06
2025-08-21 18:14:07.460, 0.072, -0.004, -0.990 ,  0.00, -0.00, 0.00 ,  -540.0, 188.0, 72.4 ,167.91
2025-08-21 18:14:07.471, 0.072, -0.003, -0.991 ,  0.00, -0.00, 0.00 ,  -538.4, 187.5, 63.8 ,168.30
2025-08-21 18:14:07.481, 0.072, -0.005, -0.990 ,  0.00, -0.00, 0.00 ,  -544.0, 185.4, 71.0 ,168.71
2025-08-21 18:14:07.495, 0.073, -0.005, -0.990 ,  0.00, -0.00, 0.00 ,  -540.5, 184.9, 66.4 ,167.98
2025-08-21 18:14:07.503, 0.073, -0.003, -0.990 ,  0.00, -0.00, 0.00 ,  -540.5, 184.9, 66.4 ,168.13
2025-08-21 18:14:07.515, 0.072, -0.005, -0.988 ,  0.00, -0.00, 0.00 ,  -538.9, 187.6, 68.2 ,168.11
2025-08-21 18:14:07.525, 0.072, -0.003, -0.990 ,  0.00, -0.00, -0.00 ,  -539.1, 183.7, 69.7 ,168.24
2025-08-21 18:14:07.536, 0.072, -0.005, -0.991 ,  0.00, -0.00, 0.00 ,  -542.5, 187.3, 65.9 ,168.43
2025-08-21 18:14:07.547, 0.072, -0.005, -0.989 ,  0.00, -0.00, 0.00 ,  -536.5, 184.4, 72.7 ,168.63
2025-08-21 18:14:07.559, 0.072, -0.003, -0.990 ,  0.00, -0.00, 0.00 ,  -542.1, 189.8, 66.4 ,169.16
2025-08-21 18:14:07.570, 0.072, -0.004, -0.991 ,  0.00, -0.00, 0.00 ,  -540.4, 188.7, 66.9 ,168.61
2025-08-21 18:14:07.581, 0.073, -0.004, -0.990 ,  0.00, -0.00, 0.00 ,  -540.4, 188.7, 68.9 ,167.90
2025-08-21 18:14:07.591, 0.072, -0.004, -0.989 ,  0.00, -0.00, 0.00 ,  -537.9, 188.4, 68.9 ,167.81
2025-08-21 18:14:07.605, 0.073, -0.004, -0.991 ,  0.00, -0.00, 0.00 ,  -536.8, 189.8, 70.0 ,168.33
2025-08-21 18:14:07.614, 0.072, -0.004, -0.991 ,  0.00, -0.00, 0.00 ,  -538.6, 186.9, 70.6 ,169.16
2025-08-21 18:14:07.625, 0.072, -0.004, -0.989 ,  0.00, -0.00, 0.00 ,  -537.5, 185.8, 69.9 ,168.47
2025-08-21 18:14:07.635, 0.072, -0.004, -0.988 ,  0.00, -0.00, 0.00 ,  -543.6, 191.0, 67.9 ,168.99
2025-08-21 18:14:07.647, 0.072, -0.005, -0.989 ,  0.00, -0.00, 0.00 ,  -545.3, 187.5, 71.4 ,168.15
2025-08-21 18:14:07.658, 0.072, -0.004, -0.991 ,  0.00, -0.00, 0.00 ,  -545.3, 190.0, 66.9 ,168.51
2025-08-21 18:14:07.668, 0.072, -0.004, -0.988 ,  0.00, -0.00, 0.00 ,  -538.4, 190.0, 66.9 ,168.50
2025-08-21 18:14:07.679, 0.072, -0.005, -0.991 ,  0.00, -0.00, 0.00 ,  -541.9, 189.8, 67.6 ,168.00
2025-08-21 18:14:07.690, 0.072, -0.005, -0.991 ,  0.00, -0.00, 0.00 ,  -541.4, 188.9, 70.1 ,169.32
2025-08-21 18:14:07.701, 0.074, -0.004, -0.989 ,  0.00, -0.00, 0.00 ,  -538.7, 192.1, 67.8 ,168.27
2025-08-21 18:14:07.774, 0.073, -0.005, -0.989 ,  0.00, -0.00, 0.00 ,  -542.8, 187.0, 65.2 ,167.98
2025-08-21 18:14:07.776, 0.072, -0.005, -0.990 ,  0.00, -0.00, 0.00 ,  -541.0, 189.7, 69.6 ,167.81
2025-08-21 18:14:07.777, 0.074, -0.003, -0.988 ,  0.00, -0.00, 0.00 ,  -541.0, 190.0, 65.2 ,168.59
2025-08-21 18:14:07.778, 0.071, -0.006, -0.988 ,  0.00, -0.00, 0.00 ,  -543.6, 190.0, 65.2 ,168.26
2025-08-21 18:14:07.778, 0.072, -0.005, -0.988 ,  0.00, -0.00, 0.00 ,  -538.3, 194.2, 72.9 ,168.42
2025-08-21 18:14:07.779, 0.072, -0.004, -0.990 ,  0.00, -0.00, 0.00 ,  -540.8, 193.5, 73.1 ,167.68
2025-08-21 18:14:07.779, 0.073, -0.005, -0.989 ,  0.00, -0.00, 0.00 ,  -542.2, 195.9, 71.7 ,167.81
2025-08-21 18:14:07.790, 0.071, -0.005, -0.989 ,  0.00, -0.00, 0.00 ,  -537.7, 189.8, 71.7 ,168.35
2025-08-21 18:14:07.800, 0.071, -0.004, -0.992 ,  0.00, -0.00, 0.00 ,  -536.9, 188.7, 69.2 ,168.43
2025-08-21 18:14:07.812, 0.072, -0.004, -0.992 ,  0.00, -0.00, 0.00 ,  -542.6, 194.2, 66.9 ,168.51
2025-08-21 18:14:07.885, 0.073, -0.005, -0.988 ,  0.00, -0.00, 0.00 ,  -542.6, 194.2, 66.9 ,167.84
2025-08-21 18:14:07.886, 0.073, -0.004, -0.988 ,  0.00, -0.00, 0.00 ,  -544.3, 192.6, 73.8 ,168.80
2025-08-21 18:14:07.887, 0.073, -0.005, -0.989 ,  0.00, -0.00, 0.00 ,  -540.7, 192.6, 72.4 ,168.50
2025-08-21 18:14:07.887, 0.072, -0.004, -0.990 ,  0.00, -0.00, 0.00 ,  -539.3, 192.6, 67.9 ,168.26
2025-08-21 18:14:07.889, 0.073, -0.005, -0.989 ,  0.00, -0.00, 0.00 ,  -541.2, 189.3, 69.3 ,168.05
2025-08-21 18:14:07.890, 0.072, -0.004, -0.989 ,  0.00, -0.00, 0.00 ,  -542.1, 188.7, 69.9 ,168.55
2025-08-21 18:14:07.891, 0.072, -0.004, -0.990 ,  0.00, -0.00, 0.00 ,  -538.6, 187.7, 75.7 ,168.83
2025-08-21 18:14:07.900, 0.072, -0.006, -0.989 ,  0.00, -0.00, 0.00 ,  -538.6, 187.7, 75.7 ,168.08
2025-08-21 18:14:07.911, 0.072, -0.005, -0.990 ,  0.00, -0.00, 0.00 ,  -539.8, 191.2, 75.3 ,168.59
2025-08-21 18:14:07.922, 0.073, -0.005, -0.990 ,  0.00, -0.00, 0.00 ,  -537.0, 186.8, 70.0 ,168.16
2025-08-21 18:14:07.993, 0.073, -0.004, -0.990 ,  0.00, -0.00, 0.00 ,  -535.8, 188.0, 68.2 ,168.15
2025-08-21 18:14:07.993, 0.072, -0.004, -0.990 ,  0.00, -0.00, 0.00 ,  -537.2, 193.2, 72.4 ,168.20
2025-08-21 18:14:07.994, 0.073, -0.005, -0.989 ,  0.00, -0.00, 0.00 ,  -542.4, 190.8, 69.2 ,169.01
2025-08-21 18:14:07.994, 0.072, -0.005, -0.988 ,  0.00, -0.00, 0.00 ,  -539.4, 192.1, 67.5 ,168.42
2025-08-21 18:14:07.995, 0.073, -0.004, -0.988 ,  0.00, -0.00, 0.00 ,  -539.4, 192.1, 67.5 ,167.98
2025-08-21 18:14:07.996, 0.073, -0.006, -0.991 ,  0.00, -0.00, 0.00 ,  -536.2, 193.9, 62.4 ,168.00
2025-08-21 18:14:07.999, 0.073, -0.006, -0.991 ,  0.00, -0.00, 0.00 ,  -537.2, 189.8, 69.6 ,168.38
2025-08-21 18:14:08.010, 0.072, -0.004, -0.988 ,  0.00, -0.00, 0.00 ,  -535.1, 190.3, 70.1 ,167.74
2025-08-21 18:14:08.021, 0.073, -0.004, -0.988 ,  0.00, -0.00, 0.00 ,  -538.3, 184.2, 68.0 ,167.41
2025-08-21 18:14:08.032, 0.073, -0.005, -0.990 ,  0.00, -0.00, 0.00 ,  -541.4, 187.0, 73.5 ,168.39
2025-08-21 18:14:08.045, 0.073, -0.005, -0.988 ,  0.00, -0.00, -0.00 ,  -539.3, 188.4, 79.9 ,168.41
2025-08-21 18:14:08.054, 0.073, -0.005, -0.988 ,  0.00, -0.00, 0.00 ,  -539.3, 188.4, 79.9 ,168.43
2025-08-21 18:14:08.065, 0.072, -0.004, -0.990 ,  0.00, -0.00, 0.00 ,  -539.7, 191.7, 78.1 ,167.92
2025-08-21 18:14:08.076, 0.072, -0.005, -0.992 ,  0.00, -0.00, 0.00 ,  -541.2, 188.9, 74.5 ,168.14
2025-08-21 18:14:08.086, 0.072, -0.004, -0.990 ,  0.00, -0.00, 0.00 ,  -542.8, 187.6, 76.4 ,168.36
2025-08-21 18:14:08.097, 0.073, -0.003, -0.988 ,  0.00, -0.00, 0.00 ,  -544.6, 193.2, 77.4 ,168.79
2025-08-21 18:14:08.108, 0.072, -0.005, -0.991 ,  0.00, -0.00, 0.00 ,  -541.1, 194.2, 78.1 ,168.53
2025-08-21 18:14:08.119, 0.072, -0.005, -0.991 ,  0.00, -0.00, 0.00 ,  -537.7, 190.7, 72.8 ,168.50
2025-08-21 18:14:08.131, 0.072, -0.005, -0.989 ,  0.00, -0.00, 0.00 ,  -537.7, 190.7, 72.8 ,167.69
2025-08-21 18:14:08.142, 0.072, -0.004, -0.988 ,  0.00, -0.00, 0.00 ,  -534.5, 193.6, 76.9 ,168.87
2025-08-21 18:14:08.155, 0.073, -0.004, -0.989 ,  0.00, -0.00, 0.00 ,  -536.6, 191.5, 70.4 ,168.12
2025-08-21 18:14:08.164, 0.071, -0.005, -0.992 ,  0.00, -0.00, 0.00 ,  -540.4, 190.3, 71.8 ,168.34
2025-08-21 18:14:08.175, 0.073, -0.005, -0.987 ,  0.00, -0.00, 0.00 ,  -538.4, 192.8, 75.6 ,168.38
2025-08-21 18:14:08.186, 0.074, -0.004, -0.988 ,  0.00, -0.00, 0.00 ,  -535.8, 191.1, 80.9 ,168.70
2025-08-21 18:14:08.197, 0.071, -0.005, -0.991 ,  0.00, -0.00, 0.00 ,  -541.0, 194.0, 78.0 ,168.54
2025-08-21 18:14:08.208, 0.072, -0.005, -0.991 ,  0.00, -0.00, 0.00 ,  -541.0, 194.0, 78.0 ,168.15
2025-08-21 18:14:08.218, 0.074, -0.004, -0.989 ,  0.00, -0.00, 0.00 ,  -542.1, 191.1, 73.9 ,168.35
2025-08-21 18:14:08.230, 0.074, -0.004, -0.987 ,  0.00, -0.00, 0.00 ,  -539.1, 194.7, 65.5 ,168.78
2025-08-21 18:14:08.241, 0.073, -0.004, -0.992 ,  0.00, -0.00, 0.00 ,  -535.4, 191.2, 69.3 ,167.91
2025-08-21 18:14:08.251, 0.073, -0.004, -0.991 ,  0.00, -0.00, 0.00 ,  -535.9, 192.6, 68.2 ,168.18
2025-08-21 18:14:08.325, 0.073, -0.004, -0.988 ,  0.00, -0.00, 0.00 ,  -537.3, 188.3, 72.9 ,167.89
2025-08-21 18:14:08.326, 0.072, -0.003, -0.988 ,  0.00, -0.00, 0.00 ,  -537.9, 193.8, 74.3 ,168.03
2025-08-21 18:14:08.327, 0.073, -0.005, -0.989 ,  0.00, -0.00, 0.00 ,  -537.9, 193.8, 74.3 ,168.18
2025-08-21 18:14:08.328, 0.072, -0.005, -0.990 ,  0.00, -0.00, 0.00 ,  -534.8, 194.5, 77.0 ,168.47
2025-08-21 18:14:08.328, 0.072, -0.003, -0.990 ,  0.00, -0.00, 0.00 ,  -537.7, 191.4, 77.1 ,168.33
2025-08-21 18:14:08.329, 0.073, -0.004, -0.988 ,  0.00, -0.00, 0.00 ,  -537.0, 191.0, 76.3 ,167.57
2025-08-21 18:14:08.330, 0.074, -0.003, -0.989 ,  0.00, -0.00, 0.00 ,  -536.3, 196.4, 74.9 ,169.06
2025-08-21 18:14:08.340, 0.072, -0.004, -0.991 ,  0.00, -0.00, 0.00 ,  -539.3, 195.2, 79.5 ,168.46
2025-08-21 18:14:08.350, 0.072, -0.005, -0.991 ,  0.00, -0.00, 0.00 ,  -536.5, 190.1, 78.4 ,168.16
2025-08-21 18:14:08.362, 0.072, -0.005, -0.989 ,  0.00, -0.00, 0.00 ,  -536.5, 190.1, 78.4 ,168.59
2025-08-21 18:14:08.432, 0.071, -0.004, -0.991 ,  0.00, -0.00, 0.00 ,  -537.5, 193.8, 81.3 ,168.06
2025-08-21 18:14:08.433, 0.072, -0.004, -0.987 ,  0.00, -0.00, 0.00 ,  -536.1, 191.5, 77.8 ,168.69
2025-08-21 18:14:08.433, 0.073, -0.004, -0.991 ,  0.00, -0.00, 0.00 ,  -537.6, 196.0, 78.7 ,168.37
2025-08-21 18:14:08.434, 0.073, -0.003, -0.993 ,  0.00, -0.00, 0.00 ,  -537.9, 196.4, 79.4 ,168.43
2025-08-21 18:14:08.435, 0.073, -0.005, -0.990 ,  0.00, -0.00, 0.00 ,  -539.4, 194.7, 80.2 ,168.25
2025-08-21 18:14:08.437, 0.073, -0.004, -0.990 ,  0.00, -0.00, 0.00 ,  -542.6, 191.4, 80.8 ,168.68
2025-08-21 18:14:08.439, 0.071, -0.005, -0.989 ,  0.00, -0.00, 0.00 ,  -542.6, 191.4, 80.2 ,167.90
2025-08-21 18:14:08.450, 0.072, -0.003, -0.990 ,  0.00, -0.00, 0.00 ,  -540.8, 195.0, 80.2 ,168.03
2025-08-21 18:14:08.460, 0.071, -0.004, -0.989 ,  0.00, -0.00, 0.00 ,  -541.9, 192.1, 81.8 ,168.83
2025-08-21 18:14:08.472, 0.071, -0.005, -0.989 ,  0.00, -0.00, 0.00 ,  -537.9, 190.5, 80.2 ,168.06
