timestamp,ax,ay,az,gx,gy,gz,mx,my,mz,altitude,relative_altitude
041225_04.46.51.169,-0.02400,-0.00200,1.00300,0.10500,-0.14000,-0.01800,0.55100,0.46300,-1.31300,78.74000,0.00000
041225_04.46.51.180,-0.02500,-0.00200,1.00400,0.10500,-0.12300,-0.01800,0.54700,0.45800,-1.31600,78.94000,0.20000
041225_04.46.51.192,-0.02400,-0.00300,1.00000,0.08700,-0.14000,-0.01800,0.54600,0.46000,-1.31400,78.32000,-0.62000
041225_04.46.51.204,-0.02500,-0.00300,1.00100,0.12300,-0.15700,0.01800,0.54600,0.46000,-1.31400,79.00000,0.68000
041225_04.46.51.216,-0.02600,-0.00400,1.00200,0.10500,-0.10500,-0.01800,0.54600,0.46000,-1.31100,78.41000,-0.59000
041225_04.46.51.227,-0.02600,-0.00300,1.00400,0.08700,-0.10500,-0.01800,0.54800,0.46100,-1.31500,78.29000,-0.12000
041225_04.46.51.239,-0.02600,-0.00200,1.00000,0.08700,-0.14000,-0.03500,0.55200,0.46100,-1.31200,78.80000,0.51000
041225_04.46.51.251,-0.02700,-0.00500,1.00400,0.08700,-0.12300,-0.03500,0.54900,0.45700,-1.31200,78.91000,0.11000
041225_04.46.51.263,-0.02500,-0.00300,1.00100,0.08700,-0.14000,-0.03500,0.54900,0.45700,-1.31200,78.74000,-0.17000
041225_04.46.51.274,-0.02500,-0.00300,1.00100,0.08700,-0.12300,-0.03500,0.55500,0.46100,-1.31000,78.98000,0.24000
041225_04.46.51.286,-0.02700,-0.00300,1.00500,0.08700,-0.10500,-0.01800,0.55400,0.46200,-1.30900,78.43000,-0.55000
041225_04.46.51.298,-0.02500,-0.00300,1.00000,0.07000,-0.14000,-0.01800,0.55900,0.46400,-1.31200,78.25000,-0.18000
041225_04.46.51.310,-0.02600,-0.00300,1.00100,0.07000,-0.12300,-0.03500,0.55900,0.46400,-1.31200,78.72000,0.47000
041225_04.46.51.321,-0.02600,-0.00300,1.00300,0.07000,-0.10500,-0.03500,0.56000,0.46300,-1.31600,78.47000,-0.25000
041225_04.46.51.333,-0.02500,-0.00400,1.00300,0.10500,-0.10500,0.00000,0.56200,0.45800,-1.31700,78.66000,0.19000
041225_04.46.51.345,-0.02600,-0.00300,1.00300,0.07000,-0.12300,-0.01800,0.56300,0.46000,-1.31600,78.70000,0.04000
041225_04.46.51.356,-0.02300,-0.00300,0.99900,0.08700,-0.12300,-0.03500,0.56600,0.46300,-1.31200,78.23000,-0.47000
041225_04.46.51.368,-0.02400,-0.00300,1.00000,0.08700,-0.14000,-0.03500,0.56600,0.46300,-1.31200,78.56000,0.33000
041225_04.46.51.379,-0.02600,-0.00500,1.00100,0.08700,-0.15700,-0.03500,0.56300,0.46100,-1.30600,78.60000,0.04000
041225_04.46.51.391,-0.02500,-0.00400,1.00100,0.08700,-0.14000,-0.01800,0.55600,0.46100,-1.31200,79.04000,0.44000
041225_04.46.51.402,-0.02400,-0.00400,1.00300,0.10500,-0.14000,-0.01800,0.56000,0.45800,-1.30800,78.41000,-0.63000
041225_04.46.51.414,-0.02500,-0.00400,1.00000,0.08700,-0.14000,0.00000,0.55300,0.46100,-1.31000,79.02000,0.61000
041225_04.46.51.426,-0.02500,-0.00400,1.00400,0.10500,-0.14000,-0.03500,0.55300,0.46100,-1.31000,79.35000,0.33000
041225_04.46.51.437,-0.02400,-0.00200,0.99900,0.08700,-0.14000,-0.01800,0.55200,0.45800,-1.31200,78.57000,-0.78000
041225_04.46.51.449,-0.02500,-0.00300,1.00200,0.10500,-0.12300,-0.03500,0.55600,0.46000,-1.31300,78.28000,-0.29000
041225_04.46.51.460,-0.02500,-0.00300,1.00400,0.08700,-0.12300,-0.01800,0.54500,0.46300,-1.31000,78.50000,0.22000
041225_04.46.51.472,-0.02500,-0.00300,1.00100,0.08700,-0.12300,-0.01800,0.54500,0.46300,-1.31000,79.03000,0.53000
041225_04.46.51.483,-0.02400,-0.00400,1.00400,0.08700,-0.12300,-0.01800,0.54500,0.46300,-1.30600,78.58000,-0.45000
041225_04.46.51.495,-0.02400,-0.00300,1.00100,0.07000,-0.12300,-0.01800,0.54200,0.46100,-1.31000,78.75000,0.17000
041225_04.46.51.506,-0.02400,-0.00300,1.00200,0.07000,-0.12300,-0.03500,0.54800,0.46200,-1.31200,78.92000,0.17000
041225_04.46.51.518,-0.02500,-0.00400,1.00500,0.08700,-0.08700,-0.03500,0.54600,0.46000,-1.31300,78.38000,-0.54000
041225_04.46.51.529,-0.02500,-0.00000,1.00200,0.10500,-0.12300,-0.03500,0.54600,0.46000,-1.31300,78.47000,0.09000
041225_04.46.51.541,-0.02600,-0.00300,1.00200,0.08700,-0.12300,-0.01800,0.54700,0.46100,-1.31500,78.77000,0.30000
041225_04.46.51.552,-0.02500,-0.00300,1.00000,0.08700,-0.08700,-0.01800,0.55900,0.46100,-1.31800,78.61000,-0.16000
041225_04.46.51.564,-0.02500,-0.00300,1.00500,0.10500,-0.12300,-0.03500,0.55300,0.46200,-1.31300,78.72000,0.11000
041225_04.46.51.575,-0.02400,-0.00200,1.00000,0.07000,-0.10500,-0.03500,0.56100,0.45800,-1.31900,79.56000,0.84000
041225_04.46.51.587,-0.02400,-0.00300,1.00300,0.08700,-0.12300,-0.03500,0.56100,0.45800,-1.31900,79.09000,-0.47000
041225_04.46.51.598,-0.02600,-0.00300,1.00200,0.08700,-0.12300,-0.03500,0.55900,0.46100,-1.31100,78.80000,-0.29000
041225_04.46.51.610,-0.02500,-0.00100,1.00000,0.10500,-0.12300,-0.01800,0.56500,0.46200,-1.31100,79.03000,0.23000
041225_04.46.51.621,-0.02500,-0.00200,1.00500,0.10500,-0.14000,-0.01800,0.56300,0.45800,-1.31700,78.24000,-0.79000
041225_04.46.51.632,-0.02400,-0.00300,0.99900,0.08700,-0.12300,-0.03500,0.56300,0.45800,-1.31700,78.44000,0.20000
041225_04.46.51.644,-0.02400,-0.00300,1.00200,0.08700,-0.12300,0.00000,0.56300,0.46100,-1.31300,78.85000,0.41000
041225_04.46.51.655,-0.02600,-0.00300,1.00300,0.10500,-0.12300,-0.01800,0.56300,0.46100,-1.31200,78.86000,0.01000
041225_04.46.51.667,-0.02200,-0.00300,0.99900,0.07000,-0.12300,-0.01800,0.56100,0.46100,-1.31300,78.85000,-0.01000
041225_04.46.51.679,-0.02500,-0.00300,1.00100,0.08700,-0.12300,-0.03500,0.56000,0.46200,-1.31000,78.66000,-0.19000
041225_04.46.51.690,-0.02300,-0.00400,1.00200,0.08700,-0.10500,-0.01800,0.56000,0.46200,-1.31000,79.04000,0.38000
041225_04.46.51.702,-0.02600,-0.00300,1.00500,0.08700,-0.14000,-0.01800,0.55800,0.46200,-1.30800,78.60000,-0.44000
041225_04.46.51.713,-0.02400,-0.00200,1.00000,0.08700,-0.12300,-0.01800,0.55100,0.46600,-1.31000,78.80000,0.20000
041225_04.46.51.725,-0.02600,-0.00300,1.00100,0.07000,-0.10500,-0.01800,0.55500,0.46500,-1.30900,79.06000,0.26000
041225_04.46.51.737,-0.02400,-0.00400,1.00300,0.07000,-0.10500,-0.03500,0.55500,0.46400,-1.30500,78.52000,-0.54000
041225_04.46.51.749,-0.02500,-0.00200,1.00000,0.08700,-0.12300,-0.03500,0.55200,0.46400,-1.30500,78.71000,0.19000
041225_04.46.51.760,-0.02600,-0.00300,1.00400,0.07000,-0.10500,-0.01800,0.54500,0.46500,-1.31200,79.06000,0.35000
041225_04.46.51.772,-0.02400,-0.00400,1.00100,0.08700,-0.10500,-0.01800,0.54700,0.46000,-1.31000,79.18000,0.12000
041225_04.46.51.784,-0.02600,-0.00300,1.00200,0.08700,-0.10500,-0.03500,0.54500,0.46300,-1.31100,78.36000,-0.82000
041225_04.46.51.795,-0.02500,-0.00400,1.00300,0.07000,-0.14000,0.00000,0.54500,0.46300,-1.31100,78.83000,0.47000
041225_04.46.51.807,-0.02400,-0.00100,0.99900,0.08700,-0.12300,-0.01800,0.54800,0.46100,-1.31200,79.29000,0.46000
041225_04.46.51.818,-0.02400,-0.00300,1.00300,0.10500,-0.10500,-0.03500,0.54900,0.45600,-1.31400,79.56000,0.27000
041225_04.46.51.830,-0.02500,-0.00200,1.00200,0.07000,-0.12300,-0.01800,0.55700,0.46300,-1.31500,78.12000,-1.44000
041225_04.46.51.842,-0.02500,-0.00300,1.00100,0.07000,-0.14000,-0.01800,0.55400,0.46000,-1.30600,79.29000,1.17000
041225_04.46.51.853,-0.02600,-0.00300,1.00400,0.07000,-0.12300,-0.03500,0.55400,0.46000,-1.30600,79.07000,-0.22000
041225_04.46.51.865,-0.02600,-0.00400,1.00300,0.08700,-0.12300,-0.01800,0.55900,0.46300,-1.30500,78.40000,-0.67000
041225_04.46.51.877,-0.02500,-0.00300,1.00200,0.10500,-0.14000,-0.01800,0.56300,0.45700,-1.31400,78.66000,0.26000
041225_04.46.51.888,-0.02400,-0.00200,1.00000,0.10500,-0.12300,-0.01800,0.56500,0.46000,-1.31300,79.05000,0.39000
041225_04.46.51.900,-0.02500,-0.00200,1.00500,0.10500,-0.14000,-0.03500,0.56500,0.46000,-1.31600,78.76000,-0.29000
041225_04.46.51.911,-0.02300,-0.00400,1.00100,0.08700,-0.15700,-0.01800,0.56100,0.46000,-1.31600,78.80000,0.04000
041225_04.46.51.923,-0.02700,-0.00300,1.00200,0.08700,-0.12300,-0.03500,0.56200,0.46100,-1.31800,79.67000,0.87000
041225_04.46.51.934,-0.02600,-0.00300,1.00400,0.10500,-0.12300,-0.03500,0.56600,0.45800,-1.31900,79.06000,-0.61000
041225_04.46.51.946,-0.02400,-0.00100,1.00100,0.10500,-0.14000,-0.05300,0.56400,0.46000,-1.31800,78.85000,-0.21000
041225_04.46.51.957,-0.02400,-0.00300,1.00300,0.08700,-0.12300,-0.01800,0.56400,0.46000,-1.31800,78.49000,-0.36000
041225_04.46.51.969,-0.02400,-0.00200,1.00200,0.10500,-0.12300,0.00000,0.55600,0.46300,-1.31000,78.46000,-0.03000
041225_04.46.51.980,-0.02400,-0.00100,1.00200,0.08700,-0.12300,-0.01800,0.55900,0.45700,-1.30900,77.69000,-0.77000
041225_04.46.51.992,-0.02500,-0.00200,1.00400,0.08700,-0.12300,-0.01800,0.56200,0.46500,-1.30900,79.10000,1.41000
041225_04.46.52.004,-0.02400,-0.00300,1.00100,0.10500,-0.14000,-0.01800,0.55500,0.46000,-1.31600,79.34000,0.24000
041225_04.46.52.015,-0.02500,-0.00200,1.00400,0.10500,-0.15700,-0.03500,0.55500,0.46000,-1.31600,78.54000,-0.80000
041225_04.46.52.026,-0.02400,-0.00200,1.00200,0.10500,-0.12300,-0.03500,0.55400,0.45800,-1.29800,78.92000,0.38000
041225_04.46.52.038,-0.02500,-0.00200,1.00200,0.08700,-0.12300,-0.01800,0.54900,0.46500,-1.31400,78.99000,0.07000
041225_04.46.52.049,-0.02400,-0.00300,1.00000,0.08700,-0.14000,-0.03500,0.55000,0.45900,-1.30500,78.09000,-0.90000
041225_04.46.52.061,-0.02600,-0.00300,1.00100,0.08700,-0.12300,-0.01800,0.55000,0.45600,-1.31100,78.71000,0.62000
041225_04.46.52.072,-0.02500,-0.00300,1.00300,0.10500,-0.12300,-0.01800,0.54700,0.45600,-1.31100,78.71000,0.00000
041225_04.46.52.084,-0.02400,-0.00100,0.99900,0.08700,-0.12300,-0.01800,0.54900,0.45500,-1.31300,79.12000,0.41000
041225_04.46.52.095,-0.02600,-0.00300,1.00400,0.08700,-0.14000,-0.01800,0.54600,0.45800,-1.31500,78.89000,-0.23000
041225_04.46.52.107,-0.02400,-0.00200,1.00200,0.10500,-0.14000,-0.01800,0.55100,0.45600,-1.31200,79.05000,0.16000
041225_04.46.52.118,-0.02500,-0.00200,1.00200,0.10500,-0.15700,-0.01800,0.55100,0.45600,-1.31200,78.76000,-0.29000
041225_04.46.52.130,-0.02500,-0.00300,1.00300,0.08700,-0.15700,-0.03500,0.55900,0.45800,-1.31300,78.82000,0.06000
041225_04.46.52.142,-0.02400,-0.00300,1.00000,0.08700,-0.14000,-0.03500,0.56100,0.45600,-1.31200,78.70000,-0.12000
041225_04.46.52.153,-0.02700,-0.00400,1.00200,0.08700,-0.12300,0.00000,0.56000,0.45800,-1.31500,79.35000,0.65000
041225_04.46.52.165,-0.02500,-0.00300,1.00300,0.07000,-0.14000,-0.01800,0.56200,0.45900,-1.30800,78.76000,-0.59000
041225_04.46.52.176,-0.02400,-0.00300,0.99900,0.08700,-0.12300,-0.01800,0.56200,0.45900,-1.30800,79.63000,0.87000
041225_04.46.52.188,-0.02500,-0.00500,1.00100,0.08700,-0.12300,-0.01800,0.56800,0.45600,-1.31600,78.80000,-0.83000
041225_04.46.52.199,-0.02400,-0.00300,1.00300,0.08700,-0.12300,-0.03500,0.56400,0.45800,-1.31400,79.49000,0.69000
041225_04.46.52.211,-0.02500,-0.00400,1.00300,0.12300,-0.14000,-0.01800,0.56000,0.46000,-1.30600,78.86000,-0.63000
041225_04.46.52.222,-0.02400,-0.00300,0.99900,0.10500,-0.12300,-0.03500,0.56000,0.46000,-1.31500,78.67000,-0.19000
041225_04.46.52.234,-0.02500,-0.00400,1.00400,0.08700,-0.12300,-0.01800,0.56100,0.46000,-1.31500,78.99000,0.32000
041225_04.46.52.246,-0.02300,-0.00400,1.00200,0.08700,-0.10500,-0.03500,0.55800,0.46100,-1.30900,79.52000,0.53000
041225_04.46.52.257,-0.02500,-0.00300,1.00200,0.08700,-0.12300,-0.03500,0.55500,0.45800,-1.30900,78.48000,-1.04000
041225_04.46.52.269,-0.02500,-0.00500,1.00400,0.07000,-0.14000,-0.01800,0.56200,0.45800,-1.31000,78.67000,0.19000
041225_04.46.52.281,-0.02300,-0.00300,1.00000,0.10500,-0.12300,-0.01800,0.56200,0.45800,-1.31000,78.36000,-0.31000
041225_04.46.52.293,-0.02500,-0.00400,1.00200,0.10500,-0.12300,-0.03500,0.55000,0.46000,-1.31200,79.07000,0.71000
041225_04.46.52.304,-0.02400,-0.00300,1.00500,0.10500,-0.12300,-0.01800,0.54900,0.46000,-1.31100,79.02000,-0.05000
041225_04.46.52.316,-0.02400,-0.00300,1.00000,0.08700,-0.12300,-0.01800,0.55000,0.45900,-1.30800,78.80000,-0.22000
041225_04.46.52.328,-0.02600,-0.00200,1.00300,0.10500,-0.14000,-0.01800,0.55200,0.45900,-1.30300,79.23000,0.43000
041225_04.46.52.339,-0.02400,-0.00400,1.00100,0.12300,-0.14000,0.00000,0.55200,0.45900,-1.30300,78.32000,-0.91000
041225_04.46.52.351,-0.02500,-0.00400,1.00200,0.08700,-0.14000,-0.03500,0.54200,0.46100,-1.30800,79.02000,0.70000
041225_04.46.52.363,-0.02500,-0.00100,0.99900,0.08700,-0.14000,-0.01800,0.54100,0.46000,-1.31200,78.35000,-0.67000
041225_04.46.52.374,-0.02500,-0.00200,1.00300,0.10500,-0.14000,-0.03500,0.54500,0.46000,-1.31300,78.06000,-0.29000
041225_04.46.52.386,-0.02400,-0.00400,1.00200,0.10500,-0.15700,-0.03500,0.54500,0.45800,-1.31300,79.04000,0.98000
041225_04.46.52.398,-0.02600,-0.00000,1.00000,0.10500,-0.12300,-0.03500,0.54800,0.45800,-1.31300,79.15000,0.11000
041225_04.46.52.409,-0.02600,-0.00200,1.00200,0.10500,-0.14000,-0.01800,0.55100,0.45800,-1.31800,78.55000,-0.60000
041225_04.46.52.421,-0.02400,-0.00200,0.99900,0.08700,-0.14000,-0.01800,0.55000,0.45800,-1.31900,78.72000,0.17000
041225_04.46.52.433,-0.02700,-0.00300,1.00200,0.10500,-0.10500,-0.01800,0.56200,0.45700,-1.31300,78.84000,0.12000
041225_04.46.52.444,-0.02400,-0.00300,1.00300,0.12300,-0.12300,-0.03500,0.56200,0.45700,-1.31300,79.02000,0.18000
041225_04.46.52.456,-0.02500,-0.00200,1.00100,0.12300,-0.12300,-0.01800,0.56000,0.45900,-1.31300,79.52000,0.50000
041225_04.46.52.468,-0.02500,-0.00300,1.00400,0.10500,-0.12300,-0.01800,0.56000,0.46200,-1.31900,78.67000,-0.85000
041225_04.46.52.479,-0.02400,-0.00300,1.00200,0.08700,-0.14000,-0.01800,0.56300,0.46100,-1.31300,78.81000,0.14000
041225_04.46.52.491,-0.02500,-0.00200,1.00300,0.08700,-0.12300,-0.01800,0.56200,0.46000,-1.30700,79.11000,0.30000
041225_04.46.52.502,-0.02500,-0.00300,0.99900,0.07000,-0.10500,-0.01800,0.56200,0.46000,-1.30700,79.20000,0.09000
041225_04.46.52.514,-0.02600,-0.00400,1.00300,0.07000,-0.12300,-0.01800,0.56800,0.46400,-1.31200,79.17000,-0.03000
041225_04.46.52.526,-0.02400,-0.00300,1.00300,0.08700,-0.14000,-0.03500,0.55600,0.46500,-1.31500,78.83000,-0.34000
041225_04.46.52.537,-0.02500,-0.00200,0.99900,0.08700,-0.12300,-0.01800,0.55700,0.46400,-1.31000,79.50000,0.67000
041225_04.46.52.549,-0.02500,-0.00300,1.00300,0.08700,-0.12300,-0.01800,0.55700,0.46400,-1.30600,78.92000,-0.58000
041225_04.46.52.561,-0.02500,-0.00100,0.99900,0.07000,-0.14000,-0.03500,0.55600,0.46400,-1.30600,78.83000,-0.09000
041225_04.46.52.572,-0.02500,-0.00300,1.00400,0.08700,-0.12300,-0.03500,0.55400,0.46100,-1.30800,79.28000,0.45000
041225_04.46.52.584,-0.02500,-0.00300,1.00400,0.08700,-0.15700,-0.03500,0.55700,0.46500,-1.31200,78.92000,-0.36000
041225_04.46.52.595,-0.02400,-0.00300,0.99900,0.07000,-0.14000,-0.01800,0.55000,0.45700,-1.30700,78.90000,-0.02000
041225_04.46.52.607,-0.02500,-0.00400,1.00500,0.08700,-0.14000,-0.01800,0.55000,0.45700,-1.30700,78.75000,-0.15000
041225_04.46.52.618,-0.02500,-0.00200,1.00100,0.10500,-0.14000,-0.05300,0.55100,0.46100,-1.30600,79.19000,0.44000
041225_04.46.52.630,-0.02500,-0.00200,1.00400,0.07000,-0.12300,-0.03500,0.54900,0.46000,-1.30700,78.70000,-0.49000
041225_04.46.52.642,-0.02500,-0.00300,1.00200,0.07000,-0.14000,-0.03500,0.54900,0.45900,-1.30900,78.98000,0.28000
041225_04.46.52.653,-0.02500,-0.00200,1.00000,0.08700,-0.10500,-0.03500,0.54700,0.46000,-1.31200,78.96000,-0.02000
041225_04.46.52.665,-0.02500,-0.00300,1.00100,0.10500,-0.12300,-0.01800,0.54700,0.46000,-1.31200,78.79000,-0.17000
041225_04.46.52.677,-0.02400,-0.00300,1.00000,0.10500,-0.12300,-0.01800,0.54400,0.45900,-1.31000,78.71000,-0.08000
041225_04.46.52.688,-0.02600,-0.00400,1.00400,0.08700,-0.10500,-0.03500,0.54900,0.46300,-1.31100,78.69000,-0.02000
041225_04.46.52.700,-0.02400,-0.00200,1.00000,0.07000,-0.10500,-0.03500,0.55600,0.46000,-1.31500,78.83000,0.14000
041225_04.46.52.712,-0.02500,-0.00400,1.00400,0.10500,-0.08700,-0.01800,0.55600,0.46100,-1.31100,78.39000,-0.44000
041225_04.46.52.723,-0.02500,-0.00200,1.00300,0.10500,-0.12300,-0.03500,0.55300,0.46100,-1.31100,79.02000,0.63000
041225_04.46.52.735,-0.02500,-0.00200,1.00000,0.10500,-0.12300,-0.01800,0.55700,0.46100,-1.31500,78.50000,-0.52000
041225_04.46.52.747,-0.02500,-0.00300,1.00500,0.10500,-0.10500,-0.03500,0.56100,0.45800,-1.31600,78.86000,0.36000
041225_04.46.52.758,-0.02400,-0.00200,1.00000,0.10500,-0.12300,-0.01800,0.56100,0.46000,-1.31200,78.56000,-0.30000
041225_04.46.52.770,-0.02400,-0.00200,1.00200,0.10500,-0.14000,-0.01800,0.56100,0.46000,-1.31200,79.42000,0.86000
041225_04.46.52.782,-0.02500,-0.00300,1.00100,0.10500,-0.14000,-0.01800,0.56300,0.46000,-1.31200,78.91000,-0.51000
041225_04.46.52.793,-0.02300,-0.00300,0.99800,0.12300,-0.14000,-0.01800,0.56400,0.46100,-1.31500,78.72000,-0.19000
041225_04.46.52.805,-0.02500,-0.00300,1.00200,0.10500,-0.15700,-0.01800,0.56300,0.46300,-1.31300,78.47000,-0.25000
041225_04.46.52.816,-0.02500,-0.00300,1.00000,0.08700,-0.15700,0.00000,0.56100,0.45900,-1.31400,78.42000,-0.05000
041225_04.46.52.828,-0.02600,-0.00200,1.00400,0.08700,-0.10500,-0.01800,0.56100,0.45900,-1.31400,78.45000,0.03000
041225_04.46.52.839,-0.02500,-0.00200,1.00100,0.10500,-0.12300,-0.01800,0.56200,0.46000,-1.30700,79.32000,0.87000
041225_04.46.52.851,-0.02500,-0.00400,1.00300,0.10500,-0.12300,-0.01800,0.55700,0.46200,-1.30600,78.96000,-0.36000
041225_04.46.52.862,-0.02700,-0.00200,1.00200,0.10500,-0.14000,-0.01800,0.55700,0.46600,-1.31100,79.19000,0.23000
041225_04.46.52.874,-0.02500,-0.00300,1.00200,0.10500,-0.14000,-0.01800,0.55700,0.46000,-1.31100,78.68000,-0.51000
041225_04.46.52.885,-0.02600,-0.00300,1.00300,0.08700,-0.14000,-0.01800,0.55400,0.46000,-1.31100,78.98000,0.30000
041225_04.46.52.897,-0.02500,-0.00300,1.00200,0.08700,-0.15700,-0.01800,0.55600,0.46000,-1.30300,78.65000,-0.33000
041225_04.46.52.908,-0.02500,-0.00300,1.00400,0.10500,-0.14000,0.00000,0.55200,0.46300,-1.30700,78.84000,0.19000
041225_04.46.52.920,-0.02500,-0.00400,1.00300,0.08700,-0.14000,-0.03500,0.55100,0.45900,-1.30500,78.60000,-0.24000
041225_04.46.52.931,-0.02500,-0.00300,1.00100,0.08700,-0.12300,-0.01800,0.55100,0.45900,-1.30500,79.14000,0.54000
041225_04.46.52.942,-0.02800,-0.00300,1.00400,0.10500,-0.12300,-0.03500,0.54900,0.46000,-1.30400,78.83000,-0.31000
041225_04.46.52.954,-0.02500,-0.00300,1.00200,0.08700,-0.14000,-0.03500,0.54400,0.45900,-1.30600,78.87000,0.04000
041225_04.46.52.965,-0.02500,-0.00200,1.00100,0.08700,-0.12300,-0.03500,0.55200,0.45900,-1.31600,78.69000,-0.18000
041225_04.46.52.977,-0.02500,-0.00300,1.00400,0.08700,-0.12300,-0.05300,0.55700,0.46200,-1.30700,78.53000,-0.16000
041225_04.46.52.989,-0.02300,-0.00300,1.00300,0.10500,-0.08700,-0.05300,0.55700,0.46200,-1.30700,78.96000,0.43000
041225_04.46.53.000,-0.02400,-0.00300,1.00300,0.08700,-0.12300,-0.01800,0.55700,0.46200,-1.31000,78.96000,0.00000
041225_04.46.53.012,-0.02300,-0.00200,1.00000,0.08700,-0.12300,-0.03500,0.56100,0.45400,-1.30900,78.67000,-0.29000
041225_04.46.53.024,-0.02600,-0.00300,1.00300,0.10500,-0.10500,-0.05300,0.56200,0.45900,-1.31300,78.78000,0.11000
041225_04.46.53.035,-0.02500,-0.00300,1.00100,0.10500,-0.14000,-0.03500,0.56200,0.46100,-1.30900,78.64000,-0.14000
041225_04.46.53.047,-0.02500,-0.00300,1.00200,0.10500,-0.15700,-0.01800,0.56500,0.46100,-1.30900,79.30000,0.66000
041225_04.46.53.058,-0.02600,-0.00200,1.00200,0.10500,-0.14000,-0.01800,0.56400,0.46000,-1.31200,78.91000,-0.39000
041225_04.46.53.070,-0.02400,-0.00300,1.00100,0.10500,-0.14000,-0.03500,0.56900,0.46200,-1.31400,78.64000,-0.27000
041225_04.46.53.082,-0.02500,-0.00300,1.00400,0.10500,-0.15700,0.00000,0.56500,0.46000,-1.30500,78.87000,0.23000
041225_04.46.53.093,-0.02300,-0.00300,1.00100,0.10500,-0.15700,-0.01800,0.56500,0.46000,-1.30500,78.77000,-0.10000
041225_04.46.53.105,-0.02500,-0.00200,1.00200,0.12300,-0.14000,-0.01800,0.56500,0.45800,-1.30700,79.21000,0.44000
041225_04.46.53.116,-0.02600,-0.00300,1.00300,0.10500,-0.14000,-0.01800,0.55800,0.46400,-1.31500,79.42000,0.21000
041225_04.46.53.128,-0.02500,-0.00200,1.00000,0.08700,-0.15700,-4.48000,0.56100,0.46000,-1.31300,78.43000,-0.99000
041225_04.46.53.139,-0.02500,-0.00300,1.00300,0.08700,-0.12300,-0.01800,0.55700,0.46300,-1.31300,78.64000,0.21000
041225_04.46.53.151,-0.02600,-0.00200,1.00100,0.08700,-0.12300,-0.01800,0.55700,0.46300,-1.31300,78.51000,-0.13000
041225_04.46.53.162,-0.02700,-0.00400,1.00500,0.08700,-0.12300,-0.01800,0.55300,0.46300,-1.31500,79.47000,0.96000
041225_04.46.53.174,-0.02600,-0.00300,1.00200,0.08700,-0.14000,-0.01800,0.55100,0.46200,-1.30800,79.60000,0.13000
041225_04.46.53.185,-0.02700,-0.00200,1.00200,0.08700,-0.12300,-0.01800,0.54400,0.46300,-1.31200,79.46000,-0.14000
041225_04.46.53.197,-0.02500,-0.00400,1.00300,0.07000,-0.14000,-0.01800,0.54400,0.46200,-1.30800,78.97000,-0.49000
041225_04.46.53.208,-0.02400,-0.00300,0.99900,0.07000,-0.12300,-0.01800,0.55000,0.46200,-1.30800,78.72000,-0.25000
041225_04.46.53.220,-0.02600,-0.00200,1.00500,0.08700,-0.12300,-0.01800,0.54700,0.46400,-1.31200,78.80000,0.08000
041225_04.46.53.231,-0.02500,-0.00400,1.00200,0.08700,-0.14000,-0.01800,0.54800,0.46300,-1.31000,79.13000,0.33000
041225_04.46.53.243,-0.02600,-0.00200,1.00000,0.08700,-0.14000,-0.03500,0.54700,0.46700,-1.30900,78.66000,-0.47000
041225_04.46.53.254,-0.02600,-0.00300,1.00300,0.08700,-0.12300,-0.01800,0.54700,0.46700,-1.30900,78.61000,-0.05000
041225_04.46.53.266,-0.02400,-0.00100,1.00000,0.08700,-0.12300,-0.05300,0.55100,0.46300,-1.31200,78.73000,0.12000
041225_04.46.53.277,-0.02600,-0.00300,1.00300,0.08700,-0.12300,-0.01800,0.55400,0.46200,-1.32000,78.42000,-0.31000
041225_04.46.53.289,-0.02500,-0.00200,1.00100,0.07000,-0.12300,-0.01800,0.55500,0.46200,-1.31200,79.47000,1.05000
041225_04.46.53.300,-0.02500,-0.00300,1.00100,0.08700,-0.10500,-0.01800,0.55300,0.46100,-1.31000,78.91000,-0.56000
041225_04.46.53.312,-0.02300,-0.00300,1.00100,0.08700,-0.12300,-0.03500,0.55300,0.46100,-1.31000,78.88000,-0.03000
041225_04.46.53.323,-0.02600,-0.00100,1.00300,0.08700,-0.10500,-0.03500,0.55800,0.46100,-1.31200,78.05000,-0.83000
041225_04.46.53.335,-0.02500,-0.00300,1.00400,0.08700,-0.12300,-0.01800,0.56000,0.46000,-1.31600,78.72000,0.67000
041225_04.46.53.346,-0.02400,-0.00200,1.00000,0.10500,-0.14000,-0.01800,0.56600,0.46500,-1.31800,79.42000,0.70000
041225_04.46.53.358,-0.02500,-0.00300,1.00500,0.12300,-0.12300,-0.01800,0.56600,0.46600,-1.31200,78.79000,-0.63000
041225_04.46.53.369,-0.02400,-0.00300,1.00100,0.12300,-0.14000,-0.01800,0.56200,0.46600,-1.31200,79.15000,0.36000
041225_04.46.53.381,-0.02400,-0.00100,1.00200,0.10500,-0.14000,-0.01800,0.56200,0.46200,-1.31300,79.04000,-0.11000
041225_04.46.53.392,-0.02400,-0.00300,1.00300,0.10500,-0.14000,-0.01800,0.56200,0.46300,-1.30700,78.98000,-0.06000
041225_04.46.53.404,-0.02500,-0.00200,1.00100,0.10500,-0.14000,-0.01800,0.55500,0.46100,-1.31000,78.98000,0.00000
041225_04.46.53.415,-0.02500,-0.00400,1.00400,0.10500,-0.14000,-0.03500,0.55500,0.46100,-1.31000,78.80000,-0.18000
041225_04.46.53.427,-0.02500,-0.00400,1.00100,0.08700,-0.12300,-0.03500,0.55900,0.46000,-1.30700,79.10000,0.30000
041225_04.46.53.438,-0.02500,-0.00300,1.00100,0.10500,-0.12300,-0.03500,0.55200,0.46300,-1.30900,79.02000,-0.08000
041225_04.46.53.450,-0.02500,-0.00400,1.00400,0.08700,-0.15700,-0.03500,0.55700,0.45900,-1.30600,78.39000,-0.63000
041225_04.46.53.462,-0.02400,-0.00100,1.00100,0.10500,-0.10500,-0.03500,0.55000,0.46300,-1.30400,78.93000,0.54000
041225_04.46.53.473,-0.02500,-0.00200,1.00200,0.10500,-0.12300,-0.01800,0.55000,0.46300,-1.30400,78.76000,-0.17000
041225_04.46.53.485,-0.02500,-0.00300,1.00200,0.08700,-0.10500,-0.03500,0.54700,0.46200,-1.30500,78.80000,0.04000
041225_04.46.53.496,-0.02500,-0.00400,1.00400,0.10500,-0.10500,-0.01800,0.54300,0.46400,-1.30700,78.83000,0.03000
041225_04.46.53.508,-0.02500,-0.00300,1.00100,0.10500,-0.14000,0.00000,0.54400,0.46300,-1.30700,79.43000,0.60000
041225_04.46.53.519,-0.02500,-0.00200,1.00200,0.08700,-0.12300,-0.01800,0.54400,0.46300,-1.30900,79.38000,-0.05000
041225_04.46.53.531,-0.02500,-0.00400,1.00400,0.08700,-0.12300,-0.01800,0.54200,0.46300,-1.30900,79.17000,-0.21000
041225_04.46.53.542,-0.02400,-0.00300,1.00000,0.08700,-0.14000,0.00000,0.55100,0.46300,-1.31600,78.91000,-0.26000
041225_04.46.53.554,-0.02500,-0.00300,1.00400,0.07000,-0.14000,-0.01800,0.54900,0.46300,-1.30700,77.99000,-0.92000
041225_04.46.53.566,-0.02500,-0.00300,1.00100,0.08700,-0.12300,-0.03500,0.55500,0.46200,-1.30700,78.65000,0.66000
041225_04.46.53.577,-0.02600,-0.00300,1.00100,0.07000,-0.10500,-0.03500,0.55500,0.46200,-1.30700,79.38000,0.73000
041225_04.46.53.589,-0.02700,-0.00300,1.00400,0.07000,-0.12300,-0.01800,0.56000,0.45800,-1.30600,78.95000,-0.43000
041225_04.46.53.600,-0.02200,-0.00200,1.00100,0.08700,-0.14000,-0.03500,0.56600,0.46000,-1.30900,79.31000,0.36000
041225_04.46.53.612,-0.02500,-0.00200,1.00200,0.08700,-0.12300,-0.01800,0.56300,0.46300,-1.31000,78.57000,-0.74000
041225_04.46.53.623,-0.02500,-0.00300,1.00200,0.08700,-0.14000,-0.01800,0.56300,0.45600,-1.31200,78.60000,0.03000
041225_04.46.53.635,-0.02600,-0.00300,1.00400,0.08700,-0.12300,-0.01800,0.56300,0.45600,-1.31200,79.08000,0.48000
041225_04.46.53.646,-0.02500,-0.00200,1.00000,0.10500,-0.10500,-0.03500,0.56700,0.45900,-1.30900,79.13000,0.05000
041225_04.46.53.658,-0.02400,-0.00300,1.00300,0.08700,-0.12300,-0.01800,0.56800,0.46000,-1.31100,79.26000,0.13000
041225_04.46.53.670,-0.02500,-0.00200,1.00300,0.07000,-0.12300,-0.01800,0.56500,0.45900,-1.30700,79.15000,-0.11000
041225_04.46.53.681,-0.02500,-0.00300,1.00200,0.08700,-0.10500,-0.05300,0.56500,0.46000,-1.30400,78.78000,-0.37000
041225_04.46.53.693,-0.02600,-0.00300,1.00400,0.08700,-0.12300,-0.01800,0.55800,0.46000,-1.30400,79.05000,0.27000
041225_04.46.53.704,-0.02500,-0.00200,1.00100,0.10500,-0.10500,-0.03500,0.56500,0.45700,-1.30700,79.65000,0.60000
041225_04.46.53.716,-0.02400,-0.00300,1.00100,0.10500,-0.12300,-0.01800,0.55600,0.46200,-1.30700,78.39000,-1.26000
041225_04.46.53.727,-0.02700,-0.00300,1.00500,0.12300,-0.12300,-0.01800,0.55600,0.45900,-1.30800,78.71000,0.32000
041225_04.46.53.739,-0.02500,-0.00100,1.00100,0.10500,-0.12300,-0.01800,0.55600,0.45900,-1.30800,78.29000,-0.42000
041225_04.46.53.750,-0.02600,-0.00400,1.00300,0.08700,-0.12300,-0.03500,0.55000,0.45800,-1.30400,79.02000,0.73000
041225_04.46.53.762,-0.02500,-0.00300,1.00200,0.07000,-0.10500,-0.03500,0.55200,0.46400,-1.30200,79.46000,0.44000
041225_04.46.53.774,-0.02500,-0.00400,1.00100,0.08700,-0.12300,-0.03500,0.55000,0.45900,-1.30000,78.93000,-0.53000
041225_04.46.53.785,-0.02500,-0.00300,0.97400,0.08700,-0.12300,-0.01800,0.54900,0.46000,-1.30900,78.85000,-0.08000
041225_04.46.53.797,-0.02400,-0.00300,1.00300,0.05300,-0.14000,-0.01800,0.54900,0.46000,-1.30900,78.17000,-0.68000
041225_04.46.53.809,-0.02600,-0.00400,1.00100,0.08700,-0.12300,-0.01800,0.54400,0.45900,-1.30600,79.34000,1.17000
041225_04.46.53.820,-0.02300,-0.00200,1.00200,0.08700,-0.14000,-0.01800,0.54400,0.46000,-1.30800,79.35000,0.01000
041225_04.46.53.832,-0.02600,-0.00300,1.00300,0.07000,-0.12300,-0.01800,0.55000,0.46200,-1.29900,79.16000,-0.19000
041225_04.46.53.843,-0.02500,-0.00200,1.00300,0.05300,-0.12300,-0.03500,0.55000,0.46000,-1.30700,79.45000,0.29000
041225_04.46.53.855,-0.02400,-0.00300,1.00200,0.08700,-0.17500,-0.03500,0.55900,0.46000,-1.30700,79.14000,-0.31000
041225_04.46.53.866,-0.02600,-0.00400,1.00200,0.12300,-0.14000,-0.01800,0.55300,0.45900,-1.31100,79.61000,0.47000
041225_04.46.53.878,-0.02400,-0.00200,1.00200,0.10500,-0.14000,-0.03500,0.55800,0.45800,-1.30500,78.73000,-0.88000
041225_04.46.53.889,-0.02500,-0.00400,1.00300,0.10500,-0.10500,0.00000,0.56300,0.45800,-1.30700,79.48000,0.75000
041225_04.46.53.901,-0.02600,-0.00300,1.00200,0.10500,-0.15700,-0.01800,0.56300,0.45800,-1.30700,78.84000,-0.64000
041225_04.46.53.913,-0.02400,-0.00400,0.99900,0.08700,-0.12300,-0.01800,0.56500,0.45800,-1.30800,79.48000,0.64000
041225_04.46.53.924,-0.02600,-0.00400,1.00200,0.08700,-0.14000,-0.01800,0.56800,0.46200,-1.31100,79.27000,-0.21000
041225_04.46.53.936,-0.02300,-0.00300,1.00000,0.07000,-0.14000,-0.01800,0.56300,0.46300,-1.30600,78.77000,-0.50000
041225_04.46.53.947,-0.02400,-0.00300,1.00200,0.10500,-0.12300,-0.03500,0.56000,0.45900,-1.30600,79.34000,0.57000
041225_04.46.53.959,-0.02400,-0.00400,1.00100,0.10500,-0.12300,-0.03500,0.56000,0.45900,-1.30600,78.83000,-0.51000
041225_04.46.53.971,-0.02600,-0.00300,1.00300,0.08700,-0.12300,-0.01800,0.56200,0.46300,-1.30400,78.64000,-0.19000
041225_04.46.53.982,-0.02500,-0.00400,1.00000,0.10500,-0.10500,-0.01800,0.56100,0.46200,-1.30200,78.84000,0.20000
041225_04.46.53.994,-0.02500,-0.00300,1.00000,0.08700,-0.14000,-0.03500,0.55300,0.46000,-1.30100,79.68000,0.84000
041225_04.46.54.006,-0.02700,-0.00400,1.00500,0.08700,-0.12300,-0.03500,0.55300,0.46100,-1.29900,79.05000,-0.63000
041225_04.46.54.017,-0.02400,-0.00300,1.00100,0.08700,-0.14000,-0.01800,0.56000,0.46100,-1.29900,79.24000,0.19000
041225_04.46.54.029,-0.02500,-0.00400,1.00200,0.08700,-0.12300,-0.01800,0.55000,0.46200,-1.30900,79.10000,-0.14000
041225_04.46.54.040,-0.02500,-0.00400,1.00300,0.08700,-0.12300,-0.01800,0.55100,0.46400,-1.30700,78.86000,-0.24000
041225_04.46.54.052,-0.02600,-0.00200,1.00200,0.10500,-0.14000,-0.03500,0.54900,0.46300,-1.31000,78.72000,-0.14000
041225_04.46.54.063,-0.02600,-0.00200,1.00500,0.12300,-0.14000,-0.01800,0.54900,0.46300,-1.31000,78.50000,-0.22000
041225_04.46.54.075,-0.02600,-0.00300,1.00100,0.08700,-0.15700,-0.01800,0.54300,0.46000,-1.30400,78.67000,0.17000
041225_04.46.54.086,-0.02600,-0.00300,1.00400,0.10500,-0.14000,-0.03500,0.54700,0.45900,-1.30200,78.67000,0.00000
041225_04.46.54.098,-0.02600,-0.00200,1.00400,0.08700,-0.17500,-0.01800,0.54800,0.46300,-1.30200,79.06000,0.39000
041225_04.46.54.109,-0.02400,-0.00200,1.00400,0.07000,-0.14000,-0.01800,0.54600,0.46000,-1.30500,79.13000,0.07000
041225_04.46.54.121,-0.02700,-0.00300,1.00100,0.08700,-0.14000,-0.01800,0.54600,0.46000,-1.30500,79.44000,0.31000
041225_04.46.54.132,-0.02600,-0.00200,1.00300,0.07000,-0.15700,-0.03500,0.55300,0.46000,-1.30200,79.06000,-0.38000
041225_04.46.54.144,-0.02600,-0.00300,1.00400,0.07000,-0.12300,-0.01800,0.55600,0.45800,-1.30100,79.29000,0.23000
041225_04.46.54.155,-0.02400,-0.00200,1.00000,0.07000,-0.12300,-0.01800,0.56200,0.45900,-1.30600,79.33000,0.04000
041225_04.46.54.167,-0.02600,-0.00400,1.00300,0.07000,-0.12300,-0.01800,0.56200,0.46400,-1.30900,78.50000,-0.83000
041225_04.46.54.178,-0.02600,-0.00200,1.00300,0.05300,-0.12300,-0.01800,0.55800,0.46400,-1.30900,78.85000,0.35000
041225_04.46.54.189,-0.02600,-0.00300,1.00200,0.07000,-0.12300,-0.03500,0.56100,0.46300,-1.30900,79.18000,0.33000
041225_04.46.54.201,-0.02600,-0.00300,1.00500,0.08700,-0.10500,-0.01800,0.56400,0.46200,-1.30500,79.60000,0.42000
041225_04.46.54.213,-0.02400,-0.00300,0.99900,0.08700,-0.10500,-0.03500,0.56500,0.46000,-1.31100,79.09000,-0.51000
041225_04.46.54.224,-0.02500,-0.00300,1.00200,0.07000,-0.08700,-0.03500,0.56500,0.46000,-1.31100,79.16000,0.07000
041225_04.46.54.236,-0.02500,-0.00200,1.00300,0.08700,-0.10500,-0.01800,0.56200,0.46200,-1.31200,79.44000,0.28000
041225_04.46.54.247,-0.02400,-0.00300,1.00100,0.10500,-0.08700,-0.01800,0.55700,0.46100,-1.30000,79.38000,-0.06000
041225_04.46.54.259,-0.02600,-0.00300,1.00400,0.08700,-0.14000,-0.01800,0.56000,0.45700,-1.30600,79.73000,0.35000
041225_04.46.54.271,-0.02500,-0.00300,1.00200,0.10500,-0.12300,-0.01800,0.55500,0.45800,-1.30900,79.07000,-0.66000
041225_04.46.54.282,-0.02500,-0.00300,1.00300,0.08700,-0.14000,0.00000,0.55500,0.45800,-1.30900,79.12000,0.05000
041225_04.46.54.294,-0.02300,-0.00300,1.00000,0.08700,-0.14000,-0.03500,0.55600,0.46000,-1.30100,78.76000,-0.36000
041225_04.46.54.306,-0.02600,-0.00300,1.00300,0.12300,-0.14000,-0.03500,0.55300,0.46000,-1.30200,79.28000,0.52000
041225_04.46.54.317,-0.02500,-0.00300,1.00300,0.10500,-0.15700,0.00000,0.54800,0.46300,-1.29900,79.17000,-0.11000
041225_04.46.54.329,-0.02500,-0.00300,1.00100,0.10500,-0.14000,-0.01800,0.54800,0.46500,-1.30200,78.65000,-0.52000
041225_04.46.54.340,-0.02600,-0.00500,1.00400,0.10500,-0.15700,-0.01800,0.55200,0.46500,-1.30200,78.83000,0.18000
041225_04.46.54.352,-0.02500,-0.00300,1.00100,0.10500,-0.14000,-0.01800,0.55100,0.46100,-1.30500,79.50000,0.67000
041225_04.46.54.364,-0.02600,-0.00500,1.00400,0.12300,-0.14000,-0.01800,0.54900,0.45900,-1.30600,78.45000,-1.05000
041225_04.46.54.375,-0.02500,-0.00400,1.00400,0.10500,-0.12300,-0.01800,0.54800,0.45500,-1.31000,78.65000,0.20000
041225_04.46.54.387,-0.02500,-0.00300,1.00000,0.07000,-0.14000,-0.01800,0.54800,0.45500,-1.31000,78.80000,0.15000
041225_04.46.54.399,-0.02600,-0.00400,1.00400,0.08700,-0.12300,-0.03500,0.54700,0.45600,-1.30400,78.78000,-0.02000
041225_04.46.54.410,-0.02400,-0.00200,1.00100,0.08700,-0.14000,-0.01800,0.55800,0.46100,-1.30700,78.35000,-0.43000
041225_04.46.54.422,-0.02500,-0.00100,1.00200,0.08700,-0.10500,-0.03500,0.55800,0.45800,-1.30800,79.76000,1.41000
041225_04.46.54.434,-0.02600,-0.00300,1.00000,0.10500,-0.10500,-0.01800,0.55500,0.45700,-1.30900,79.09000,-0.67000
041225_04.46.54.445,-0.02500,-0.00200,1.00300,0.08700,-0.12300,-0.01800,0.55500,0.45700,-1.30900,79.24000,0.15000
041225_04.46.54.457,-0.02500,-0.00200,1.00300,0.10500,-0.10500,-0.01800,0.55900,0.46100,-1.30700,79.41000,0.17000
041225_04.46.54.468,-0.02500,-0.00200,1.00200,0.10500,-0.10500,-0.03500,0.56000,0.45600,-1.31100,79.25000,-0.16000
041225_04.46.54.479,-0.02400,-0.00400,1.00400,0.07000,-0.10500,-0.05300,0.56600,0.45900,-1.31000,79.00000,-0.25000
041225_04.46.54.491,-0.02500,-0.00200,0.99900,0.07000,-0.10500,-0.01800,0.56600,0.45700,-1.31000,79.55000,0.55000
041225_04.46.54.502,-0.02400,-0.00300,1.00300,0.08700,-0.10500,-0.03500,0.56300,0.45700,-1.31000,78.50000,-1.05000
041225_04.46.54.514,-0.02500,-0.00200,1.00400,0.08700,-0.10500,-0.01800,0.55500,0.45700,-1.30700,79.40000,0.90000
041225_04.46.54.525,-0.02300,-0.00200,1.00000,0.08700,-0.14000,-0.01800,0.55900,0.45600,-1.30600,79.07000,-0.33000
041225_04.46.54.537,-0.02500,-0.00500,1.00400,0.08700,-0.12300,-0.01800,0.55900,0.45500,-1.30600,78.85000,-0.22000
041225_04.46.54.548,-0.02500,-0.00300,1.00100,0.08700,-0.12300,0.00000,0.55900,0.45500,-1.30600,78.89000,0.04000
041225_04.46.54.559,-0.02500,-0.00300,1.00300,0.08700,-0.12300,-0.01800,0.55200,0.45900,-1.30400,78.68000,-0.21000
041225_04.46.54.571,-0.02600,-0.00300,1.00200,0.08700,-0.12300,0.00000,0.55100,0.45800,-1.29900,79.14000,0.46000
041225_04.46.54.582,-0.02500,-0.00200,0.99900,0.08700,-0.10500,-0.01800,0.54900,0.45900,-1.29900,79.44000,0.30000
041225_04.46.54.594,-0.02700,-0.00300,1.00100,0.10500,-0.14000,-0.01800,0.55200,0.45900,-1.31200,79.22000,-0.22000
041225_04.46.54.605,-0.02600,-0.00200,1.00100,0.10500,-0.14000,-0.01800,0.55200,0.45900,-1.31200,78.85000,-0.37000
041225_04.46.54.617,-0.02500,-0.00300,1.00500,0.08700,-0.12300,-0.01800,0.54700,0.46500,-1.30800,79.25000,0.40000
041225_04.46.54.628,-0.02500,-0.00200,1.00000,0.10500,-0.10500,-0.05300,0.54800,0.46400,-1.29900,79.36000,0.11000
041225_04.46.54.639,-0.02700,-0.00400,1.00500,0.10500,-0.10500,-0.01800,0.54500,0.45900,-1.30200,79.13000,-0.23000
041225_04.46.54.651,-0.02500,-0.00200,1.00200,0.10500,-0.12300,-0.01800,0.54500,0.45800,-1.30600,78.66000,-0.47000
041225_04.46.54.662,-0.02400,-0.00300,1.00100,0.10500,-0.14000,0.00000,0.55200,0.45800,-1.30600,78.58000,-0.08000
041225_04.46.54.674,-0.02500,-0.00400,1.00400,0.10500,-0.10500,0.00000,0.55500,0.45700,-1.30100,79.21000,0.63000
041225_04.46.54.685,-0.02400,-0.00200,1.00000,0.10500,-0.12300,-0.03500,0.55200,0.45600,-1.30300,79.00000,-0.21000
041225_04.46.54.697,-0.02400,-0.00100,1.00400,0.10500,-0.10500,-0.01800,0.55700,0.46100,-1.30500,78.90000,-0.10000
041225_04.46.54.708,-0.02500,-0.00300,1.00300,0.08700,-0.10500,-0.01800,0.55700,0.46100,-1.30500,78.65000,-0.25000
041225_04.46.54.720,-0.02300,-0.00200,1.00000,0.08700,-0.10500,-0.01800,0.56000,0.45700,-1.29900,78.94000,0.29000
041225_04.46.54.731,-0.02400,-0.00300,1.00300,0.08700,-0.12300,-0.03500,0.56000,0.45700,-1.30800,79.23000,0.29000
041225_04.46.54.743,-0.02400,-0.00200,1.00200,0.08700,-0.12300,-0.01800,0.56300,0.46100,-1.30500,78.86000,-0.37000
041225_04.46.54.754,-0.02600,-0.00300,1.00200,0.08700,-0.12300,-0.01800,0.56000,0.46200,-1.30600,79.32000,0.46000
041225_04.46.54.766,-0.02500,-0.00200,1.00100,0.08700,-0.14000,-0.01800,0.56000,0.46200,-1.30600,79.19000,-0.13000
041225_04.46.54.777,-0.02400,-0.00300,1.00400,0.10500,-0.12300,0.00000,0.56200,0.45800,-1.30000,79.24000,0.05000
041225_04.46.54.788,-0.02500,-0.00300,1.00100,0.12300,-0.12300,-0.01800,0.55900,0.46200,-1.30300,78.72000,-0.52000
041225_04.46.54.800,-0.02500,-0.00200,1.00100,0.08700,-0.14000,-0.03500,0.55600,0.46200,-1.29500,78.64000,-0.08000
041225_04.46.54.811,-0.02500,-0.00400,1.00300,0.08700,-0.12300,-0.01800,0.55600,0.45700,-1.29200,78.71000,0.07000
041225_04.46.54.823,-0.02400,-0.00200,1.00100,0.08700,-0.14000,-0.01800,0.55600,0.45700,-1.29200,78.57000,-0.14000
041225_04.46.54.834,-0.02500,-0.00300,1.00300,0.10500,-0.15700,-0.01800,0.55500,0.45400,-1.29500,79.84000,1.27000
041225_04.46.54.846,-0.02500,-0.00200,1.00300,0.08700,-0.14000,-0.01800,0.55300,0.45800,-1.29600,79.08000,-0.76000
041225_04.46.54.857,-0.02500,-0.00300,1.00000,0.08700,-0.12300,-0.01800,0.55200,0.46100,-1.29900,78.47000,-0.61000
041225_04.46.54.868,-0.02600,-0.00200,1.00600,0.10500,-0.10500,0.00000,0.55200,0.46100,-1.29900,78.92000,0.45000
041225_04.46.54.880,-0.02500,-0.00300,1.00300,0.10500,-0.14000,-0.01800,0.54600,0.46500,-1.30200,78.78000,-0.14000
041225_04.46.54.891,-0.02600,-0.00300,1.00200,0.08700,-0.10500,-0.01800,0.54500,0.46500,-1.30500,78.62000,-0.16000
041225_04.46.54.903,-0.02600,-0.00400,1.00400,0.08700,-0.14000,-0.03500,0.54900,0.46300,-1.30600,78.63000,0.01000
041225_04.46.54.914,-0.02600,-0.00400,1.00400,0.10500,-0.12300,-0.03500,0.54700,0.45900,-1.29700,78.78000,0.15000
041225_04.46.54.926,-0.02500,-0.00300,1.00100,0.07000,-0.10500,-0.05300,0.54700,0.45900,-1.29700,79.54000,0.76000
041225_04.46.54.937,-0.02400,-0.00200,1.00100,0.07000,-0.10500,-0.05300,0.54800,0.45700,-1.30800,79.37000,-0.17000
041225_04.46.54.949,-0.02500,-0.00500,1.00400,0.08700,-0.08700,-0.01800,0.54500,0.46100,-1.31200,79.39000,0.02000
041225_04.46.54.960,-0.02400,-0.00300,1.00200,0.08700,-0.12300,-0.03500,0.55300,0.45900,-1.30900,79.12000,-0.27000
041225_04.46.54.971,-0.02400,-0.00300,1.00200,0.08700,-0.12300,-0.01800,0.55300,0.45600,-1.30800,79.00000,-0.12000
041225_04.46.54.983,-0.02500,-0.00200,1.00200,0.08700,-0.12300,-0.01800,0.55700,0.45600,-1.30800,78.66000,-0.34000
041225_04.46.54.994,-0.02300,-0.00300,1.00000,0.08700,-0.10500,-0.03500,0.55100,0.45600,-1.30300,79.53000,0.87000
041225_04.46.55.005,-0.02600,-0.00200,1.00400,0.08700,-0.12300,-0.03500,0.55600,0.46100,-1.30600,79.12000,-0.41000
041225_04.46.55.017,-0.02400,-0.00300,1.00100,0.08700,-0.12300,-0.03500,0.56400,0.46100,-1.29900,78.95000,-0.17000
041225_04.46.55.028,-0.02500,-0.00200,1.00100,0.07000,-0.10500,-0.03500,0.56400,0.46100,-1.29900,78.88000,-0.07000
041225_04.46.55.040,-0.02500,-0.00400,1.00300,0.10500,-0.14000,-0.01800,0.55600,0.46100,-1.30500,79.23000,0.35000
041225_04.46.55.051,-0.02500,-0.00200,1.00100,0.08700,-0.14000,0.00000,0.56200,0.46100,-1.31100,78.91000,-0.32000
041225_04.46.55.063,-0.02600,-0.00400,1.00400,0.07000,-0.14000,-0.03500,0.56200,0.45900,-1.30600,78.92000,0.01000
041225_04.46.55.074,-0.02600,-0.00200,1.00000,0.07000,-0.10500,-0.03500,0.55700,0.45700,-1.30500,79.34000,0.42000
041225_04.46.55.086,-0.02500,-0.00400,1.00400,0.10500,-0.12300,-0.01800,0.55700,0.45700,-1.30500,78.58000,-0.76000
041225_04.46.55.097,-0.02500,-0.00100,1.00100,0.10500,-0.15700,-0.01800,0.56000,0.46000,-1.30400,79.82000,1.24000
041225_04.46.55.108,-0.02500,-0.00300,1.00300,0.08700,-0.14000,-0.01800,0.55600,0.45900,-1.29500,78.47000,-1.35000
041225_04.46.55.120,-0.02500,-0.00300,1.00200,0.10500,-0.14000,0.00000,0.55200,0.46100,-1.29400,79.28000,0.81000
041225_04.46.55.131,-0.02700,-0.00400,1.00000,0.10500,-0.14000,0.00000,0.55200,0.45800,-1.30200,78.43000,-0.85000
041225_04.46.55.143,-0.02600,-0.00400,1.00400,0.10500,-0.12300,0.01800,0.54500,0.45800,-1.30200,78.87000,0.44000
041225_04.46.55.154,-0.02700,-0.00300,1.00000,0.10500,-0.14000,-0.01800,0.54900,0.46000,-1.29900,78.90000,0.03000
041225_04.46.55.165,-0.02500,-0.00300,1.00300,0.08700,-0.12300,-0.01800,0.54700,0.44900,-1.29500,79.44000,0.54000
041225_04.46.55.177,-0.02700,-0.00500,1.00300,0.08700,-0.14000,-0.01800,0.54400,0.45200,-1.30100,79.34000,-0.10000
041225_04.46.55.188,-0.02500,-0.00300,1.00000,0.08700,-0.10500,-0.03500,0.54400,0.45200,-1.30100,78.76000,-0.58000
041225_04.46.55.200,-0.02500,-0.00300,1.00400,0.10500,-0.12300,-0.01800,0.54200,0.45100,-1.29700,79.12000,0.36000
041225_04.46.55.211,-0.02500,-0.00300,1.00100,0.10500,-0.12300,-0.01800,0.54900,0.45500,-1.30300,78.89000,-0.23000
041225_04.46.55.223,-0.02400,-0.00300,1.00000,0.08700,-0.12300,-0.03500,0.54700,0.45300,-1.29900,78.81000,-0.08000
041225_04.46.55.234,-0.02300,-0.00200,1.00200,0.10500,-0.12300,-0.03500,0.55100,0.44800,-1.30500,79.39000,0.58000
041225_04.46.55.246,-0.02600,-0.00200,1.00400,0.08700,-0.14000,-0.01800,0.55100,0.44800,-1.30500,79.01000,-0.38000
041225_04.46.55.257,-0.02400,-0.00200,1.00300,0.07000,-0.12300,-0.01800,0.55400,0.45200,-1.30400,79.06000,0.05000
041225_04.46.55.268,-0.02700,-0.00300,0.99900,0.05300,-0.10500,-0.01800,0.56100,0.45200,-1.30200,79.18000,0.12000
041225_04.46.55.280,-0.02200,-0.00400,1.00400,0.08700,-0.10500,-0.01800,0.56100,0.45200,-1.30400,78.68000,-0.50000
041225_04.46.55.291,-0.02500,-0.00200,1.00000,0.10500,-0.12300,-0.03500,0.56100,0.45700,-1.30300,79.03000,0.35000
041225_04.46.55.303,-0.02400,-0.00300,1.00300,0.08700,-0.10500,-0.01800,0.56800,0.45700,-1.30300,79.76000,0.73000
041225_04.46.55.314,-0.02600,-0.00500,1.00300,0.07000,-0.14000,-0.03500,0.56500,0.45800,-1.31000,78.52000,-1.24000
041225_04.46.55.326,-0.02400,-0.00300,1.00000,0.07000,-0.12300,-0.03500,0.56400,0.45400,-1.30600,78.99000,0.47000
041225_04.46.55.337,-0.02400,-0.00100,1.00300,0.08700,-0.12300,-0.01800,0.55900,0.46000,-1.29600,78.88000,-0.11000
041225_04.46.55.349,-0.02500,-0.00300,1.00100,0.08700,-0.12300,-0.03500,0.55900,0.46000,-1.29600,78.98000,0.10000
041225_04.46.55.360,-0.02500,-0.00300,1.00300,0.07000,-0.14000,-0.01800,0.56400,0.45700,-1.29900,78.84000,-0.14000
041225_04.46.55.372,-0.02400,-0.00500,1.00300,0.08700,-0.14000,-0.01800,0.55400,0.45400,-1.29500,79.50000,0.66000
041225_04.46.55.383,-0.02500,-0.00100,1.00300,0.07000,-0.12300,-0.01800,0.55200,0.45700,-1.29400,78.82000,-0.68000
041225_04.46.55.395,-0.02400,-0.00300,1.00100,0.07000,-0.14000,-0.01800,0.55600,0.45600,-1.29400,79.28000,0.46000
041225_04.46.55.406,-0.02300,-0.00400,1.00000,0.07000,-0.15700,-0.03500,0.55600,0.45600,-1.29400,78.88000,-0.40000
041225_04.46.55.418,-0.02500,-0.00300,1.00500,0.08700,-0.10500,-0.01800,0.55400,0.45500,-1.29200,79.01000,0.13000
041225_04.46.55.429,-0.02400,-0.00200,0.99900,0.08700,-0.12300,-0.03500,0.54900,0.45400,-1.29600,78.81000,-0.20000
041225_04.46.55.441,-0.02600,-0.00400,1.00100,0.05300,-0.14000,-0.03500,0.54600,0.45400,-1.29800,79.85000,1.04000
041225_04.46.55.452,-0.02500,-0.00300,1.00200,0.08700,-0.14000,-0.03500,0.54600,0.45300,-1.29500,78.92000,-0.93000
041225_04.46.55.463,-0.02500,-0.00300,1.00100,0.10500,-0.12300,-0.03500,0.54800,0.45300,-1.29500,79.26000,0.34000
041225_04.46.55.475,-0.02400,-0.00200,1.00500,0.08700,-0.10500,-0.01800,0.54700,0.45500,-1.30200,79.37000,0.11000
041225_04.46.55.486,-0.02500,-0.00300,1.00100,0.07000,-0.10500,-0.03500,0.55000,0.45100,-1.30100,79.08000,-0.29000
041225_04.46.55.498,-0.02600,-0.00500,1.00100,0.08700,-0.12300,-0.01800,0.54900,0.45200,-1.30000,79.21000,0.13000
041225_04.46.55.509,-0.02700,-0.00400,1.00500,0.08700,-0.12300,-0.01800,0.54900,0.45200,-1.30000,79.37000,0.16000
041225_04.46.55.521,-0.02400,-0.00000,1.00100,0.10500,-0.14000,-0.03500,0.55500,0.45500,-1.30100,79.62000,0.25000
041225_04.46.55.532,-0.02400,-0.00400,1.00400,0.10500,-0.10500,-0.01800,0.56100,0.45300,-1.29400,79.11000,-0.51000
041225_04.46.55.544,-0.02500,-0.00500,1.00100,0.08700,-0.12300,-0.03500,0.55800,0.45400,-1.30200,79.30000,0.19000
041225_04.46.55.555,-0.02600,-0.00200,1.00500,0.08700,-0.15700,-0.03500,0.55900,0.45100,-1.29400,79.20000,-0.10000
041225_04.46.55.566,-0.02400,-0.00100,1.00000,0.08700,-0.15700,-0.03500,0.55900,0.45100,-1.29400,79.52000,0.32000
041225_04.46.55.577,-0.02400,-0.00300,1.00200,0.08700,-0.12300,-0.01800,0.56200,0.45500,-1.29500,79.26000,-0.26000
041225_04.46.55.588,-0.02600,-0.00400,1.00400,0.08700,-0.14000,-0.01800,0.57000,0.45400,-1.30600,79.42000,0.16000
041225_04.46.55.600,-0.02500,-0.00200,1.00000,0.10500,-0.14000,-0.01800,0.56200,0.45300,-1.30000,78.56000,-0.86000
041225_04.46.55.611,-0.02400,-0.00200,1.00400,0.12300,-0.12300,-0.01800,0.56200,0.45300,-1.29900,78.93000,0.37000
041225_04.46.55.623,-0.02500,-0.00300,1.00000,0.12300,-0.12300,-0.01800,0.56100,0.45200,-1.29900,79.81000,0.88000
041225_04.46.55.634,-0.02500,-0.00300,1.00100,0.12300,-0.10500,-0.03500,0.56200,0.45300,-1.29600,79.33000,-0.48000
041225_04.46.55.646,-0.02700,-0.00400,1.00400,0.10500,-0.10500,-0.03500,0.56300,0.45000,-1.29400,78.84000,-0.49000
041225_04.46.55.657,-0.02400,-0.00200,1.00200,0.12300,-0.12300,-0.01800,0.56200,0.45500,-1.29400,78.82000,-0.02000
041225_04.46.55.668,-0.02500,-0.00400,1.00300,0.08700,-0.10500,-0.01800,0.56200,0.45500,-1.29400,78.99000,0.17000
041225_04.46.55.680,-0.02400,-0.00200,1.00300,0.07000,-0.10500,-0.01800,0.55900,0.45600,-1.29300,79.25000,0.26000
041225_04.46.55.691,-0.02400,-0.00300,1.00200,0.08700,-0.14000,-0.01800,0.55000,0.45100,-1.29400,79.20000,-0.05000
041225_04.46.55.703,-0.02400,-0.00500,1.00100,0.08700,-0.14000,-0.01800,0.55100,0.45600,-1.29500,79.17000,-0.03000
041225_04.46.55.714,-0.02500,-0.00500,1.00300,0.08700,-0.12300,0.00000,0.54800,0.45300,-1.30000,79.07000,-0.10000
041225_04.46.55.726,-0.02500,-0.00300,1.00300,0.07000,-0.14000,-0.01800,0.54800,0.45300,-1.30000,78.68000,-0.39000
041225_04.46.55.737,-0.02500,-0.00400,1.00100,0.07000,-0.14000,-0.01800,0.55400,0.45000,-1.29800,79.09000,0.41000
041225_04.46.55.749,-0.02500,-0.00400,1.00300,0.08700,-0.14000,0.00000,0.55100,0.45400,-1.29700,78.70000,-0.39000
041225_04.46.55.760,-0.02600,-0.00300,1.00000,0.10500,-0.14000,-0.03500,0.54900,0.45200,-1.30400,79.26000,0.56000
041225_04.46.55.772,-0.02500,-0.00300,1.00200,0.08700,-0.12300,-0.01800,0.54900,0.45200,-1.30000,78.84000,-0.42000
041225_04.46.55.783,-0.02600,-0.00400,1.00300,0.10500,-0.10500,0.00000,0.55700,0.45500,-1.30000,79.03000,0.19000
041225_04.46.55.794,-0.02500,-0.00200,1.00100,0.10500,-0.12300,-0.01800,0.55700,0.45700,-1.30200,79.00000,-0.03000
041225_04.46.55.806,-0.02500,-0.00400,1.00200,0.12300,-0.14000,-0.01800,0.55700,0.45400,-1.30800,79.37000,0.37000
041225_04.46.55.817,-0.02400,-0.00400,1.00200,0.10500,-0.12300,-0.01800,0.56200,0.45200,-1.30600,79.01000,-0.36000
041225_04.46.55.829,-0.02500,-0.00200,1.00200,0.10500,-0.10500,-0.03500,0.56200,0.45200,-1.30600,78.26000,-0.75000
041225_04.46.55.840,-0.02500,-0.00400,1.00400,0.08700,-0.12300,-0.01800,0.56100,0.45100,-1.30400,78.78000,0.52000
041225_04.46.55.852,-0.02400,-0.00200,1.00000,0.10500,-0.12300,-0.01800,0.56200,0.44600,-1.30300,79.54000,0.76000
041225_04.46.55.863,-0.02400,-0.00300,1.00200,0.10500,-0.12300,-0.01800,0.56100,0.45300,-1.30600,78.97000,-0.57000
041225_04.46.55.875,-0.02500,-0.00200,1.00000,0.12300,-0.14000,-0.01800,0.56100,0.44900,-1.30100,78.93000,-0.04000
041225_04.46.55.886,-0.02500,-0.00500,1.00300,0.08700,-0.12300,-0.03500,0.56100,0.44900,-1.30100,79.45000,0.52000
041225_04.46.55.898,-0.02400,-0.00300,1.00200,0.08700,-0.12300,-0.01800,0.56300,0.45500,-1.30600,79.38000,-0.07000
041225_04.46.55.909,-0.02500,-0.00100,1.00200,0.08700,-0.14000,0.00000,0.55800,0.45400,-1.30300,78.95000,-0.43000
041225_04.46.55.920,-0.02600,-0.00400,1.00400,0.08700,-0.12300,-0.01800,0.55900,0.45700,-1.30100,78.74000,-0.21000
041225_04.46.55.932,-0.02300,-0.00100,1.00000,0.08700,-0.12300,-0.03500,0.55900,0.45700,-1.29700,79.23000,0.49000
041225_04.46.55.943,-0.02600,-0.00300,1.00300,0.08700,-0.10500,-0.01800,0.55600,0.45500,-1.29700,78.99000,-0.24000
041225_04.46.55.955,-0.02400,-0.00300,1.00200,0.07000,-0.10500,-0.03500,0.55200,0.45800,-1.30300,79.00000,0.01000
041225_04.46.55.966,-0.02500,-0.00300,1.00100,0.10500,-0.10500,-0.01800,0.54800,0.45300,-1.29900,79.55000,0.55000
041225_04.46.55.978,-0.02400,-0.00400,1.00600,0.12300,-0.12300,-0.01800,0.54700,0.45500,-1.30100,79.15000,-0.40000
041225_04.46.55.989,-0.02500,-0.00300,1.00000,0.10500,-0.12300,-0.03500,0.54700,0.45500,-1.30100,79.24000,0.09000
041225_04.46.56.000,-0.02500,-0.00300,1.00400,0.10500,-0.12300,-0.03500,0.54500,0.45600,-1.31100,79.54000,0.30000
041225_04.46.56.012,-0.02400,-0.00200,1.00200,0.12300,-0.14000,-0.01800,0.54400,0.45200,-1.30200,78.92000,-0.62000
041225_04.46.56.023,-0.02600,-0.00400,1.00300,0.10500,-0.12300,-0.01800,0.55000,0.45100,-1.30000,78.72000,-0.20000
041225_04.46.56.035,-0.02500,-0.00300,1.00000,0.08700,-0.14000,-0.01800,0.55000,0.45600,-1.31500,79.44000,0.72000
041225_04.46.56.046,-0.02500,-0.00200,1.00200,0.08700,-0.15700,0.00000,0.55000,0.45600,-1.31500,78.91000,-0.53000
041225_04.46.56.058,-0.02500,-0.00300,1.00400,0.10500,-0.14000,-0.01800,0.55300,0.45500,-1.30400,78.73000,-0.18000
041225_04.46.56.069,-0.02400,-0.00300,0.99900,0.10500,-0.14000,-0.03500,0.56100,0.45800,-1.30200,79.68000,0.95000
041225_04.46.56.080,-0.02400,-0.00300,1.00400,0.10500,-0.14000,-0.01800,0.56000,0.45500,-1.30400,79.43000,-0.25000
041225_04.46.56.092,-0.02500,-0.00300,1.00200,0.08700,-0.14000,-0.01800,0.56000,0.45500,-1.31200,79.05000,-0.38000
041225_04.46.56.103,-0.02600,-0.00300,1.00100,0.08700,-0.14000,-0.01800,0.56400,0.45100,-1.31200,79.29000,0.24000
041225_04.46.56.115,-0.02400,-0.00400,1.00300,0.08700,-0.14000,-0.01800,0.56500,0.45600,-1.31200,78.88000,-0.41000
041225_04.46.56.126,-0.02500,-0.00100,1.00000,0.10500,-0.14000,-0.01800,0.56300,0.45000,-1.30500,78.60000,-0.28000
041225_04.46.56.138,-0.02500,-0.00300,1.00300,0.12300,-0.10500,-0.01800,0.56100,0.45400,-1.30200,78.98000,0.38000
041225_04.46.56.149,-0.02500,-0.00400,1.00300,0.10500,-0.12300,-0.01800,0.56100,0.45400,-1.30200,79.67000,0.69000
041225_04.46.56.160,-0.02500,-0.00300,1.00100,0.12300,-0.14000,-0.01800,0.56600,0.45700,-1.30600,79.17000,-0.50000
041225_04.46.56.172,-0.02500,-0.00400,1.00300,0.10500,-0.12300,-0.03500,0.56000,0.45400,-1.30100,78.99000,-0.18000
041225_04.46.56.183,-0.02600,-0.00300,1.00300,0.10500,-0.14000,-0.01800,0.55900,0.45700,-1.30300,79.43000,0.44000
041225_04.46.56.195,-0.02500,-0.00400,1.00200,0.10500,-0.15700,0.00000,0.55500,0.46000,-1.30000,79.28000,-0.15000
041225_04.46.56.206,-0.02500,-0.00300,0.99900,0.08700,-0.12300,-0.01800,0.55500,0.46000,-1.30000,79.69000,0.41000
041225_04.46.56.218,-0.02600,-0.00300,1.00400,0.10500,-0.14000,-0.01800,0.55800,0.45800,-1.30400,78.93000,-0.76000
041225_04.46.56.229,-0.02400,-0.00400,1.00000,0.08700,-0.12300,-0.03500,0.55400,0.45800,-1.31000,79.58000,0.65000
041225_04.46.56.241,-0.02500,-0.00200,1.00300,0.10500,-0.14000,-0.03500,0.55000,0.45500,-1.30700,79.04000,-0.54000
041225_04.46.56.252,-0.02400,-0.00300,1.00500,0.08700,-0.12300,-0.03500,0.55000,0.45500,-1.30700,79.15000,0.11000
041225_04.46.56.263,-0.02500,-0.00200,1.00100,0.10500,-0.14000,-0.03500,0.54900,0.45700,-1.30400,79.07000,-0.08000
041225_04.46.56.275,-0.02600,-0.00300,1.00100,0.10500,-0.10500,-0.03500,0.54700,0.45300,-1.30900,79.06000,-0.01000
041225_04.46.56.286,-0.02400,-0.00300,1.00200,0.12300,-0.12300,-0.01800,0.54600,0.45400,-1.30100,79.29000,0.23000
041225_04.46.56.298,-0.02400,-0.00100,1.00000,0.10500,-0.12300,-0.01800,0.55100,0.45200,-1.30600,78.84000,-0.45000
041225_04.46.56.309,-0.02500,-0.00300,1.00300,0.10500,-0.14000,-0.01800,0.55100,0.45200,-1.30600,79.03000,0.19000
041225_04.46.56.321,-0.02500,-0.00200,1.00100,0.08700,-0.12300,-0.01800,0.55300,0.45600,-1.30500,78.58000,-0.45000
041225_04.46.56.332,-0.02500,-0.00300,1.00400,0.08700,-0.12300,-0.01800,0.55600,0.45800,-1.30700,79.32000,0.74000
041225_04.46.56.344,-0.02500,-0.00200,1.00100,0.08700,-0.12300,-0.03500,0.56200,0.45500,-1.30800,78.57000,-0.75000
041225_04.46.56.355,-0.02500,-0.00300,1.00300,0.10500,-0.12300,0.00000,0.55900,0.45400,-1.31000,79.25000,0.68000
041225_04.46.56.367,-0.02400,-0.00200,1.00100,0.10500,-0.14000,-0.01800,0.55900,0.45400,-1.31000,78.53000,-0.72000
041225_04.46.56.378,-0.02500,-0.00200,1.00200,0.12300,-0.12300,-0.01800,0.56000,0.45500,-1.31700,79.61000,1.08000
041225_04.46.56.390,-0.02400,-0.00400,1.00300,0.10500,-0.14000,-0.01800,0.56100,0.45700,-1.31200,79.62000,0.01000
041225_04.46.56.401,-0.02500,-0.00200,1.00100,0.10500,-0.14000,-0.01800,0.56300,0.45700,-1.31200,78.88000,-0.74000
041225_04.46.56.413,-0.02500,-0.00400,1.00300,0.10500,-0.12300,0.00000,0.56300,0.45700,-1.31200,78.70000,-0.18000
041225_04.46.56.424,-0.02500,-0.00200,1.00200,0.08700,-0.12300,-0.03500,0.56700,0.44900,-1.31500,79.13000,0.43000
041225_04.46.56.436,-0.02500,-0.00200,1.00000,0.08700,-0.10500,-0.01800,0.55900,0.45700,-1.31100,79.37000,0.24000
041225_04.46.56.447,-0.02500,-0.00400,1.00400,0.08700,-0.10500,-0.01800,0.56000,0.45900,-1.30600,79.41000,0.04000
041225_04.46.56.459,-0.02500,-0.00100,1.00000,0.05300,-0.12300,0.00000,0.56200,0.46200,-1.31000,78.56000,-0.85000
041225_04.46.56.470,-0.02500,-0.00300,1.00400,0.07000,-0.14000,-0.01800,0.56200,0.46200,-1.31000,79.30000,0.74000
041225_04.46.56.482,-0.02500,-0.00200,1.00100,0.07000,-0.12300,-0.03500,0.55800,0.46200,-1.30900,79.34000,0.04000
041225_04.46.56.493,-0.02600,-0.00300,0.99900,0.08700,-0.14000,-0.01800,0.55600,0.46000,-1.31000,78.70000,-0.64000
041225_04.46.56.505,-0.02500,-0.00300,1.00000,0.08700,-0.14000,-0.03500,0.55300,0.46200,-1.30400,79.48000,0.78000
041225_04.46.56.516,-0.02500,-0.00200,1.00200,0.08700,-0.12300,-0.01800,0.54900,0.46200,-1.31000,79.52000,0.04000
041225_04.46.56.527,-0.02500,-0.00300,1.00200,0.08700,-0.12300,-0.03500,0.54900,0.46200,-1.31000,78.95000,-0.57000
041225_04.46.56.539,-0.02600,-0.00300,1.00000,0.07000,-0.10500,-0.03500,0.55100,0.46400,-1.30400,80.04000,1.09000
041225_04.46.56.550,-0.02700,-0.00400,1.00200,0.07000,-0.10500,-0.03500,0.54900,0.46200,-1.30600,79.25000,-0.79000
041225_04.46.56.562,-0.02400,-0.00300,1.00200,0.07000,-0.12300,-0.01800,0.54700,0.46300,-1.30600,78.68000,-0.57000
041225_04.46.56.573,-0.02400,-0.00300,1.00100,0.08700,-0.12300,-0.03500,0.54700,0.46300,-1.30600,79.06000,0.38000
041225_04.46.56.585,-0.02500,-0.00300,1.00400,0.07000,-0.12300,-0.03500,0.55000,0.46000,-1.30700,79.16000,0.10000
041225_04.46.56.596,-0.02500,-0.00200,1.00100,0.07000,-0.12300,-0.03500,0.55300,0.46100,-1.30700,78.96000,-0.20000
041225_04.46.56.608,-0.02600,-0.00400,1.00300,0.10500,-0.14000,-0.01800,0.55400,0.46700,-1.31000,78.92000,-0.04000
041225_04.46.56.619,-0.02300,-0.00300,1.00200,0.12300,-0.14000,-0.03500,0.55400,0.46400,-1.31300,79.49000,0.57000
041225_04.46.56.631,-0.02100,-0.00200,1.00000,0.10500,-0.14000,-0.01800,0.55400,0.46400,-1.31300,79.07000,-0.42000
041225_04.46.56.642,-0.02500,-0.00400,1.00500,0.12300,-0.14000,-0.03500,0.55200,0.46300,-1.30800,79.30000,0.23000
041225_04.46.56.654,-0.02400,-0.00400,1.00000,0.07000,-0.12300,-0.03500,0.56300,0.46500,-1.31000,78.93000,-0.37000
041225_04.46.56.665,-0.02500,-0.00400,1.00200,0.10500,-0.12300,-0.03500,0.56300,0.45900,-1.31200,78.92000,-0.01000
041225_04.46.56.676,-0.02300,-0.00300,1.00100,0.10500,-0.08700,-0.01800,0.56500,0.46000,-1.31000,78.93000,0.01000
041225_04.46.56.688,-0.02600,-0.00200,1.00300,0.07000,-0.08700,-0.01800,0.56500,0.46000,-1.31000,79.71000,0.78000
041225_04.46.56.699,-0.02400,-0.00300,1.00100,0.07000,-0.14000,-0.03500,0.56300,0.46200,-1.30500,79.77000,0.06000
041225_04.46.56.711,-0.02400,-0.00200,1.00200,0.08700,-0.12300,-0.01800,0.56900,0.46100,-1.30700,78.44000,-1.33000
041225_04.46.56.722,-0.02600,-0.00200,1.00300,0.08700,-0.10500,-0.01800,0.56200,0.46300,-1.30700,79.58000,1.14000
041225_04.46.56.734,-0.02400,-0.00200,1.00000,0.08700,-0.10500,0.00000,0.56200,0.46300,-1.30700,79.29000,-0.29000
041225_04.46.56.745,-0.02600,-0.00400,1.00300,0.08700,-0.12300,-0.01800,0.56500,0.46200,-1.30600,78.61000,-0.68000
041225_04.46.56.756,-0.02400,-0.00300,1.00200,0.07000,-0.12300,-0.01800,0.56200,0.46200,-1.30100,79.19000,0.58000
041225_04.46.56.768,-0.02400,-0.00200,1.00000,0.08700,-0.14000,-0.01800,0.55400,0.46200,-1.30000,79.78000,0.59000
041225_04.46.56.779,-0.02700,-0.00200,1.00400,0.07000,-0.12300,-0.01800,0.55600,0.45900,-1.29800,79.06000,-0.72000
041225_04.46.56.791,-0.02600,-0.00300,1.00100,0.10500,-0.12300,-0.01800,0.55600,0.45900,-1.29800,78.25000,-0.81000
041225_04.46.56.802,-0.02500,-0.00300,1.00200,0.08700,-0.12300,-0.01800,0.55800,0.45800,-1.29800,79.08000,0.83000
041225_04.46.56.814,-0.02500,-0.00200,0.99900,0.08700,-0.12300,-0.01800,0.55200,0.45900,-1.29100,79.34000,0.26000
041225_04.46.56.825,-0.02600,-0.00300,1.00400,0.08700,-0.12300,-0.01800,0.55000,0.46000,-1.29700,78.99000,-0.35000
041225_04.46.56.837,-0.02500,-0.00300,1.00200,0.07000,-0.12300,-0.03500,0.55200,0.45800,-1.30600,79.32000,0.33000
041225_04.46.56.848,-0.02400,0.00000,1.00100,0.07000,-0.14000,-0.03500,0.55200,0.45800,-1.30600,78.67000,-0.65000
041225_04.46.56.860,-0.02500,-0.00300,1.00400,0.07000,-0.14000,-0.01800,0.54900,0.46400,-1.29900,79.49000,0.82000
041225_04.46.56.871,-0.02500,-0.00200,1.00000,0.08700,-0.12300,-0.01800,0.54900,0.46300,-1.30100,79.29000,-0.20000
041225_04.46.56.883,-0.02600,-0.00400,1.00300,0.07000,-0.10500,-0.03500,0.55700,0.46100,-1.30400,79.58000,0.29000
041225_04.46.56.894,-0.02300,-0.00200,1.00300,0.08700,-0.14000,-0.03500,0.55700,0.46100,-1.30400,79.41000,-0.17000
041225_04.46.56.906,-0.02400,-0.00300,0.99900,0.07000,-0.14000,-0.01800,0.56200,0.46300,-1.30200,78.88000,-0.53000
041225_04.46.56.917,-0.02500,-0.00300,1.00500,0.07000,-0.10500,-0.03500,0.56600,0.45800,-1.30200,78.45000,-0.43000
041225_04.46.56.929,-0.02400,-0.00300,1.00100,0.07000,-0.12300,-0.03500,0.56400,0.46200,-1.30300,78.87000,0.42000
041225_04.46.56.940,-0.02500,-0.00100,1.00300,0.07000,-0.12300,-0.01800,0.56200,0.45800,-1.30600,78.78000,-0.09000
041225_04.46.56.952,-0.02400,-0.00300,1.00300,0.08700,-0.12300,-0.03500,0.56200,0.45800,-1.30600,78.60000,-0.18000
041225_04.46.56.963,-0.02300,-0.00300,0.99900,0.08700,-0.12300,-0.01800,0.56700,0.46100,-1.30500,79.22000,0.62000
041225_04.46.56.975,-0.02500,-0.00300,1.00000,0.07000,-0.10500,-0.03500,0.56700,0.46100,-1.30400,79.37000,0.15000
041225_04.46.56.986,-0.02600,-0.00100,1.00200,0.08700,-0.12300,-0.01800,0.57000,0.46200,-1.30600,79.15000,-0.22000
041225_04.46.56.998,-0.02400,-0.00400,1.00400,0.07000,-0.12300,-0.03500,0.56400,0.46100,-1.30700,78.67000,-0.48000
041225_04.46.57.009,-0.02500,-0.00200,1.00000,0.05300,-0.12300,-0.01800,0.56400,0.46100,-1.30700,79.33000,0.66000
041225_04.46.57.021,-0.02600,-0.00200,1.00300,0.10500,-0.12300,-0.03500,0.56400,0.46200,-1.30100,79.05000,-0.28000
041225_04.46.57.032,-0.02500,-0.00200,1.00200,0.10500,-0.14000,0.00000,0.56600,0.46100,-1.30400,78.51000,-0.54000
041225_04.46.57.044,-0.02600,-0.00200,0.99800,0.08700,-0.14000,-0.03500,0.55700,0.46200,-1.30400,79.52000,1.01000
041225_04.46.57.055,-0.02600,-0.00400,1.00500,0.08700,-0.10500,-0.01800,0.55700,0.46200,-1.30400,78.76000,-0.76000
041225_04.46.57.066,-0.02500,-0.00400,0.99900,0.05300,-0.10500,-0.03500,0.55300,0.45900,-1.30600,79.71000,0.95000
041225_04.46.57.078,-0.02600,-0.00400,1.00300,0.08700,-0.10500,-0.01800,0.55400,0.46000,-1.30400,79.55000,-0.16000
041225_04.46.57.089,-0.02700,-0.00400,1.00300,0.08700,-0.10500,-0.03500,0.55500,0.46200,-1.30500,78.73000,-0.82000
041225_04.46.57.101,-0.02600,-0.00200,0.99900,0.10500,-0.10500,-0.03500,0.54900,0.45600,-1.31000,78.84000,0.11000
041225_04.46.57.112,-0.02600,-0.00300,1.00500,0.08700,-0.12300,-0.03500,0.54900,0.45600,-1.31000,79.11000,0.27000
041225_04.46.57.124,-0.02500,-0.00300,1.00000,0.08700,-0.10500,-0.03500,0.54900,0.46100,-1.30500,79.16000,0.05000
041225_04.46.57.135,-0.02400,-0.00300,1.00400,0.10500,-0.10500,-0.01800,0.54700,0.46300,-1.30800,79.05000,-0.11000
041225_04.46.57.146,-0.02400,-0.00200,0.99900,0.10500,-0.10500,-0.03500,0.55200,0.46600,-1.30200,79.35000,0.30000
041225_04.46.57.158,-0.02600,-0.00300,1.00400,0.10500,-0.12300,-0.01800,0.55200,0.46300,-1.30700,79.88000,0.53000
041225_04.46.57.169,-0.02500,-0.00300,1.00200,0.10500,-0.12300,-0.03500,0.55200,0.46300,-1.30700,78.04000,-1.84000
041225_04.46.57.181,-0.02500,-0.00200,0.99900,0.10500,-0.12300,-0.01800,0.56000,0.46500,-1.31100,79.05000,1.01000
041225_04.46.57.192,-0.02300,-0.00400,1.00400,0.10500,-0.12300,-0.01800,0.55500,0.46400,-1.30800,79.14000,0.09000
041225_04.46.57.204,-0.02500,-0.00100,1.00100,0.10500,-0.12300,-0.03500,0.56100,0.46300,-1.30800,79.00000,-0.14000
041225_04.46.57.215,-0.02500,-0.00300,1.00300,0.08700,-0.12300,-0.03500,0.56100,0.46300,-1.30800,79.14000,0.14000
041225_04.46.57.227,-0.02300,-0.00100,1.00100,0.07000,-0.14000,-0.01800,0.56700,0.45800,-1.30700,78.66000,-0.48000
041225_04.46.57.238,-0.02400,-0.00500,1.00100,0.07000,-0.12300,-0.01800,0.56400,0.46200,-1.31200,79.29000,0.63000
041225_04.46.57.249,-0.02500,-0.00200,1.00400,0.08700,-0.10500,-0.01800,0.56400,0.46000,-1.30600,79.37000,0.08000
041225_04.46.57.261,-0.02400,-0.00300,1.00000,0.07000,-0.14000,-0.03500,0.56200,0.46300,-1.30600,78.45000,-0.92000
041225_04.46.57.272,-0.02400,-0.00200,1.00100,0.07000,-0.14000,-0.01800,0.56200,0.46300,-1.30600,79.60000,1.15000
041225_04.46.57.284,-0.02400,-0.00300,1.00400,0.08700,-0.12300,0.00000,0.56300,0.46000,-1.30700,79.50000,-0.10000
041225_04.46.57.295,-0.02300,-0.00400,1.00300,0.08700,-0.10500,-0.03500,0.56100,0.45800,-1.30100,79.25000,-0.25000
041225_04.46.57.307,-0.02400,-0.00300,1.00200,0.08700,-0.10500,-0.01800,0.56200,0.46400,-1.30300,79.48000,0.23000
041225_04.46.57.318,-0.02600,-0.00200,1.00000,0.10500,-0.12300,-0.01800,0.55300,0.46200,-1.30200,78.65000,-0.83000
041225_04.46.57.329,-0.02600,-0.00300,1.00500,0.10500,-0.12300,-0.03500,0.55300,0.46200,-1.30200,78.66000,0.01000
041225_04.46.57.341,-0.02400,-0.00200,1.00100,0.10500,-0.12300,-0.03500,0.56300,0.45900,-1.30400,79.51000,0.85000
041225_04.46.57.352,-0.02600,-0.00300,1.00300,0.08700,-0.12300,-0.03500,0.55800,0.46000,-1.30500,79.12000,-0.39000
041225_04.46.57.364,-0.02700,-0.00300,1.00200,0.08700,-0.12300,-0.03500,0.55200,0.45900,-1.31500,78.81000,-0.31000
041225_04.46.57.375,-0.02600,-0.00300,1.00100,0.08700,-0.12300,0.00000,0.55200,0.45900,-1.31500,79.07000,0.26000
041225_04.46.57.387,-0.02600,-0.00200,1.00400,0.08700,-0.12300,-0.01800,0.54700,0.45900,-1.30900,78.99000,-0.08000
041225_04.46.57.398,-0.02400,-0.00400,1.00000,0.08700,-0.12300,-0.03500,0.54700,0.45800,-1.31100,79.10000,0.11000
041225_04.46.57.410,-0.02600,-0.00400,1.00200,0.07000,-0.10500,-0.03500,0.55200,0.45800,-1.31100,79.40000,0.30000
041225_04.46.57.421,-0.02500,-0.00500,1.00400,0.08700,-0.10500,-0.01800,0.54800,0.46000,-1.31000,79.12000,-0.28000
041225_04.46.57.433,-0.02500,-0.00100,1.00100,0.10500,-0.10500,-0.03500,0.54800,0.46000,-1.31000,78.95000,-0.17000
041225_04.46.57.444,-0.02600,-0.00400,1.00300,0.08700,-0.10500,-0.03500,0.55100,0.46100,-1.30700,78.42000,-0.53000
041225_04.46.57.456,-0.02500,-0.00100,1.00100,0.08700,-0.12300,-0.03500,0.55400,0.46100,-1.30700,78.73000,0.31000
041225_04.46.57.467,-0.02500,-0.00300,1.00500,0.10500,-0.12300,-0.03500,0.56100,0.45800,-1.31100,78.75000,0.02000
041225_04.46.57.479,-0.02400,-0.00200,1.00100,0.08700,-0.14000,-0.03500,0.56900,0.46100,-1.30900,79.13000,0.38000
041225_04.46.57.490,-0.02500,-0.00300,1.00300,0.08700,-0.12300,-0.01800,0.56900,0.46100,-1.30900,78.94000,-0.19000
041225_04.46.57.501,-0.02300,-0.00300,1.00200,0.07000,-0.12300,-0.03500,0.56100,0.46000,-1.30600,79.25000,0.31000
041225_04.46.57.513,-0.02500,-0.00200,1.00000,0.08700,-0.12300,-0.05300,0.56500,0.45900,-1.30900,79.34000,0.09000
041225_04.46.57.524,-0.02600,-0.00300,1.00400,0.08700,-0.14000,-0.03500,0.56000,0.45500,-1.31300,79.08000,-0.26000
041225_04.46.57.536,-0.02400,-0.00300,1.00100,0.08700,-0.17500,-0.01800,0.56000,0.45500,-1.31300,79.21000,0.13000
041225_04.46.57.547,-0.02400,-0.00300,1.00100,0.07000,-0.14000,-0.01800,0.56600,0.45600,-1.31000,79.59000,0.38000
041225_04.46.57.559,-0.02500,-0.00300,1.00500,0.08700,-0.12300,-0.01800,0.56700,0.45700,-1.30800,79.59000,0.00000
041225_04.46.57.570,-0.02300,-0.00300,1.00100,0.08700,-0.12300,-0.01800,0.56100,0.45900,-1.30500,79.95000,0.36000
041225_04.46.57.582,-0.02600,-0.00300,1.00300,0.10500,-0.12300,-0.01800,0.56100,0.45700,-1.30500,79.20000,-0.75000
041225_04.46.57.593,-0.02500,-0.00400,1.00100,0.10500,-0.12300,-0.01800,0.56100,0.45700,-1.30500,78.63000,-0.57000
041225_04.46.57.604,-0.02400,-0.00300,1.00200,0.10500,-0.12300,0.00000,0.55700,0.45600,-1.30000,78.81000,0.18000
041225_04.46.57.616,-0.02500,-0.00200,1.00100,0.08700,-0.14000,-0.03500,0.55800,0.45800,-1.30300,78.98000,0.17000
041225_04.46.57.627,-0.02500,-0.00300,1.00200,0.07000,-0.10500,-0.03500,0.55300,0.45800,-1.30700,79.35000,0.37000
041225_04.46.57.639,-0.02600,-0.00300,1.00300,0.08700,-0.14000,-0.03500,0.54800,0.45500,-1.30300,79.13000,-0.22000
041225_04.46.57.650,-0.02500,-0.00300,1.00200,0.10500,-0.12300,-0.03500,0.54800,0.45500,-1.30300,79.45000,0.32000
041225_04.46.57.662,-0.02600,-0.00200,1.00400,0.08700,-0.12300,-0.03500,0.54500,0.45600,-1.30300,78.70000,-0.75000
041225_04.46.57.673,-0.02400,-0.00300,1.00100,0.08700,-0.12300,0.00000,0.54800,0.45600,-1.30900,79.02000,0.32000
041225_04.46.57.685,-0.02600,-0.00200,1.00200,0.10500,-0.12300,-0.01800,0.54300,0.46000,-1.30400,78.93000,-0.09000
041225_04.46.57.696,-0.02700,-0.00300,1.00400,0.12300,-0.12300,-0.01800,0.54300,0.46000,-1.30400,79.44000,0.51000
041225_04.46.57.707,-0.02500,-0.00200,1.00200,0.10500,-0.14000,-0.01800,0.54700,0.45500,-1.30400,79.17000,-0.27000
041225_04.46.57.719,-0.02700,-0.00300,1.00400,0.12300,-0.14000,0.00000,0.55300,0.46000,-1.31000,79.39000,0.22000
041225_04.46.57.730,-0.02400,-0.00500,1.00300,0.10500,-0.12300,-0.01800,0.55200,0.45900,-1.30800,79.30000,-0.09000
041225_04.46.57.742,-0.02500,-0.00200,1.00200,0.12300,-0.12300,-0.03500,0.55800,0.45700,-1.30600,78.98000,-0.32000
041225_04.46.57.753,-0.02400,-0.00300,1.00500,0.12300,-0.12300,-0.03500,0.55800,0.45700,-1.30600,79.38000,0.40000
041225_04.46.57.765,-0.02400,-0.00300,1.00000,0.08700,-0.14000,-0.03500,0.56000,0.46200,-1.30600,79.53000,0.15000
041225_04.46.57.776,-0.02400,-0.00300,1.00300,0.08700,-0.14000,-0.01800,0.56200,0.46100,-1.31000,78.84000,-0.69000
041225_04.46.57.787,-0.02400,-0.00200,1.00100,0.08700,-0.14000,-0.01800,0.56800,0.46200,-1.31300,79.26000,0.42000
041225_04.46.57.799,-0.02500,-0.00300,1.00300,0.10500,-0.15700,-0.03500,0.56900,0.46300,-1.31400,79.33000,0.07000
041225_04.46.57.810,-0.02500,-0.00200,1.00100,0.07000,-0.15700,-0.05300,0.56900,0.46300,-1.31400,79.20000,-0.13000
041225_04.46.57.822,-0.02500,-0.00200,1.00200,0.08700,-0.14000,-0.01800,0.56600,0.46000,-1.31400,79.45000,0.25000
041225_04.46.57.833,-0.02500,-0.00300,1.00200,0.10500,-0.14000,-0.03500,0.56400,0.46000,-1.31000,79.18000,-0.27000
041225_04.46.57.845,-0.02400,-0.00100,1.00100,0.08700,-0.14000,-0.01800,0.56500,0.46000,-1.30800,78.57000,-0.61000
041225_04.46.57.856,-0.02600,-0.00300,1.00300,0.07000,-0.07000,-0.01800,0.56500,0.46000,-1.30800,79.29000,0.72000
041225_04.46.57.867,-0.02300,-0.00300,1.00100,0.05300,-0.12300,-0.01800,0.56300,0.46200,-1.30600,78.61000,-0.68000
041225_04.46.57.879,-0.02400,-0.00300,1.00100,0.08700,-0.10500,-0.03500,0.55700,0.46300,-1.31100,79.42000,0.81000
041225_04.46.57.890,-0.02600,-0.00300,1.00500,0.10500,-0.12300,-0.01800,0.55800,0.46200,-1.30300,78.71000,-0.71000
041225_04.46.57.902,-0.02500,-0.00200,1.00000,0.08700,-0.10500,0.00000,0.55600,0.46200,-1.30400,79.12000,0.41000
041225_04.46.57.913,-0.02500,-0.00500,1.00300,0.08700,-0.14000,0.00000,0.55600,0.46200,-1.30400,78.85000,-0.27000
041225_04.46.57.925,-0.02500,-0.00200,1.00400,0.10500,-0.14000,-0.03500,0.55600,0.45800,-1.30400,78.83000,-0.02000
041225_04.46.57.936,-0.02500,-0.00200,1.00600,0.10500,-0.12300,-0.03500,0.54500,0.46500,-1.30500,79.10000,0.27000
041225_04.46.57.947,-0.02500,-0.00200,1.00100,0.10500,-0.12300,-0.01800,0.55000,0.46300,-1.30600,78.82000,-0.28000
041225_04.46.57.959,-0.02500,-0.00400,1.00300,0.08700,-0.12300,-0.01800,0.54400,0.46100,-1.30200,78.17000,-0.65000
041225_04.46.57.970,-0.02700,-0.00300,1.00400,0.08700,-0.14000,0.00000,0.54400,0.46100,-1.30200,78.64000,0.47000
041225_04.46.57.982,-0.02600,-0.00200,1.00100,0.08700,-0.14000,-0.01800,0.54800,0.45800,-1.30800,79.18000,0.54000
041225_04.46.57.993,-0.02600,-0.00400,1.00300,0.10500,-0.14000,-0.01800,0.55100,0.45900,-1.31500,79.23000,0.05000
041225_04.46.58.005,-0.02600,-0.00400,1.00100,0.12300,-0.14000,-0.01800,0.55500,0.46200,-1.30600,79.04000,-0.19000
041225_04.46.58.016,-0.02500,-0.00200,1.00100,0.08700,-0.14000,0.00000,0.55500,0.46200,-1.30600,79.34000,0.30000
041225_04.46.58.027,-0.02500,-0.00400,1.00400,0.10500,-0.14000,-0.01800,0.55100,0.46400,-1.30500,79.20000,-0.14000
041225_04.46.58.039,-0.02300,-0.00300,1.00000,0.10500,-0.12300,-0.01800,0.56000,0.45900,-1.31100,79.48000,0.28000
041225_04.46.58.050,-0.02700,-0.00400,1.00400,0.12300,-0.15700,-0.03500,0.55900,0.46300,-1.30800,78.87000,-0.61000
041225_04.46.58.062,-0.02500,-0.00300,1.00200,0.10500,-0.15700,-0.01800,0.56300,0.46000,-1.31000,78.71000,-0.16000
041225_04.46.58.073,-0.02500,-0.00100,0.99900,0.10500,-0.12300,-0.03500,0.56300,0.46000,-1.31000,78.87000,0.16000
041225_04.46.58.085,-0.02500,-0.00400,1.00300,0.10500,-0.14000,-0.05300,0.56200,0.46300,-1.31200,79.33000,0.46000
041225_04.46.58.096,-0.02600,-0.00200,1.00300,0.10500,-0.10500,-0.05300,0.56200,0.46700,-1.30700,79.41000,0.08000
041225_04.46.58.107,-0.02500,-0.00200,1.00300,0.10500,-0.14000,-0.01800,0.55700,0.46100,-1.31100,79.15000,-0.26000
041225_04.46.58.119,-0.02400,-0.00200,1.00100,0.10500,-0.10500,-0.01800,0.55900,0.46100,-1.31000,79.31000,0.16000
041225_04.46.58.130,-0.02500,-0.00100,1.00500,0.10500,-0.14000,-0.01800,0.55900,0.46100,-1.31000,79.85000,0.54000
041225_04.46.58.142,-0.02600,-0.00400,1.00200,0.12300,-0.14000,-0.01800,0.55900,0.46600,-1.29900,79.36000,-0.49000
041225_04.46.58.153,-0.02500,-0.00100,1.00300,0.10500,-0.12300,-0.01800,0.55500,0.46100,-1.30500,79.30000,-0.06000
041225_04.46.58.165,-0.02600,-0.00300,1.00400,0.08700,-0.12300,-0.05300,0.55600,0.46300,-1.30400,78.61000,-0.69000
041225_04.46.58.176,-0.02400,-0.00100,1.00200,0.10500,-0.12300,-0.03500,0.55600,0.46300,-1.30400,78.71000,0.10000
041225_04.46.58.188,-0.02600,-0.00300,1.00400,0.10500,-0.12300,-0.01800,0.54500,0.46200,-1.30100,79.24000,0.53000
041225_04.46.58.199,-0.02400,-0.00200,1.00200,0.10500,-0.12300,-0.01800,0.54800,0.45800,-1.29900,78.42000,-0.82000
041225_04.46.58.210,-0.02600,-0.00100,1.00000,0.08700,-0.14000,-0.01800,0.54900,0.46200,-1.30000,78.14000,-0.28000
041225_04.46.58.222,-0.02700,-0.00300,1.00300,0.08700,-0.14000,-0.03500,0.54600,0.46000,-1.30200,79.07000,0.93000
041225_04.46.58.233,-0.02600,-0.00400,1.00100,0.10500,-0.12300,-0.03500,0.54600,0.46000,-1.30200,78.92000,-0.15000
041225_04.46.58.245,-0.02600,-0.00300,1.00400,0.07000,-0.14000,-0.01800,0.55100,0.46000,-1.31300,78.74000,-0.18000
041225_04.46.58.256,-0.02400,-0.00300,1.00100,0.08700,-0.12300,-0.03500,0.54400,0.45800,-1.31500,79.47000,0.73000
041225_04.46.58.268,-0.02500,-0.00400,1.00300,0.08700,-0.14000,-0.03500,0.54900,0.45600,-1.30600,78.94000,-0.53000
041225_04.46.58.279,-0.02300,-0.00300,1.00000,0.07000,-0.14000,-0.05300,0.55900,0.46100,-1.30700,79.19000,0.25000
041225_04.46.58.291,-0.02500,-0.00200,1.00300,0.08700,-0.10500,-0.01800,0.55900,0.46100,-1.30700,78.93000,-0.26000
041225_04.46.58.302,-0.02400,-0.00400,1.00400,0.08700,-0.10500,-0.03500,0.55600,0.45800,-1.30400,79.10000,0.17000
041225_04.46.58.314,-0.02400,-0.00200,1.00000,0.08700,-0.12300,-0.03500,0.55900,0.46200,-1.30800,78.89000,-0.21000
041225_04.46.58.325,-0.02600,-0.00400,1.00400,0.08700,-0.12300,0.00000,0.56300,0.46200,-1.30400,79.09000,0.20000
041225_04.46.58.336,-0.02500,-0.00300,1.00300,0.08700,-0.14000,-0.01800,0.56300,0.46200,-1.30400,78.71000,-0.38000
041225_04.46.58.348,-0.02500,-0.00300,1.00100,0.08700,-0.10500,-0.05300,0.56400,0.46400,-1.30800,79.20000,0.49000
041225_04.46.58.359,-0.02600,-0.00300,1.00300,0.08700,-0.10500,-0.05300,0.56400,0.46100,-1.30900,79.14000,-0.06000
041225_04.46.58.371,-0.02500,-0.00400,0.99900,0.07000,-0.12300,-0.05300,0.56600,0.46000,-1.30800,78.89000,-0.25000
041225_04.46.58.382,-0.02500,-0.00400,1.00200,0.10500,-0.12300,-0.01800,0.56100,0.46100,-1.30900,79.84000,0.95000
041225_04.46.58.393,-0.02500,-0.00300,1.00300,0.14000,-0.14000,-0.01800,0.56100,0.46100,-1.30900,78.36000,-1.48000
041225_04.46.58.405,-0.02500,-0.00300,1.00400,0.12300,-0.14000,-0.01800,0.56100,0.46000,-1.30900,78.98000,0.62000
041225_04.46.58.417,-0.02400,-0.00400,1.00100,0.10500,-0.14000,-0.01800,0.55600,0.45800,-1.31100,78.79000,-0.19000
041225_04.46.58.428,-0.02500,-0.00400,1.00300,0.10500,-0.12300,-0.01800,0.56200,0.45800,-1.30900,79.37000,0.58000
041225_04.46.58.440,-0.02600,-0.00300,1.00300,0.10500,-0.14000,-0.01800,0.55300,0.45900,-1.30600,79.05000,-0.32000
041225_04.46.58.451,-0.02400,-0.00200,1.00100,0.10500,-0.14000,-0.03500,0.55300,0.45900,-1.30600,79.27000,0.22000
041225_04.46.58.463,-0.02500,-0.00400,1.00400,0.10500,-0.12300,0.00000,0.55500,0.46300,-1.30800,79.38000,0.11000
041225_04.46.58.474,-0.02500,-0.00400,1.00200,0.08700,-0.12300,-0.01800,0.55600,0.46100,-1.30100,78.51000,-0.87000
041225_04.46.58.485,-0.02400,-0.00300,1.00100,0.10500,-0.12300,-0.01800,0.55300,0.45800,-1.31100,79.37000,0.86000
041225_04.46.58.497,-0.02700,-0.00300,1.00400,0.10500,-0.12300,-0.01800,0.55300,0.45800,-1.31100,78.79000,-0.58000
041225_04.46.58.508,-0.02500,-0.00300,1.00000,0.10500,-0.14000,0.00000,0.54800,0.46400,-1.30300,79.01000,0.22000
041225_04.46.58.520,-0.02500,-0.00300,1.00200,0.12300,-0.12300,-0.01800,0.54600,0.46700,-1.30700,78.97000,-0.04000
041225_04.46.58.531,-0.02500,-0.00300,1.00300,0.10500,-0.14000,-0.01800,0.54900,0.46200,-1.30200,79.18000,0.21000
041225_04.46.58.543,-0.02600,-0.00200,1.00200,0.10500,-0.14000,-0.03500,0.55000,0.46300,-1.30700,78.37000,-0.81000
041225_04.46.58.554,-0.02500,-0.00200,1.00400,0.08700,-0.14000,-0.03500,0.55000,0.46300,-1.30700,78.66000,0.29000
041225_04.46.58.566,-0.02400,-0.00300,1.00200,0.10500,-0.14000,-0.01800,0.55200,0.46500,-1.30700,78.88000,0.22000
041225_04.46.58.577,-0.02500,-0.00300,1.00400,0.07000,-0.12300,-0.01800,0.55500,0.46200,-1.30600,79.05000,0.17000
041225_04.46.58.589,-0.02400,-0.00200,0.99900,0.08700,-0.12300,-0.01800,0.55900,0.46400,-1.30600,79.40000,0.35000
041225_04.46.58.600,-0.02700,-0.00300,1.00500,0.08700,-0.12300,-0.01800,0.56000,0.46200,-1.31000,79.07000,-0.33000
041225_04.46.58.611,-0.02500,-0.00200,1.00300,0.08700,-0.12300,-0.01800,0.56000,0.46200,-1.31000,79.70000,0.63000
041225_04.46.58.623,-0.02600,-0.00100,1.00100,0.07000,-0.14000,-0.03500,0.56300,0.46100,-1.29900,79.33000,-0.37000
041225_04.46.58.634,-0.02500,-0.00300,1.00300,0.08700,-0.12300,-0.01800,0.56000,0.46500,-1.31100,78.91000,-0.42000
041225_04.46.58.646,-0.02500,-0.00300,1.00100,0.08700,-0.12300,-0.05300,0.56100,0.46000,-1.30800,78.89000,-0.02000
041225_04.46.58.657,-0.02500,-0.00300,1.00500,0.08700,-0.12300,-0.03500,0.56100,0.46000,-1.30800,79.08000,0.19000
041225_04.46.58.669,-0.02500,-0.00200,1.00200,0.10500,-0.10500,-0.01800,0.56300,0.46200,-1.31300,78.45000,-0.63000
041225_04.46.58.680,-0.02600,-0.00200,1.00000,0.08700,-0.14000,-0.03500,0.56200,0.45700,-1.31100,78.54000,0.09000
041225_04.46.58.692,-0.02600,-0.00400,1.00400,0.12300,-0.12300,0.00000,0.56000,0.46300,-1.31100,78.92000,0.38000
041225_04.46.58.703,-0.02500,-0.00300,1.00100,0.10500,-0.14000,-0.01800,0.55700,0.46300,-1.30100,79.57000,0.65000
041225_04.46.58.714,-0.02500,-0.00200,1.00200,0.10500,-0.14000,0.00000,0.55700,0.46300,-1.30100,78.86000,-0.71000
041225_04.46.58.726,-0.02500,-0.00300,1.00000,0.08700,-0.14000,-0.01800,0.56100,0.46400,-1.30500,78.99000,0.13000
041225_04.46.58.737,-0.02600,-0.00200,1.00300,0.10500,-0.10500,-0.01800,0.55900,0.46300,-1.30600,79.03000,0.04000
041225_04.46.58.749,-0.02500,-0.00300,1.00100,0.12300,-0.12300,-0.03500,0.55500,0.46500,-1.29800,78.55000,-0.48000
041225_04.46.58.760,-0.02500,-0.00100,1.00100,0.10500,-0.12300,-0.01800,0.55000,0.46600,-1.30000,78.91000,0.36000
041225_04.46.58.772,-0.02600,-0.00500,1.00400,0.08700,-0.14000,-0.01800,0.55000,0.46600,-1.30000,79.04000,0.13000
041225_04.46.58.783,-0.02400,-0.00300,1.00000,0.12300,-0.15700,-0.01800,0.55300,0.46400,-1.30100,78.67000,-0.37000
041225_04.46.58.795,-0.02600,-0.00400,1.00400,0.12300,-0.14000,-0.03500,0.54800,0.46700,-1.30500,78.91000,0.24000
041225_04.46.58.806,-0.02400,-0.00300,1.00200,0.12300,-0.12300,-0.03500,0.55200,0.46600,-1.31000,79.25000,0.34000
041225_04.46.58.818,-0.02500,-0.00300,1.00000,0.10500,-0.10500,-0.03500,0.55200,0.46600,-1.31000,79.02000,-0.23000
041225_04.46.58.829,-0.02600,-0.00300,1.00400,0.08700,-0.12300,-0.03500,0.54400,0.46100,-1.30400,78.43000,-0.59000
041225_04.46.58.840,-0.02400,-0.00400,1.00100,0.10500,-0.12300,-0.01800,0.54800,0.46200,-1.30900,78.86000,0.43000
041225_04.46.58.852,-0.02400,-0.00100,1.00400,0.10500,-0.12300,-0.01800,0.55600,0.46300,-1.30700,79.06000,0.20000
041225_04.46.58.863,-0.02500,-0.00300,1.00300,0.12300,-0.10500,-0.01800,0.56000,0.45900,-1.30600,77.97000,-1.09000
041225_04.46.58.875,-0.02400,-0.00200,1.00200,0.12300,-0.10500,-0.03500,0.56000,0.45900,-1.30600,79.39000,1.42000
041225_04.46.58.886,-0.02500,-0.00200,1.00200,0.08700,-0.12300,-0.01800,0.55700,0.46000,-1.31200,79.01000,-0.38000
041225_04.46.58.898,-0.02500,-0.00200,0.99900,0.10500,-0.12300,-0.01800,0.56300,0.46300,-1.30500,78.45000,-0.56000
041225_04.46.58.909,-0.02500,-0.00400,1.00500,0.10500,-0.10500,-0.01800,0.56400,0.46500,-1.30600,78.78000,0.33000
041225_04.46.58.921,-0.02400,-0.00200,1.00100,0.08700,-0.12300,-0.01800,0.56600,0.45900,-1.30700,78.68000,-0.10000
041225_04.46.58.932,-0.02400,-0.00300,1.00300,0.07000,-0.14000,-0.01800,0.56600,0.45900,-1.30700,78.61000,-0.07000
041225_04.46.58.943,-0.02300,-0.00200,1.00300,0.10500,-0.14000,-0.01800,0.56100,0.46200,-1.30600,78.98000,0.37000
041225_04.46.58.955,-0.02300,-0.00200,0.99900,0.08700,-0.12300,0.00000,0.56500,0.46000,-1.31000,78.85000,-0.13000
041225_04.46.58.966,-0.02600,-0.00500,1.00500,0.07000,-0.12300,-0.01800,0.56100,0.45700,-1.30900,78.77000,-0.08000
041225_04.46.58.978,-0.02500,-0.00300,1.00000,0.08700,-0.14000,-0.01800,0.56100,0.45700,-1.30900,78.46000,-0.31000
041225_04.46.58.989,-0.02400,-0.00200,1.00200,0.10500,-0.14000,-0.01800,0.56200,0.46300,-1.31300,78.54000,0.08000
041225_04.46.59.001,-0.02500,-0.00300,1.00300,0.08700,-0.12300,-0.01800,0.56100,0.46100,-1.30100,78.87000,0.33000
041225_04.46.59.012,-0.02400,-0.00300,1.00000,0.08700,-0.10500,-0.03500,0.55700,0.46100,-1.30600,79.16000,0.29000
041225_04.46.59.024,-0.02600,-0.00400,1.00400,0.08700,-0.10500,-0.03500,0.55700,0.46300,-1.30300,78.65000,-0.51000
041225_04.46.59.035,-0.02500,-0.00200,1.00200,0.08700,-0.12300,-0.01800,0.55700,0.46300,-1.30300,79.08000,0.43000
041225_04.46.59.046,-0.02500,-0.00500,1.00400,0.08700,-0.10500,-0.01800,0.55800,0.46000,-1.30600,78.66000,-0.42000
041225_04.46.59.058,-0.02400,-0.00200,1.00100,0.08700,-0.12300,-0.01800,0.55600,0.46000,-1.30900,79.06000,0.40000
041225_04.46.59.069,-0.02600,-0.00400,1.00300,0.08700,-0.14000,-0.01800,0.54700,0.46500,-1.30600,78.88000,-0.18000
041225_04.46.59.081,-0.02600,-0.00300,1.00300,0.08700,-0.10500,-0.03500,0.54900,0.45800,-1.30400,79.17000,0.29000
041225_04.46.59.092,-0.02400,-0.00200,1.00100,0.08700,-0.12300,-0.01800,0.54900,0.45800,-1.30400,77.91000,-1.26000
041225_04.46.59.104,-0.02600,-0.00400,1.00500,0.07000,-0.10500,-0.01800,0.54100,0.46100,-1.30500,78.58000,0.67000
041225_04.46.59.115,-0.02600,-0.00300,1.00100,0.10500,-0.12300,-0.03500,0.55000,0.46400,-1.30900,79.35000,0.77000
041225_04.46.59.127,-0.02400,-0.00300,1.00200,0.08700,-0.14000,-0.01800,0.54900,0.46400,-1.31100,79.25000,-0.10000
041225_04.46.59.138,-0.02400,-0.00200,1.00100,0.08700,-0.12300,-0.03500,0.54900,0.46400,-1.31100,79.09000,-0.16000
041225_04.46.59.150,-0.02500,-0.00400,1.00100,0.08700,-0.12300,-0.03500,0.55900,0.45800,-1.30900,79.17000,0.08000
041225_04.46.59.161,-0.02400,-0.00200,1.00500,0.07000,-0.14000,-0.01800,0.56200,0.45700,-1.30900,78.58000,-0.59000
041225_04.46.59.173,-0.02500,-0.00300,1.00100,0.07000,-0.12300,0.00000,0.56300,0.45600,-1.31400,78.79000,0.21000
041225_04.46.59.184,-0.02500,-0.00200,1.00200,0.07000,-0.12300,-0.03500,0.56300,0.46100,-1.31700,79.05000,0.26000
041225_04.46.59.195,-0.02500,-0.00500,1.00200,0.07000,-0.10500,-0.03500,0.56300,0.46100,-1.31700,78.90000,-0.15000
041225_04.46.59.207,-0.02500,-0.00200,1.00300,0.08700,-0.12300,-0.03500,0.56100,0.45800,-1.31700,79.12000,0.22000
041225_04.46.59.218,-0.02600,-0.00300,1.00200,0.07000,-0.12300,-0.03500,0.56300,0.46000,-1.31900,79.22000,0.10000
041225_04.46.59.230,-0.02400,-0.00400,1.00100,0.08700,-0.10500,-0.01800,0.56500,0.46000,-1.32200,79.65000,0.43000
041225_04.46.59.241,-0.02500,-0.00300,1.00400,0.10500,-0.14000,0.00000,0.56300,0.46100,-1.31400,78.86000,-0.79000
041225_04.46.59.253,-0.02500,-0.00400,1.00100,0.10500,-0.14000,0.00000,0.56300,0.46100,-1.31400,78.95000,0.09000
041225_04.46.59.264,-0.02600,-0.00200,1.00300,0.10500,-0.14000,-0.01800,0.56100,0.45800,-1.31300,79.24000,0.29000
041225_04.46.59.275,-0.02600,-0.00300,1.00300,0.10500,-0.14000,0.00000,0.55900,0.46300,-1.30600,78.70000,-0.54000
041225_04.46.59.287,-0.02400,-0.00300,1.00100,0.10500,-0.10500,-0.01800,0.55800,0.45800,-1.30100,79.57000,0.87000
041225_04.46.59.298,-0.02400,-0.00300,1.00400,0.12300,-0.12300,-0.01800,0.55800,0.45800,-1.30100,78.92000,-0.65000
041225_04.46.59.310,-0.02500,-0.00300,1.00100,0.10500,-0.12300,-0.03500,0.56000,0.46000,-1.30600,79.66000,0.74000
041225_04.46.59.321,-0.02500,-0.00300,1.00100,0.08700,-0.12300,-0.03500,0.55100,0.46300,-1.30700,79.06000,-0.60000
041225_04.46.59.332,-0.02600,-0.00400,1.00300,0.10500,-0.12300,-0.01800,0.55300,0.46000,-1.31200,79.75000,0.69000
041225_04.46.59.344,-0.02400,-0.00100,1.00000,0.10500,-0.12300,-0.01800,0.55200,0.46200,-1.30800,78.77000,-0.98000
041225_04.46.59.355,-0.02500,-0.00300,1.00200,0.08700,-0.14000,-0.01800,0.55200,0.46200,-1.30800,79.19000,0.42000
041225_04.46.59.367,-0.02500,-0.00300,1.00000,0.10500,-0.12300,-0.01800,0.54800,0.45800,-1.30800,78.72000,-0.47000
041225_04.46.59.378,-0.02600,-0.00300,1.00500,0.12300,-0.12300,0.00000,0.55000,0.45800,-1.30700,79.18000,0.46000
041225_04.46.59.390,-0.02300,-0.00200,1.00100,0.10500,-0.14000,0.00000,0.55500,0.46600,-1.30800,79.15000,-0.03000
041225_04.46.59.401,-0.02500,-0.00300,1.00400,0.08700,-0.14000,-0.03500,0.55500,0.45800,-1.31300,78.80000,-0.35000
041225_04.46.59.413,-0.02400,-0.00300,1.00300,0.10500,-0.12300,-0.03500,0.55700,0.45800,-1.31300,79.67000,0.87000
041225_04.46.59.424,-0.02400,-0.00300,1.00000,0.08700,-0.12300,-0.03500,0.56600,0.45800,-1.31500,78.68000,-0.99000
041225_04.46.59.436,-0.02400,-0.00200,1.00400,0.08700,-0.12300,-0.03500,0.56500,0.46100,-1.31000,79.12000,0.44000
041225_04.46.59.447,-0.02400,-0.00200,1.00100,0.08700,-0.12300,-0.01800,0.56600,0.46100,-1.31200,79.03000,-0.09000
041225_04.46.59.459,-0.02400,-0.00200,1.00300,0.07000,-0.12300,-0.03500,0.56600,0.46100,-1.31200,79.15000,0.12000
041225_04.46.59.470,-0.02600,-0.00200,1.00400,0.07000,-0.12300,-0.03500,0.56500,0.46000,-1.30400,78.79000,-0.36000
041225_04.46.59.482,-0.02400,-0.00200,1.00100,0.08700,-0.12300,-0.03500,0.56700,0.46500,-1.30800,78.60000,-0.19000
041225_04.46.59.493,-0.02400,-0.00200,1.00400,0.07000,-0.14000,0.00000,0.57000,0.46300,-1.31000,78.83000,0.23000
041225_04.46.59.504,-0.02500,-0.00300,1.00300,0.07000,-0.12300,-0.01800,0.56300,0.46200,-1.31000,78.82000,-0.01000
041225_04.46.59.516,-0.02400,-0.00200,1.00100,0.10500,-0.14000,0.00000,0.56300,0.46200,-1.31000,79.01000,0.19000
041225_04.46.59.527,-0.02300,-0.00100,1.00000,0.10500,-0.15700,-0.03500,0.56400,0.46300,-1.30800,78.93000,-0.08000
041225_04.46.59.539,-0.02400,-0.00400,1.00300,0.10500,-0.12300,-0.01800,0.56700,0.46300,-1.29900,79.47000,0.54000
041225_04.46.59.550,-0.02400,-0.00300,1.00200,0.08700,-0.12300,-0.01800,0.55900,0.46200,-1.30800,79.04000,-0.43000
041225_04.46.59.562,-0.02400,-0.00300,1.00000,0.08700,-0.10500,-0.03500,0.55900,0.46400,-1.30200,79.30000,0.26000
041225_04.46.59.573,-0.02500,-0.00300,1.00400,0.10500,-0.14000,-0.03500,0.56200,0.46400,-1.30200,79.00000,-0.30000
041225_04.46.59.585,-0.02500,-0.00400,1.00200,0.08700,-0.14000,-0.03500,0.56000,0.46400,-1.29600,78.66000,-0.34000
041225_04.46.59.596,-0.02400,-0.00300,1.00200,0.05300,-0.12300,-0.03500,0.55600,0.46200,-1.30100,79.04000,0.38000
041225_04.46.59.607,-0.02500,-0.00500,1.00400,0.07000,-0.10500,-0.03500,0.55600,0.46000,-1.30600,79.24000,0.20000
041225_04.46.59.619,-0.02500,-0.00300,1.00100,0.10500,-0.14000,-0.03500,0.55600,0.46000,-1.30600,79.23000,-0.01000
041225_04.46.59.630,-0.02600,-0.00300,1.00400,0.08700,-0.12300,-0.03500,0.54600,0.46000,-1.30900,78.56000,-0.67000
041225_04.46.59.642,-0.02400,-0.00300,1.00000,0.10500,-0.12300,-0.03500,0.55200,0.46100,-1.30800,78.72000,0.16000
041225_04.46.59.654,-0.02400,-0.00200,1.00200,0.08700,-0.10500,-0.01800,0.54800,0.45700,-1.31000,79.49000,0.77000
041225_04.46.59.666,-0.02500,-0.00400,1.00400,0.08700,-0.14000,-0.03500,0.55200,0.45800,-1.31400,78.74000,-0.75000
041225_04.46.59.677,-0.02500,-0.00100,1.00400,0.08700,-0.12300,-0.03500,0.55200,0.45800,-1.31400,79.02000,0.28000
041225_04.46.59.689,-0.02500,-0.00400,1.00300,0.08700,-0.10500,-0.01800,0.56400,0.45800,-1.31600,79.05000,0.03000
041225_04.46.59.701,-0.02500,-0.00300,1.00100,0.08700,-0.14000,-0.01800,0.56000,0.45600,-1.31800,79.08000,0.03000
041225_04.46.59.712,-0.02500,-0.00200,1.00500,0.10500,-0.14000,-0.03500,0.55800,0.45800,-1.31200,79.14000,0.06000
041225_04.46.59.724,-0.02500,-0.00400,1.00100,0.10500,-0.14000,-0.03500,0.55800,0.45900,-1.31300,78.36000,-0.78000
041225_04.46.59.735,-0.02600,-0.00400,1.00300,0.08700,-0.08700,-0.01800,0.56300,0.45900,-1.31300,78.93000,0.57000
041225_04.46.59.747,-0.02500,-0.00400,1.00200,0.08700,-0.12300,-0.03500,0.56200,0.46000,-1.31500,79.44000,0.51000
041225_04.46.59.759,-0.02400,-0.00200,1.00100,0.08700,-0.12300,-0.01800,0.56300,0.46000,-1.31200,79.25000,-0.19000
041225_04.46.59.770,-0.02500,-0.00300,1.00400,0.08700,-0.15700,0.00000,0.56200,0.46000,-1.31200,78.88000,-0.37000
041225_04.46.59.782,-0.02500,-0.00300,1.00000,0.08700,-0.15700,-0.03500,0.56200,0.46000,-1.31200,78.80000,-0.08000
041225_04.46.59.794,-0.02600,-0.00300,1.00100,0.12300,-0.12300,-0.03500,0.56700,0.46200,-1.30900,79.36000,0.56000
041225_04.46.59.805,-0.02500,-0.00300,1.00400,0.10500,-0.14000,-0.03500,0.56600,0.46000,-1.31300,78.85000,-0.51000
041225_04.46.59.817,-0.02400,-0.00200,1.00100,0.08700,-0.14000,-0.01800,0.56000,0.46100,-1.30900,78.77000,-0.08000
041225_04.46.59.829,-0.02500,-0.00300,1.00200,0.08700,-0.14000,-0.01800,0.56000,0.45800,-1.31100,78.15000,-0.62000
041225_04.46.59.840,-0.02500,-0.00300,1.00000,0.08700,-0.15700,-0.01800,0.56000,0.45800,-1.31100,79.12000,0.97000
041225_04.46.59.852,-0.02500,-0.00300,1.00500,0.08700,-0.10500,-0.01800,0.55500,0.46100,-1.30300,79.07000,-0.05000
041225_04.46.59.863,-0.02400,-0.00200,1.00000,0.08700,-0.12300,-0.03500,0.55800,0.46200,-1.30000,78.52000,-0.55000
041225_04.46.59.875,-0.02300,-0.00200,1.00200,0.10500,-0.10500,-0.01800,0.55900,0.45900,-1.31000,79.48000,0.96000
041225_04.46.59.887,-0.02600,-0.00400,1.00200,0.10500,-0.12300,-0.01800,0.55900,0.46100,-1.31400,78.89000,-0.59000
041225_04.46.59.898,-0.02400,-0.00200,1.00100,0.10500,-0.12300,-0.03500,0.55300,0.46100,-1.31400,79.56000,0.67000
041225_04.46.59.910,-0.02600,-0.00400,1.00400,0.08700,-0.12300,-0.03500,0.54400,0.46300,-1.30800,78.84000,-0.72000
041225_04.46.59.922,-0.02500,-0.00400,1.00000,0.12300,-0.12300,-0.01800,0.55200,0.46000,-1.31500,79.10000,0.26000
041225_04.46.59.933,-0.02400,-0.00300,1.00200,0.08700,-0.12300,0.00000,0.55400,0.45700,-1.31300,78.87000,-0.23000
041225_04.46.59.945,-0.02500,-0.00400,1.00400,0.10500,-0.12300,-0.01800,0.55400,0.45700,-1.31300,79.21000,0.34000
041225_04.46.59.956,-0.02400,-0.00300,1.00000,0.10500,-0.14000,-0.01800,0.55800,0.46000,-1.31000,78.65000,-0.56000
041225_04.46.59.968,-0.02600,-0.00400,1.00300,0.08700,-0.12300,-0.03500,0.56100,0.46400,-1.31200,78.72000,0.07000
041225_04.46.59.980,-0.02600,-0.00200,1.00300,0.08700,-0.14000,-0.01800,0.56100,0.46000,-1.31300,79.37000,0.65000
041225_04.46.59.991,-0.02400,-0.00400,1.00200,0.10500,-0.14000,-0.01800,0.56600,0.46000,-1.32300,78.34000,-1.03000
041225_04.47.00.003,-0.02600,-0.00300,1.00100,0.10500,-0.14000,-0.01800,0.56600,0.46000,-1.32300,79.26000,0.92000
041225_04.47.00.014,-0.02300,-0.00400,1.00300,0.10500,-0.14000,-0.01800,0.56800,0.45900,-1.31600,78.88000,-0.38000
041225_04.47.00.026,-0.02600,-0.00300,1.00300,0.08700,-0.12300,-0.03500,0.56600,0.46000,-1.31700,79.73000,0.85000
041225_04.47.00.037,-0.02500,-0.00400,1.00000,0.08700,-0.12300,-0.03500,0.57000,0.45900,-1.31400,78.57000,-1.16000
041225_04.47.00.049,-0.02600,-0.00400,1.00500,0.07000,-0.14000,-0.01800,0.57000,0.45900,-1.31900,78.60000,0.03000
041225_04.47.00.060,-0.02500,-0.00200,0.99900,0.07000,-0.10500,-0.01800,0.56800,0.46200,-1.31900,78.39000,-0.21000
041225_04.47.00.072,-0.02400,-0.00300,1.00200,0.08700,-0.12300,-0.03500,0.57100,0.46000,-1.31800,79.02000,0.63000
041225_04.47.00.084,-0.02400,-0.00300,1.00300,0.10500,-0.10500,-0.01800,0.56100,0.46100,-1.32100,79.11000,0.09000
041225_04.47.00.095,-0.02200,-0.00300,1.00000,0.08700,-0.10500,-0.01800,0.56100,0.46000,-1.31200,79.16000,0.05000
041225_04.47.00.107,-0.02600,-0.00200,1.00300,0.08700,-0.10500,-0.01800,0.56100,0.46000,-1.31200,79.40000,0.24000
041225_04.47.00.119,-0.02400,-0.00300,1.00100,0.10500,-0.10500,-0.03500,0.56500,0.46100,-1.30800,79.21000,-0.19000
041225_04.47.00.130,-0.02300,-0.00200,1.00100,0.10500,-0.14000,-0.03500,0.55700,0.46300,-1.30800,78.45000,-0.76000
041225_04.47.00.142,-0.02500,-0.00200,1.00500,0.10500,-0.14000,-0.01800,0.55300,0.46000,-1.30500,78.87000,0.42000
041225_04.47.00.153,-0.02400,-0.00100,0.99900,0.08700,-0.12300,-0.01800,0.55200,0.46100,-1.30600,79.31000,0.44000
041225_04.47.00.165,-0.02400,-0.00200,1.00300,0.10500,-0.14000,-0.03500,0.55200,0.46100,-1.30600,78.35000,-0.96000
041225_04.47.00.176,-0.02500,-0.00100,1.00100,0.08700,-0.14000,-0.01800,0.55400,0.46400,-1.30600,78.89000,0.54000
041225_04.47.00.188,-0.02600,-0.00100,1.00500,0.10500,-0.12300,-0.03500,0.54900,0.46400,-1.30900,79.24000,0.35000
041225_04.47.00.200,-0.02500,-0.00300,1.00100,0.10500,-0.12300,-0.03500,0.54900,0.45800,-1.30300,78.41000,-0.83000
041225_04.47.00.211,-0.02500,-0.00200,1.00300,0.10500,-0.14000,0.00000,0.54900,0.45800,-1.30500,79.07000,0.66000
041225_04.47.00.223,-0.02500,-0.00200,1.00300,0.12300,-0.12300,0.00000,0.54600,0.46200,-1.30500,78.94000,-0.13000
041225_04.47.00.235,-0.02600,-0.00300,0.99900,0.08700,-0.12300,-0.01800,0.55800,0.46100,-1.30900,79.12000,0.18000
041225_04.47.00.246,-0.02600,-0.00400,1.00300,0.10500,-0.14000,-0.01800,0.55800,0.46200,-1.31600,78.70000,-0.42000
041225_04.47.00.258,-0.02600,-0.00200,1.00300,0.10500,-0.14000,0.00000,0.56700,0.46500,-1.31000,78.40000,-0.30000
041225_04.47.00.269,-0.02400,-0.00200,1.00200,0.10500,-0.14000,0.00000,0.56700,0.46500,-1.31000,79.03000,0.63000
041225_04.47.00.281,-0.02400,-0.00400,1.00400,0.08700,-0.12300,-0.01800,0.56500,0.46100,-1.30500,78.27000,-0.76000
041225_04.47.00.292,-0.02400,-0.00300,0.99900,0.07000,-0.14000,-0.01800,0.56400,0.46200,-1.31000,79.18000,0.91000
041225_04.47.00.304,-0.02500,-0.00400,1.00300,0.08700,-0.12300,-0.01800,0.56500,0.46100,-1.31700,79.08000,-0.10000
041225_04.47.00.316,-0.02600,-0.00300,1.00100,0.08700,-0.12300,-0.01800,0.56600,0.46600,-1.30900,78.93000,-0.15000
041225_04.47.00.328,-0.02500,-0.00400,1.00300,0.08700,-0.12300,-0.01800,0.56600,0.46600,-1.30900,78.73000,-0.20000
041225_04.47.00.339,-0.02400,-0.00400,1.00000,0.10500,-0.12300,-0.03500,0.56100,0.46300,-1.30300,79.23000,0.50000
041225_04.47.00.351,-0.02400,-0.00400,1.00200,0.10500,-0.14000,-0.03500,0.55800,0.46500,-1.30300,78.84000,-0.39000
041225_04.47.00.362,-0.02500,-0.00500,1.00200,0.08700,-0.14000,-0.03500,0.55700,0.46400,-1.30800,78.78000,-0.06000
041225_04.47.00.374,-0.02400,-0.00500,1.00100,0.10500,-0.14000,-0.01800,0.55700,0.46400,-1.31100,79.41000,0.63000
041225_04.47.00.385,-0.02600,-0.00400,1.00300,0.08700,-0.12300,-0.01800,0.56500,0.46400,-1.31100,78.76000,-0.65000
041225_04.47.00.397,-0.02500,-0.00500,1.00200,0.10500,-0.15700,-0.01800,0.55700,0.46500,-1.30900,78.71000,-0.05000
041225_04.47.00.409,-0.02400,-0.00200,1.00100,0.10500,-0.14000,-0.01800,0.55500,0.46200,-1.30500,78.65000,-0.06000
041225_04.47.00.421,-0.02600,-0.00400,1.00400,0.08700,-0.12300,-0.01800,0.55400,0.46100,-1.30200,79.28000,0.63000
041225_04.47.00.432,-0.02400,-0.00400,0.99800,0.10500,-0.12300,-0.03500,0.55400,0.46100,-1.30200,79.30000,0.02000
041225_04.47.00.444,-0.02500,-0.00400,1.00400,0.10500,-0.10500,-0.03500,0.55400,0.46200,-1.30300,78.63000,-0.67000
041225_04.47.00.455,-0.02400,-0.00200,1.00200,0.12300,-0.12300,-0.03500,0.55200,0.46200,-1.30200,78.75000,0.12000
041225_04.47.00.467,-0.02500,-0.00300,1.00000,0.08700,-0.14000,0.00000,0.54800,0.46400,-1.30600,78.70000,-0.05000
041225_04.47.00.478,-0.02600,-0.00300,1.00300,0.12300,-0.14000,-0.01800,0.54700,0.46300,-1.30400,78.55000,-0.15000
041225_04.47.00.490,-0.02600,-0.00300,1.00300,0.10500,-0.12300,-0.03500,0.54700,0.46300,-1.30400,78.81000,0.26000
041225_04.47.00.502,-0.02500,-0.00300,1.00400,0.10500,-0.12300,-0.01800,0.55300,0.46600,-1.31000,79.00000,0.19000
041225_04.47.00.514,-0.02500,-0.00200,1.00000,0.10500,-0.10500,-0.01800,0.55400,0.45900,-1.30500,80.02000,1.02000
041225_04.47.00.525,-0.02500,-0.00300,1.00400,0.10500,-0.12300,-0.01800,0.55100,0.46400,-1.30600,79.07000,-0.95000
041225_04.47.00.537,-0.02500,-0.00200,1.00200,0.12300,-0.10500,-0.01800,0.55100,0.46400,-1.30300,78.87000,-0.20000
041225_04.47.00.549,-0.02400,-0.00100,1.00300,0.10500,-0.10500,-0.03500,0.55800,0.46200,-1.30300,78.63000,-0.24000
041225_04.47.00.560,-0.02600,-0.00200,1.00400,0.12300,-0.12300,-0.01800,0.55900,0.45800,-1.30300,78.96000,0.33000
041225_04.47.00.572,-0.02400,-0.00300,1.00000,0.10500,-0.12300,-0.01800,0.56100,0.45800,-1.31000,79.01000,0.05000
041225_04.47.00.583,-0.02500,-0.00200,1.00400,0.08700,-0.12300,-0.01800,0.56100,0.45800,-1.30800,79.45000,0.44000
041225_04.47.00.595,-0.02600,-0.00300,1.00300,0.08700,-0.12300,-0.01800,0.56100,0.45800,-1.30800,78.97000,-0.48000
041225_04.47.00.606,-0.02500,-0.00200,1.00200,0.08700,-0.12300,-0.01800,0.56300,0.45800,-1.31100,78.94000,-0.03000
041225_04.47.00.618,-0.02500,-0.00400,1.00300,0.07000,-0.10500,-0.01800,0.56300,0.45700,-1.30400,79.06000,0.12000
041225_04.47.00.630,-0.02500,-0.00300,1.00100,0.08700,-0.12300,-0.01800,0.56200,0.46400,-1.30400,79.23000,0.17000
041225_04.47.00.642,-0.02600,-0.00200,1.00300,0.08700,-0.14000,-0.03500,0.55700,0.46300,-1.31200,78.79000,-0.44000
041225_04.47.00.653,-0.02500,-0.00300,0.99900,0.10500,-0.10500,-0.03500,0.55700,0.46300,-1.31200,78.97000,0.18000
041225_04.47.00.665,-0.02700,-0.00300,1.00400,0.07000,-0.10500,-0.03500,0.55800,0.45900,-1.30200,78.65000,-0.32000
041225_04.47.00.676,-0.02500,-0.00300,1.00000,0.07000,-0.12300,-0.01800,0.55700,0.46000,-1.30300,79.46000,0.81000
041225_04.47.00.688,-0.02500,-0.00200,1.00000,0.05300,-0.10500,-0.01800,0.56100,0.45900,-1.30200,78.58000,-0.88000
041225_04.47.00.699,-0.02600,-0.00400,1.00200,0.07000,-0.12300,-0.03500,0.56100,0.45900,-1.30200,79.20000,0.62000
041225_04.47.00.711,-0.02500,-0.00300,1.00000,0.08700,-0.14000,-0.03500,0.55200,0.46300,-1.30600,79.27000,0.07000
041225_04.47.00.722,-0.02700,-0.00300,1.00400,0.08700,-0.14000,-0.01800,0.54900,0.45800,-1.30400,78.71000,-0.56000
041225_04.47.00.734,-0.02500,-0.00300,1.00200,0.08700,-0.14000,-0.03500,0.54500,0.46300,-1.30400,78.76000,0.05000
041225_04.47.00.746,-0.02500,-0.00200,1.00100,0.08700,-0.14000,-0.01800,0.54400,0.46300,-1.30300,79.38000,0.62000
041225_04.47.00.758,-0.02600,-0.00400,1.00300,0.08700,-0.12300,-0.01800,0.54400,0.46300,-1.30300,79.09000,-0.29000
041225_04.47.00.769,-0.02400,-0.00200,1.00000,0.08700,-0.10500,-0.03500,0.55400,0.45900,-1.30500,78.19000,-0.90000
041225_04.47.00.781,-0.02400,-0.00300,1.00200,0.10500,-0.12300,-0.05300,0.54800,0.46300,-1.31700,78.52000,0.33000
041225_04.47.00.792,-0.02400,-0.00300,1.00200,0.10500,-0.14000,-0.03500,0.55400,0.46200,-1.31500,78.81000,0.29000
041225_04.47.00.803,-0.02400,-0.00400,1.00000,0.10500,-0.10500,-0.03500,0.55400,0.46000,-1.31000,78.94000,0.13000
041225_04.47.00.815,-0.02400,-0.00400,1.00100,0.12300,-0.12300,-0.03500,0.55400,0.46000,-1.31000,79.30000,0.36000
041225_04.47.00.826,-0.02400,-0.00300,1.00300,0.10500,-0.12300,-0.03500,0.55400,0.45900,-1.31400,79.20000,-0.10000
041225_04.47.00.838,-0.02400,-0.00400,1.00200,0.08700,-0.10500,-0.01800,0.55800,0.46300,-1.31800,78.89000,-0.31000
041225_04.47.00.849,-0.02300,-0.00100,1.00000,0.12300,-0.10500,-0.01800,0.55900,0.45600,-1.30800,79.06000,0.17000
041225_04.47.00.861,-0.02500,-0.00300,1.00400,0.12300,-0.12300,-0.01800,0.55900,0.45600,-1.30800,79.28000,0.22000
041225_04.47.00.872,-0.02300,-0.00200,1.00300,0.10500,-0.12300,-0.03500,0.56400,0.45700,-1.31000,79.41000,0.13000
041225_04.47.00.884,-0.02300,-0.00100,1.00100,0.08700,-0.12300,-0.01800,0.56600,0.45800,-1.31400,78.40000,-1.01000
041225_04.47.00.895,-0.02500,-0.00400,1.00400,0.08700,-0.12300,-0.01800,0.56400,0.46100,-1.32100,78.25000,-0.15000
041225_04.47.00.907,-0.02400,0.00000,1.00200,0.08700,-0.12300,-0.01800,0.56100,0.46000,-1.31300,78.70000,0.45000
041225_04.47.00.918,-0.02400,-0.00200,1.00400,0.08700,-0.08700,0.00000,0.56100,0.46000,-1.31300,79.28000,0.58000
041225_04.47.00.930,-0.02500,-0.00300,1.00200,0.08700,-0.10500,-0.01800,0.56200,0.46300,-1.31100,78.94000,-0.34000
041225_04.47.00.941,-0.02500,-0.00200,1.00000,0.08700,-0.14000,-0.01800,0.56300,0.46300,-1.31700,78.68000,-0.26000
041225_04.47.00.953,-0.02500,-0.00200,1.00400,0.08700,-0.12300,-0.01800,0.55800,0.46400,-1.31700,78.50000,-0.18000
041225_04.47.00.964,-0.02600,-0.00100,1.00000,0.07000,-0.12300,0.00000,0.55300,0.46200,-1.31100,79.22000,0.72000
041225_04.47.00.975,-0.02700,-0.00300,1.00300,0.08700,-0.10500,-0.03500,0.55300,0.46200,-1.31100,79.26000,0.04000
041225_04.47.00.987,-0.02400,-0.00200,0.99900,0.07000,-0.10500,-0.03500,0.55000,0.46200,-1.30600,79.07000,-0.19000
041225_04.47.00.998,-0.02700,-0.00300,1.00400,0.08700,-0.12300,-0.03500,0.55000,0.46400,-1.30600,79.18000,0.11000
041225_04.47.01.010,-0.02600,-0.00300,1.00100,0.07000,-0.12300,-0.01800,0.55100,0.45900,-1.30600,78.93000,-0.25000
041225_04.47.01.021,-0.02600,-0.00300,1.00000,0.08700,-0.10500,0.00000,0.55100,0.45900,-1.30600,79.39000,0.46000
041225_04.47.01.033,-0.02600,-0.00400,1.00300,0.07000,-0.14000,0.00000,0.54300,0.46400,-1.31100,78.60000,-0.79000
041225_04.47.01.044,-0.02700,-0.00300,1.00200,0.07000,-0.14000,-0.03500,0.54400,0.46100,-1.31200,79.09000,0.49000
041225_04.47.01.055,-0.02700,-0.00400,1.00400,0.07000,-0.15700,-0.03500,0.54800,0.46000,-1.32000,78.99000,-0.10000
041225_04.47.01.067,-0.02600,-0.00300,1.00100,0.08700,-0.12300,-0.01800,0.55200,0.45900,-1.31700,79.09000,0.10000
041225_04.47.01.078,-0.02600,-0.00400,1.00000,0.07000,-0.14000,-0.03500,0.55200,0.45900,-1.31700,78.89000,-0.20000
041225_04.47.01.090,-0.02600,-0.00400,1.00500,0.08700,-0.12300,-0.03500,0.55800,0.45800,-1.31300,78.52000,-0.37000
041225_04.47.01.101,-0.02600,-0.00300,1.00000,0.10500,-0.14000,-0.05300,0.55500,0.45700,-1.31500,78.99000,0.47000
041225_04.47.01.113,-0.02500,-0.00400,1.00300,0.10500,-0.14000,-0.01800,0.55900,0.46100,-1.31200,79.15000,0.16000
041225_04.47.01.124,-0.02700,-0.00500,1.00100,0.10500,-0.14000,-0.01800,0.56600,0.46100,-1.31600,78.86000,-0.29000
041225_04.47.01.136,-0.02500,-0.00300,1.00500,0.10500,-0.14000,-0.01800,0.56600,0.46100,-1.31600,79.21000,0.35000
041225_04.47.01.147,-0.02400,-0.00500,1.00100,0.12300,-0.14000,-0.03500,0.56800,0.45700,-1.31600,78.91000,-0.30000
041225_04.47.01.158,-0.02400,-0.00300,1.00100,0.10500,-0.15700,-0.03500,0.56600,0.45900,-1.32200,79.02000,0.11000
041225_04.47.01.170,-0.02500,-0.00400,1.00400,0.08700,-0.14000,-0.03500,0.56300,0.45900,-1.31400,79.19000,0.17000
041225_04.47.01.182,-0.02300,-0.00100,1.00200,0.08700,-0.14000,-0.01800,0.56300,0.45900,-1.31400,79.20000,0.01000
041225_04.47.01.193,-0.02400,-0.00400,1.00300,0.08700,-0.14000,0.00000,0.56500,0.46600,-1.31400,79.31000,0.11000
041225_04.47.01.204,-0.02400,-0.00400,1.00200,0.08700,-0.12300,-0.01800,0.56400,0.46100,-1.31500,78.78000,-0.53000
041225_04.47.01.216,-0.02400,-0.00200,1.00100,0.10500,-0.14000,0.00000,0.56200,0.45900,-1.31100,78.31000,-0.47000
041225_04.47.01.227,-0.02300,-0.00300,1.00500,0.08700,-0.14000,-0.01800,0.55900,0.46600,-1.31200,78.53000,0.22000
041225_04.47.01.239,-0.02500,-0.00400,1.00100,0.10500,-0.12300,-0.01800,0.55900,0.46600,-1.31200,78.81000,0.28000
041225_04.47.01.250,-0.02300,-0.00200,1.00200,0.10500,-0.12300,-0.01800,0.56500,0.46200,-1.31800,79.48000,0.67000
041225_04.47.01.262,-0.02400,-0.00200,1.00400,0.10500,-0.10500,-0.01800,0.55800,0.46300,-1.31400,78.67000,-0.81000
041225_04.47.01.273,-0.02300,-0.00200,1.00100,0.08700,-0.10500,-0.01800,0.55500,0.46200,-1.31400,78.96000,0.29000
041225_04.47.01.284,-0.02500,-0.00200,1.00100,0.10500,-0.12300,-0.03500,0.54900,0.46400,-1.31500,78.91000,-0.05000
041225_04.47.01.296,-0.02300,-0.00100,1.00300,0.08700,-0.12300,-0.01800,0.54900,0.46400,-1.31500,78.94000,0.03000
041225_04.47.01.307,-0.02300,-0.00200,1.00500,0.10500,-0.10500,-0.03500,0.55200,0.46500,-1.31100,78.63000,-0.31000
041225_04.47.01.319,-0.02200,-0.00100,1.00000,0.10500,-0.12300,-0.01800,0.54900,0.46400,-1.31600,79.47000,0.84000
041225_04.47.01.330,-0.02400,-0.00300,1.00400,0.10500,-0.12300,-0.01800,0.54800,0.46000,-1.31800,77.80000,-1.67000
041225_04.47.01.342,-0.02300,-0.00200,1.00200,0.07000,-0.10500,-0.01800,0.54800,0.46000,-1.31800,78.20000,0.40000
041225_04.47.01.353,-0.02400,-0.00200,1.00100,0.07000,-0.12300,-0.03500,0.54500,0.46300,-1.31500,79.06000,0.86000
041225_04.47.01.365,-0.02600,-0.00200,1.00400,0.08700,-0.10500,-0.03500,0.55200,0.46100,-1.31000,77.99000,-1.07000
041225_04.47.01.376,-0.02400,-0.00300,1.00100,0.10500,-0.14000,-0.05300,0.55700,0.46600,-1.31000,79.57000,1.58000
041225_04.47.01.387,-0.02500,-0.00200,1.00200,0.08700,-0.10500,0.00000,0.55600,0.46700,-1.31300,78.92000,-0.65000
041225_04.47.01.399,-0.02500,-0.00300,1.00300,0.07000,-0.10500,-0.01800,0.55600,0.46700,-1.31300,79.63000,0.71000
041225_04.47.01.410,-0.02500,-0.00300,1.00100,0.10500,-0.12300,-0.01800,0.55500,0.46400,-1.31900,79.14000,-0.49000
041225_04.47.01.422,-0.02500,-0.00300,1.00300,0.10500,-0.14000,-0.01800,0.56100,0.46300,-1.31300,78.65000,-0.49000
041225_04.47.01.433,-0.02400,-0.00300,1.00200,0.07000,-0.10500,-0.01800,0.56700,0.46300,-1.31600,78.62000,-0.03000
041225_04.47.01.445,-0.02500,-0.00400,1.00500,0.10500,-0.10500,-0.03500,0.56600,0.46600,-1.31600,78.78000,0.16000
041225_04.47.01.456,-0.02500,-0.00300,1.00000,0.08700,-0.12300,-0.01800,0.56600,0.46600,-1.31600,79.20000,0.42000
041225_04.47.01.468,-0.02600,-0.00300,1.00400,0.10500,-0.08700,-0.01800,0.56300,0.46500,-1.31900,79.06000,-0.14000
041225_04.47.01.479,-0.02500,-0.00300,1.00300,0.08700,-0.10500,-0.01800,0.56500,0.46500,-1.31400,78.77000,-0.29000
041225_04.47.01.491,-0.02500,-0.00300,1.00100,0.10500,-0.12300,-0.01800,0.56400,0.46300,-1.31700,79.19000,0.42000
041225_04.47.01.502,-0.02600,-0.00300,1.00500,0.10500,-0.12300,-0.03500,0.56400,0.46300,-1.31700,78.87000,-0.32000
041225_04.47.01.514,-0.02400,-0.00300,1.00100,0.08700,-0.12300,-0.05300,0.55700,0.46600,-1.31000,79.17000,0.30000
041225_04.47.01.526,-0.02700,-0.00400,1.00300,0.07000,-0.12300,-0.03500,0.56100,0.46500,-1.31300,79.58000,0.41000
041225_04.47.01.537,-0.02300,-0.00400,1.00400,0.08700,-0.12300,-0.01800,0.55300,0.46500,-1.30900,79.68000,0.10000
041225_04.47.01.548,-0.02400,-0.00300,1.00000,0.08700,-0.12300,-0.01800,0.55200,0.46500,-1.30600,78.80000,-0.88000
041225_04.47.01.560,-0.02700,-0.00400,1.00400,0.08700,-0.12300,-0.01800,0.55200,0.46500,-1.30600,78.91000,0.11000
041225_04.47.01.571,-0.02500,-0.00300,1.00000,0.08700,-0.14000,0.00000,0.55500,0.46600,-1.30700,78.85000,-0.06000
041225_04.47.01.583,-0.02500,-0.00400,1.00100,0.08700,-0.14000,-0.01800,0.55200,0.46000,-1.31100,78.72000,-0.13000
041225_04.47.01.594,-0.02400,-0.00500,1.00300,0.10500,-0.14000,-0.03500,0.54900,0.46100,-1.31300,79.43000,0.71000
041225_04.47.01.606,-0.02400,-0.00500,1.00200,0.12300,-0.12300,0.00000,0.54800,0.46300,-1.30500,78.27000,-1.16000
041225_04.47.01.617,-0.02600,-0.00500,1.00100,0.10500,-0.14000,0.01800,0.54800,0.46300,-1.30500,78.86000,0.59000
041225_04.47.01.629,-0.02600,-0.00400,1.00100,0.10500,-0.12300,-0.01800,0.54900,0.46500,-1.30700,79.49000,0.63000
041225_04.47.01.640,-0.02600,-0.00400,1.00400,0.12300,-0.12300,-0.01800,0.55700,0.46600,-1.31100,78.82000,-0.67000
041225_04.47.01.652,-0.02400,-0.00300,1.00000,0.12300,-0.12300,0.00000,0.56000,0.46100,-1.30600,78.75000,-0.07000
041225_04.47.01.663,-0.02500,-0.00400,1.00200,0.10500,-0.10500,-0.01800,0.56000,0.46100,-1.30600,79.65000,0.90000
041225_04.47.01.674,-0.02600,-0.00300,1.00200,0.10500,-0.12300,-0.01800,0.55900,0.46000,-1.31100,78.22000,-1.43000
041225_04.47.01.686,-0.02500,-0.00300,1.00100,0.08700,-0.12300,-0.01800,0.56400,0.46000,-1.31200,79.34000,1.12000
041225_04.47.01.697,-0.02600,-0.00300,1.00200,0.10500,-0.12300,-0.01800,0.56600,0.46100,-1.31500,79.65000,0.31000
041225_04.47.01.709,-0.02500,-0.00300,1.00100,0.10500,-0.12300,-0.01800,0.57000,0.46200,-1.31900,79.35000,-0.30000
041225_04.47.01.720,-0.02600,-0.00100,1.00000,0.10500,-0.08700,-0.01800,0.57000,0.46200,-1.31900,79.44000,0.09000
041225_04.47.01.732,-0.02500,-0.00200,1.00400,0.12300,-0.10500,-0.03500,0.56500,0.46500,-1.31300,79.01000,-0.43000
041225_04.47.01.743,-0.02500,-0.00100,0.99900,0.08700,-0.12300,-0.03500,0.56900,0.46500,-1.31700,79.98000,0.97000
041225_04.47.01.755,-0.02700,-0.00200,1.00200,0.10500,-0.12300,-0.01800,0.56800,0.46500,-1.31400,78.69000,-1.29000
041225_04.47.01.766,-0.02600,-0.00000,1.00100,0.12300,-0.14000,-0.03500,0.56200,0.46200,-1.31000,78.75000,0.06000
041225_04.47.01.778,-0.02600,-0.00100,1.00400,0.12300,-0.12300,-0.01800,0.56200,0.46200,-1.31000,79.37000,0.62000
041225_04.47.01.789,-0.02500,0.00100,1.00200,0.08700,-0.12300,-0.03500,0.56200,0.46600,-1.31100,78.91000,-0.46000
041225_04.47.01.801,-0.02500,-0.00100,1.00300,0.08700,-0.14000,-0.01800,0.56400,0.46300,-1.30700,78.85000,-0.06000
041225_04.47.01.812,-0.02400,-0.00200,1.00500,0.08700,-0.15700,-0.01800,0.55700,0.46100,-1.31300,78.73000,-0.12000
041225_04.47.01.823,-0.02400,-0.00100,1.00100,0.08700,-0.15700,0.00000,0.55700,0.46100,-1.31300,79.13000,0.40000
041225_04.47.01.835,-0.02500,-0.00200,1.00400,0.08700,-0.14000,-0.01800,0.55700,0.45900,-1.31300,78.65000,-0.48000
041225_04.47.01.846,-0.02400,-0.00300,1.00200,0.07000,-0.14000,-0.03500,0.54800,0.46100,-1.30300,79.53000,0.88000
041225_04.47.01.858,-0.02500,-0.00100,1.00300,0.08700,-0.14000,-0.03500,0.55000,0.46500,-1.30900,79.00000,-0.53000
041225_04.47.01.870,-0.02400,-0.00300,1.00500,0.08700,-0.14000,-0.03500,0.55200,0.46200,-1.31000,78.84000,-0.16000
041225_04.47.01.882,-0.02300,-0.00300,1.00100,0.10500,-0.12300,-0.03500,0.55200,0.46200,-1.31000,78.82000,-0.02000
041225_04.47.01.893,-0.02400,-0.00400,1.00400,0.08700,-0.12300,-0.01800,0.55000,0.46400,-1.31400,78.79000,-0.03000
041225_04.47.01.905,-0.02400,-0.00300,1.00300,0.07000,-0.12300,-0.01800,0.55300,0.46400,-1.31200,78.57000,-0.22000
041225_04.47.01.916,-0.02400,-0.00200,1.00000,0.07000,-0.12300,-0.01800,0.55100,0.46200,-1.30900,79.03000,0.46000
041225_04.47.01.928,-0.02400,-0.00300,1.00000,0.08700,-0.12300,-0.01800,0.55800,0.46100,-1.31200,79.03000,0.00000
041225_04.47.01.939,-0.02300,-0.00600,1.00400,0.08700,-0.14000,-0.01800,0.55800,0.46100,-1.31200,79.25000,0.22000
041225_04.47.01.950,-0.02400,-0.00200,1.00300,0.08700,-0.14000,-0.03500,0.56100,0.46200,-1.31400,79.25000,0.00000
041225_04.47.01.962,-0.02300,-0.00300,1.00100,0.10500,-0.12300,-0.03500,0.56300,0.46000,-1.31500,79.21000,-0.04000
041225_04.47.01.973,-0.02500,-0.00400,1.00400,0.08700,-0.12300,-0.03500,0.55800,0.46000,-1.31100,79.08000,-0.13000
041225_04.47.01.985,-0.02400,-0.00400,0.99900,0.10500,-0.10500,-0.01800,0.55800,0.46000,-1.31100,78.48000,-0.60000
041225_04.47.01.996,-0.02500,-0.00400,1.00100,0.10500,-0.12300,-0.01800,0.56300,0.46100,-1.31000,79.39000,0.91000
041225_04.47.02.008,-0.02500,-0.00400,1.00400,0.10500,-0.12300,-0.03500,0.56100,0.46700,-1.30800,78.98000,-0.41000
041225_04.47.02.019,-0.02300,-0.00300,0.99900,0.10500,-0.12300,-0.03500,0.56700,0.45800,-1.31800,78.46000,-0.52000
041225_04.47.02.031,-0.02500,-0.00500,1.00200,0.08700,-0.12300,-0.03500,0.56300,0.46100,-1.31300,79.38000,0.92000
041225_04.47.02.042,-0.02400,-0.00500,1.00100,0.07000,-0.12300,-0.03500,0.56300,0.46100,-1.31300,79.47000,0.09000
041225_04.47.02.054,-0.02500,-0.00400,1.00100,0.08700,-0.12300,-0.03500,0.56000,0.45700,-1.30800,79.07000,-0.40000
041225_04.47.02.066,-0.02500,-0.00300,1.00200,0.08700,-0.10500,-0.03500,0.56200,0.46100,-1.30500,79.24000,0.17000
041225_04.47.02.078,-0.02500,-0.00300,0.99900,0.08700,-0.10500,-0.03500,0.55700,0.46300,-1.30300,79.42000,0.18000
041225_04.47.02.089,-0.02600,-0.00300,1.00200,0.08700,-0.12300,-0.01800,0.55700,0.45900,-1.30600,80.26000,0.84000
041225_04.47.02.101,-0.02500,-0.00400,1.00000,0.10500,-0.14000,-0.03500,0.55700,0.45900,-1.30600,79.07000,-1.19000
041225_04.47.02.112,-0.02700,-0.00300,1.00300,0.10500,-0.10500,-0.01800,0.55400,0.46100,-1.30800,78.64000,-0.43000
041225_04.47.02.124,-0.02500,-0.00200,0.99900,0.08700,-0.12300,0.00000,0.55400,0.46300,-1.30900,79.21000,0.57000
041225_04.47.02.136,-0.02700,-0.00300,1.00300,0.08700,-0.12300,-0.01800,0.55400,0.45900,-1.30300,79.33000,0.12000
041225_04.47.02.147,-0.02700,-0.00200,1.00300,0.10500,-0.12300,-0.01800,0.55400,0.45900,-1.30300,79.37000,0.04000
041225_04.47.02.159,-0.02400,-0.00100,0.99900,0.10500,-0.10500,-0.03500,0.55400,0.45700,-1.30900,79.33000,-0.04000
041225_04.47.02.171,-0.02700,-0.00200,1.00400,0.12300,-0.10500,-0.01800,0.55200,0.46400,-1.31100,79.14000,-0.19000
041225_04.47.02.182,-0.02600,-0.00300,1.00200,0.12300,-0.12300,0.00000,0.54900,0.46300,-1.30500,79.03000,-0.11000
041225_04.47.02.194,-0.02500,-0.00200,1.00200,0.10500,-0.10500,-0.01800,0.55400,0.46000,-1.31300,78.68000,-0.35000
041225_04.47.02.206,-0.02600,-0.00200,1.00300,0.10500,-0.12300,0.00000,0.55400,0.46000,-1.31300,79.66000,0.98000
041225_04.47.02.217,-0.02500,-0.00100,1.00000,0.12300,-0.14000,-0.01800,0.55900,0.45700,-1.31100,79.14000,-0.52000
041225_04.47.02.229,-0.02600,-0.00400,1.00400,0.10500,-0.14000,-0.03500,0.56200,0.45600,-1.30700,78.92000,-0.22000
041225_04.47.02.240,-0.02600,-0.00200,1.00300,0.08700,-0.12300,-0.01800,0.56300,0.46100,-1.31500,79.05000,0.13000
041225_04.47.02.252,-0.02700,-0.00100,1.00600,0.08700,-0.10500,-0.01800,0.56500,0.45800,-1.30800,79.06000,0.01000
041225_04.47.02.264,-0.02400,-0.00200,1.00100,0.07000,-0.12300,-0.01800,0.56500,0.45800,-1.30800,78.79000,-0.27000
041225_04.47.02.275,-0.02700,-0.00300,1.00500,0.07000,-0.12300,-0.01800,0.56700,0.45800,-1.30800,78.84000,0.05000
041225_04.47.02.287,-0.02600,-0.00200,1.00400,0.07000,-0.15700,-0.01800,0.56600,0.45600,-1.31300,79.12000,0.28000
041225_04.47.02.299,-0.02400,-0.00200,1.00200,0.07000,-0.14000,-0.03500,0.57000,0.46100,-1.30800,78.15000,-0.97000
041225_04.47.02.310,-0.02500,-0.00300,1.00400,0.10500,-0.12300,-0.03500,0.57000,0.46100,-1.30800,78.87000,0.72000
041225_04.47.02.322,-0.02500,-0.00200,1.00400,0.07000,-0.14000,-0.01800,0.56400,0.45800,-1.31800,79.35000,0.48000
041225_04.47.02.334,-0.02400,-0.00400,1.00300,0.08700,-0.14000,-0.03500,0.56200,0.45900,-1.30800,78.76000,-0.59000
041225_04.47.02.345,-0.02600,-0.00300,1.00500,0.08700,-0.12300,-0.01800,0.56900,0.46000,-1.30600,79.11000,0.35000
041225_04.47.02.357,-0.02400,-0.00200,1.00100,0.08700,-0.14000,-0.05300,0.56100,0.45700,-1.31000,78.81000,-0.30000
041225_04.47.02.369,-0.02500,-0.00400,1.00300,0.08700,-0.12300,-0.03500,0.56100,0.45700,-1.31000,79.03000,0.22000
041225_04.47.02.380,-0.02500,-0.00400,1.00200,0.08700,-0.14000,-0.03500,0.55800,0.45900,-1.30900,78.36000,-0.67000
041225_04.47.02.392,-0.02400,-0.00400,1.00000,0.12300,-0.12300,-0.03500,0.56000,0.45700,-1.30400,79.45000,1.09000
041225_04.47.02.404,-0.02300,-0.00300,1.00000,0.07000,-0.14000,-0.03500,0.55300,0.45900,-1.31200,78.96000,-0.49000
041225_04.47.02.415,-0.02500,-0.00400,1.00100,0.07000,-0.12300,-0.01800,0.55300,0.45600,-1.30400,78.89000,-0.07000
041225_04.47.02.427,-0.02400,-0.00400,1.00300,0.07000,-0.12300,-0.05300,0.54900,0.45600,-1.30400,78.56000,-0.33000
041225_04.47.02.438,-0.02400,-0.00200,0.99900,0.07000,-0.14000,-0.01800,0.54900,0.45700,-1.30500,79.37000,0.81000
041225_04.47.02.450,-0.02500,-0.00400,1.00200,0.08700,-0.10500,-0.01800,0.55000,0.45800,-1.30200,78.95000,-0.42000
041225_04.47.02.462,-0.02300,-0.00400,1.00100,0.08700,-0.14000,-0.03500,0.55200,0.45700,-1.30000,79.20000,0.25000
041225_04.47.02.473,-0.02400,-0.00200,1.00100,0.08700,-0.14000,-0.01800,0.55200,0.45700,-1.30000,79.03000,-0.17000
041225_04.47.02.485,-0.02300,-0.00400,1.00200,0.10500,-0.10500,-0.03500,0.55700,0.45900,-1.30400,78.97000,-0.06000
041225_04.47.02.497,-0.02300,-0.00300,0.99900,0.07000,-0.12300,0.00000,0.55700,0.45900,-1.30800,78.69000,-0.28000
041225_04.47.02.508,-0.02600,-0.00400,1.00400,0.07000,-0.12300,-0.03500,0.56000,0.45200,-1.30600,78.24000,-0.45000
041225_04.47.02.520,-0.02400,-0.00200,1.00200,0.08700,-0.12300,-0.05300,0.56400,0.46100,-1.30700,78.35000,0.11000
041225_04.47.02.532,-0.02500,-0.00200,1.00100,0.12300,-0.12300,-0.03500,0.56400,0.46100,-1.30700,79.53000,1.18000
041225_04.47.02.543,-0.02500,-0.00300,1.00400,0.10500,-0.10500,-0.01800,0.56200,0.46100,-1.30900,79.01000,-0.52000
041225_04.47.02.555,-0.02300,-0.00200,1.00100,0.12300,-0.14000,-0.01800,0.57100,0.45800,-1.30900,78.57000,-0.44000
041225_04.47.02.567,-0.02500,-0.00300,1.00400,0.08700,-0.12300,-0.01800,0.56700,0.45900,-1.31700,79.07000,0.50000
041225_04.47.02.578,-0.02500,-0.00400,1.00100,0.07000,-0.12300,-0.01800,0.56700,0.45600,-1.30600,78.87000,-0.20000
041225_04.47.02.590,-0.02400,-0.00300,1.00500,0.05300,-0.12300,-0.01800,0.56900,0.45600,-1.30600,78.97000,0.10000
041225_04.47.02.602,-0.02500,-0.00200,1.00100,0.07000,-0.10500,-0.01800,0.56700,0.45700,-1.31300,79.19000,0.22000
041225_04.47.02.613,-0.02400,-0.00100,1.00200,0.08700,-0.12300,-0.01800,0.55600,0.46000,-1.31200,79.06000,-0.13000
041225_04.47.02.625,-0.02600,-0.00300,1.00400,0.08700,-0.12300,-0.01800,0.56400,0.45800,-1.30400,79.18000,0.12000
041225_04.47.02.636,-0.02500,-0.00300,1.00100,0.07000,-0.10500,-0.01800,0.56400,0.45800,-1.30400,78.79000,-0.39000
041225_04.47.02.648,-0.02600,-0.00200,1.00300,0.08700,-0.08700,-0.03500,0.55800,0.45900,-1.31000,79.14000,0.35000
041225_04.47.02.660,-0.02500,-0.00300,1.00400,0.08700,-0.10500,-0.03500,0.55800,0.45800,-1.31200,79.13000,-0.01000
041225_04.47.02.671,-0.02500,-0.00200,1.00100,0.07000,-0.08700,-0.03500,0.55800,0.46000,-1.30700,78.75000,-0.38000
041225_04.47.02.683,-0.02500,-0.00300,1.00400,0.10500,-0.10500,-0.05300,0.55400,0.46200,-1.31200,78.88000,0.13000
041225_04.47.02.695,-0.02500,-0.00200,1.00200,0.10500,-0.12300,-0.03500,0.55400,0.46200,-1.31200,78.69000,-0.19000
041225_04.47.02.706,-0.02600,-0.00400,1.00400,0.10500,-0.10500,-0.01800,0.55400,0.45800,-1.30600,79.24000,0.55000
041225_04.47.02.718,-0.02600,-0.00400,1.00200,0.07000,-0.12300,-0.01800,0.54700,0.45400,-1.31600,78.88000,-0.36000
041225_04.47.02.729,-0.02500,-0.00200,1.00500,0.08700,-0.10500,-0.03500,0.54800,0.46000,-1.31300,78.73000,-0.15000
041225_04.47.02.741,-0.02300,-0.00300,1.00300,0.08700,-0.10500,-0.03500,0.54800,0.46300,-1.31200,79.19000,0.46000
041225_04.47.02.753,-0.02500,-0.00100,1.00300,0.07000,-0.12300,-0.01800,0.55400,0.46300,-1.31200,79.22000,0.03000
041225_04.47.02.764,-0.02600,-0.00300,1.00300,0.08700,-0.12300,-0.05300,0.54900,0.46100,-1.31100,78.92000,-0.30000
041225_04.47.02.776,-0.02400,-0.00300,1.00000,0.08700,-0.12300,-0.03500,0.55600,0.46200,-1.31300,79.45000,0.53000
041225_04.47.02.788,-0.02600,-0.00400,1.00400,0.08700,-0.12300,-0.03500,0.56200,0.46100,-1.31000,78.59000,-0.86000
041225_04.47.02.799,-0.02300,-0.00300,1.00200,0.08700,-0.14000,-0.03500,0.56200,0.46100,-1.31000,79.28000,0.69000
041225_04.47.02.811,-0.02500,-0.00300,1.00000,0.07000,-0.14000,-0.03500,0.56400,0.46000,-1.30700,78.61000,-0.67000
041225_04.47.02.823,-0.02400,-0.00400,1.00400,0.07000,-0.12300,-0.03500,0.56300,0.45900,-1.31100,79.05000,0.44000
041225_04.47.02.834,-0.02500,-0.00200,1.00000,0.07000,-0.12300,-0.01800,0.56700,0.46000,-1.31000,79.19000,0.14000
041225_04.47.02.846,-0.02500,-0.00300,1.00300,0.08700,-0.10500,-0.03500,0.57000,0.46000,-1.31200,78.39000,-0.80000
041225_04.47.02.858,-0.02600,-0.00300,1.00300,0.08700,-0.12300,-0.03500,0.57000,0.46000,-1.31200,78.82000,0.43000
041225_04.47.02.869,-0.02400,-0.00400,0.99900,0.10500,-0.12300,-0.01800,0.56400,0.45700,-1.30900,78.82000,0.00000
041225_04.47.02.881,-0.02600,-0.00300,1.00400,0.08700,-0.12300,-0.03500,0.56500,0.45700,-1.30900,78.83000,0.01000
041225_04.47.02.892,-0.02400,-0.00200,1.00200,0.08700,-0.12300,0.00000,0.56600,0.45700,-1.30800,79.33000,0.50000
041225_04.47.02.904,-0.02500,-0.00400,1.00300,0.08700,-0.12300,-0.01800,0.56600,0.46000,-1.30700,79.44000,0.11000
041225_04.47.02.916,-0.02400,-0.00200,0.99900,0.10500,-0.12300,-0.01800,0.56300,0.46000,-1.30700,78.46000,-0.98000
041225_04.47.02.927,-0.02600,-0.00400,1.00400,0.12300,-0.12300,-0.03500,0.55800,0.46300,-1.30600,79.19000,0.73000
041225_04.47.02.939,-0.02500,-0.00300,1.00200,0.10500,-0.14000,-0.01800,0.56000,0.46500,-1.30800,78.85000,-0.34000
041225_04.47.02.951,-0.02500,-0.00300,1.00100,0.08700,-0.14000,-0.01800,0.55800,0.46000,-1.30400,78.98000,0.13000
041225_04.47.02.962,-0.02500,-0.00400,1.00400,0.08700,-0.12300,-0.01800,0.55800,0.46000,-1.30400,79.51000,0.53000
041225_04.47.02.974,-0.02400,-0.00200,1.00100,0.12300,-0.14000,-0.03500,0.55100,0.45800,-1.30100,78.64000,-0.87000
041225_04.47.02.986,-0.02400,-0.00300,1.00400,0.07000,-0.14000,-0.03500,0.55100,0.45900,-1.30100,79.04000,0.40000
041225_04.47.02.997,-0.02500,-0.00300,1.00200,0.08700,-0.14000,-0.01800,0.54800,0.46100,-1.30400,78.73000,-0.31000
041225_04.47.03.009,-0.02400,-0.00400,1.00000,0.10500,-0.12300,-0.01800,0.54800,0.45900,-1.31500,79.13000,0.40000
041225_04.47.03.020,-0.02500,-0.00300,1.00500,0.10500,-0.14000,0.00000,0.54800,0.45900,-1.31500,78.55000,-0.58000
041225_04.47.03.032,-0.02300,-0.00200,1.00000,0.10500,-0.12300,-0.03500,0.54900,0.46100,-1.31600,79.17000,0.62000
041225_04.47.03.044,-0.02200,-0.00200,1.00200,0.08700,-0.12300,-0.03500,0.55400,0.45900,-1.30600,78.87000,-0.30000
041225_04.47.03.055,-0.02500,-0.00200,1.00000,0.07000,-0.10500,-0.03500,0.55800,0.45900,-1.31200,78.20000,-0.67000
041225_04.47.03.067,-0.02600,-0.00300,1.00300,0.07000,-0.12300,-0.03500,0.55800,0.45900,-1.30500,78.80000,0.60000
041225_04.47.03.078,-0.02400,-0.00300,1.00200,0.08700,-0.12300,-0.01800,0.55700,0.45900,-1.30500,78.57000,-0.23000
041225_04.47.03.090,-0.02500,-0.00300,1.00100,0.05300,-0.12300,-0.01800,0.56100,0.45800,-1.31100,78.75000,0.18000
041225_04.47.03.102,-0.02600,-0.00400,1.00400,0.08700,-0.10500,-0.01800,0.55400,0.46200,-1.31100,79.81000,1.06000
041225_04.47.03.113,-0.02400,-0.00200,1.00100,0.10500,-0.10500,-0.03500,0.56300,0.45900,-1.31400,78.70000,-1.11000
041225_04.47.03.125,-0.02500,-0.00200,1.00400,0.12300,-0.10500,-0.01800,0.56300,0.45900,-1.31400,78.71000,0.01000
041225_04.47.03.137,-0.02400,-0.00300,1.00200,0.08700,-0.10500,-0.03500,0.56800,0.46000,-1.31200,78.84000,0.13000
041225_04.47.03.148,-0.02400,-0.00200,1.00100,0.08700,-0.08700,-0.01800,0.56800,0.45800,-1.31200,79.09000,0.25000
041225_04.47.03.160,-0.02600,-0.00200,1.00500,0.10500,-0.12300,-0.01800,0.56000,0.45600,-1.31100,79.31000,0.22000
041225_04.47.03.172,-0.02500,-0.00200,1.00100,0.08700,-0.12300,-0.03500,0.56600,0.45800,-1.30600,78.40000,-0.91000
041225_04.47.03.183,-0.02500,-0.00200,1.00200,0.10500,-0.12300,-0.03500,0.56600,0.45800,-1.30600,78.76000,0.36000
041225_04.47.03.195,-0.02600,-0.00300,1.00200,0.10500,-0.12300,-0.01800,0.56100,0.46200,-1.30900,78.96000,0.20000
041225_04.47.03.206,-0.02400,-0.00300,1.00100,0.10500,-0.10500,-0.01800,0.56000,0.46400,-1.31000,79.09000,0.13000
041225_04.47.03.218,-0.02500,-0.00500,1.00100,0.10500,-0.12300,-0.01800,0.56600,0.45900,-1.31000,79.02000,-0.07000
041225_04.47.03.230,-0.02500,-0.00300,1.00200,0.10500,-0.12300,-0.01800,0.56600,0.45900,-1.30100,78.36000,-0.66000
