t,ax,ay,az,gx,gy,gz,mx,my,mz,altitude,ral
20:51:35:368,0.018,-0.010,0.986,0.002,-0.001,-0.001,0.018,0.650,-0.484,190.77,0.000000
20:51:35:370,0.018,-0.009,0.985,0.001,-0.002,-0.000,0.018,0.652,-0.487,191.22,0.450000
20:51:35:371,0.017,-0.010,0.984,0.001,-0.002,-0.001,0.017,0.652,-0.485,190.43,-0.790000
20:51:35:373,0.018,-0.011,0.984,0.001,-0.002,-0.000,0.017,0.652,-0.485,190.52,0.090000
20:51:35:374,0.017,-0.010,0.985,0.001,-0.002,-0.000,0.019,0.649,-0.486,190.30,-0.220000
20:51:35:375,0.018,-0.010,0.983,0.001,-0.002,-0.001,0.015,0.649,-0.491,190.75,0.450000
20:51:35:377,0.018,-0.009,0.985,0.001,-0.002,-0.001,0.018,0.649,-0.499,190.75,0.000000
20:51:35:378,0.018,-0.010,0.984,0.001,-0.001,-0.001,0.016,0.649,-0.498,190.54,-0.210000
20:51:35:379,0.018,-0.010,0.985,0.001,-0.002,-0.001,0.016,0.651,-0.501,190.49,-0.050000
20:51:35:381,0.017,-0.009,0.985,0.001,-0.002,-0.001,0.013,0.645,-0.499,190.89,0.400000
20:51:35:382,0.018,-0.009,0.985,0.001,-0.002,-0.001,0.013,0.645,-0.499,190.93,0.040000
20:51:35:383,0.017,-0.010,0.984,0.001,-0.002,-0.001,0.019,0.649,-0.495,190.73,-0.200000
20:51:35:385,0.017,-0.010,0.983,0.001,-0.002,-0.001,0.014,0.650,-0.495,190.51,-0.220000
20:51:35:386,0.018,-0.009,0.985,0.001,-0.002,-0.001,0.016,0.653,-0.502,190.71,0.200000
20:51:35:387,0.016,-0.009,0.985,0.001,-0.002,-0.001,0.021,0.649,-0.493,191.09,0.380000
20:51:35:389,0.019,-0.010,0.984,0.001,-0.001,-0.001,0.018,0.654,-0.493,190.82,-0.270000
20:51:35:390,0.018,-0.009,0.984,0.001,-0.002,-0.001,0.018,0.652,-0.496,190.65,-0.170000
20:51:35:391,0.019,-0.010,0.985,0.001,-0.002,-0.001,0.018,0.652,-0.498,190.24,-0.410000
20:51:35:393,0.017,-0.010,0.986,0.001,-0.002,-0.001,0.021,0.650,-0.498,190.97,0.730000
20:51:35:394,0.017,-0.010,0.984,0.001,-0.002,-0.001,0.019,0.648,-0.497,190.97,0.000000
20:51:35:395,0.018,-0.010,0.984,0.001,-0.002,-0.001,0.016,0.650,-0.494,190.02,-0.950000
20:51:35:397,0.019,-0.010,0.985,0.001,-0.002,-0.001,0.024,0.652,-0.497,190.75,0.730000
20:51:35:398,0.019,-0.011,0.984,0.001,-0.002,-0.001,0.014,0.655,-0.492,190.79,0.040000
20:51:35:399,0.017,-0.010,0.985,0.001,-0.002,-0.001,0.018,0.652,-0.494,190.51,-0.280000
20:51:35:401,0.018,-0.010,0.985,0.001,-0.002,-0.001,0.018,0.649,-0.497,190.58,0.070000
20:51:35:402,0.018,-0.010,0.986,0.001,-0.001,-0.000,0.022,0.649,-0.497,190.33,-0.250000
20:51:35:403,0.017,-0.010,0.985,0.001,-0.002,-0.001,0.018,0.650,-0.500,190.52,0.190000
20:51:35:405,0.018,-0.009,0.986,0.002,-0.002,-0.001,0.018,0.650,-0.497,190.56,0.040000
20:51:35:406,0.017,-0.010,0.985,0.001,-0.002,-0.001,0.022,0.653,-0.497,190.98,0.420000
20:51:35:407,0.016,-0.011,0.984,0.001,-0.001,-0.001,0.016,0.650,-0.503,190.76,-0.220000
20:51:35:409,0.017,-0.010,0.983,0.000,-0.001,-0.001,0.018,0.650,-0.504,191.24,0.480000
20:51:35:410,0.018,-0.010,0.986,0.001,-0.002,-0.001,0.019,0.651,-0.499,190.86,-0.380000
20:51:35:411,0.018,-0.010,0.985,0.001,-0.002,-0.001,0.019,0.651,-0.499,190.81,-0.050000
20:51:35:413,0.017,-0.010,0.984,0.001,-0.002,-0.001,0.021,0.653,-0.494,190.97,0.160000
20:51:35:414,0.018,-0.009,0.986,0.001,-0.002,-0.001,0.014,0.649,-0.495,190.98,0.010000
20:51:35:415,0.018,-0.010,0.984,0.001,-0.002,-0.001,0.016,0.648,-0.500,190.57,-0.410000
20:51:35:417,0.017,-0.010,0.984,0.001,-0.002,-0.000,0.014,0.651,-0.494,190.67,0.100000
20:51:35:418,0.018,-0.010,0.986,0.001,-0.001,-0.001,0.020,0.650,-0.491,190.40,-0.270000
20:51:35:419,0.017,-0.010,0.985,0.001,-0.001,-0.001,0.016,0.649,-0.490,191.07,0.670000
20:51:35:421,0.017,-0.010,0.984,0.001,-0.002,-0.001,0.016,0.649,-0.490,190.65,-0.420000
20:51:35:422,0.017,-0.011,0.982,0.001,-0.001,-0.000,0.017,0.652,-0.497,190.75,0.100000
20:51:35:424,0.019,-0.010,0.985,0.001,-0.001,-0.001,0.020,0.651,-0.491,191.23,0.480000
20:51:35:425,0.018,-0.009,0.985,0.001,-0.002,-0.001,0.014,0.648,-0.495,190.45,-0.780000
20:51:35:426,0.018,-0.009,0.983,0.001,-0.002,-0.000,0.019,0.647,-0.494,190.34,-0.110000
20:51:35:427,0.019,-0.009,0.985,0.001,-0.002,-0.001,0.015,0.651,-0.497,190.85,0.510000
20:51:35:429,0.017,-0.010,0.986,0.001,-0.001,-0.001,0.018,0.650,-0.489,190.03,-0.820000
20:51:35:430,0.017,-0.010,0.984,0.001,-0.002,-0.001,0.018,0.650,-0.489,190.91,0.880000
20:51:35:431,0.018,-0.011,0.983,0.001,-0.001,-0.001,0.023,0.650,-0.490,190.36,-0.550000
20:51:35:432,0.018,-0.010,0.985,0.001,-0.002,-0.001,0.021,0.651,-0.490,190.41,0.050000
20:51:35:433,0.017,-0.009,0.984,0.001,-0.001,-0.001,0.019,0.647,-0.487,191.03,0.620000
20:51:35:434,0.018,-0.010,0.984,0.001,-0.002,-0.001,0.015,0.650,-0.489,190.79,-0.240000
20:51:35:435,0.018,-0.009,0.985,0.001,-0.002,-0.000,0.018,0.650,-0.490,190.91,0.120000
20:51:35:436,0.017,-0.010,0.985,0.001,-0.002,-0.001,0.018,0.649,-0.489,190.67,-0.240000
20:51:35:437,0.018,-0.011,0.984,0.001,-0.002,-0.001,0.018,0.649,-0.489,190.94,0.270000
20:51:35:438,0.018,-0.009,0.984,0.001,-0.002,-0.001,0.016,0.647,-0.488,190.66,-0.280000
20:51:35:439,0.018,-0.010,0.985,0.001,-0.002,-0.001,0.016,0.651,-0.491,191.07,0.410000
20:51:35:440,0.017,-0.011,0.985,0.001,-0.002,-0.001,0.017,0.648,-0.491,190.85,-0.220000
20:51:35:441,0.019,-0.010,0.985,0.001,-0.002,-0.001,0.013,0.647,-0.487,190.21,-0.640000
20:51:35:441,0.018,-0.009,0.984,0.001,-0.001,-0.001,0.017,0.648,-0.497,190.71,0.500000
20:51:35:443,0.018,-0.010,0.985,0.001,-0.002,-0.001,0.020,0.652,-0.494,190.63,-0.080000
20:51:35:444,0.017,-0.009,0.984,0.001,-0.001,-0.001,0.020,0.652,-0.494,190.49,-0.140000
20:51:35:445,0.019,-0.010,0.985,0.001,-0.002,-0.001,0.010,0.648,-0.495,190.34,-0.150000
20:51:35:446,0.018,-0.009,0.986,0.001,-0.001,-0.001,0.014,0.649,-0.493,191.19,0.850000
20:51:35:447,0.019,-0.010,0.985,0.001,-0.001,-0.001,0.018,0.649,-0.494,190.96,-0.230000
20:51:35:449,0.018,-0.011,0.983,0.001,-0.001,-0.000,0.019,0.651,-0.484,190.69,-0.270000
20:51:35:450,0.017,-0.010,0.985,0.001,-0.002,-0.001,0.018,0.649,-0.486,190.51,-0.180000
20:51:35:450,0.018,-0.010,0.985,0.001,-0.002,-0.001,0.018,0.649,-0.491,191.04,0.530000
20:51:35:451,0.018,-0.010,0.984,0.001,-0.002,-0.001,0.018,0.649,-0.491,190.80,-0.240000
20:51:35:452,0.019,-0.010,0.984,0.001,-0.001,-0.001,0.017,0.652,-0.495,191.12,0.320000
20:51:35:452,0.017,-0.010,0.985,0.001,-0.001,-0.001,0.017,0.650,-0.499,190.75,-0.370000
20:51:35:453,0.018,-0.009,0.987,0.001,-0.002,-0.001,0.014,0.649,-0.497,190.74,-0.010000
20:51:35:454,0.019,-0.009,0.983,0.001,-0.002,-0.001,0.014,0.649,-0.495,190.70,-0.040000
20:51:35:455,0.018,-0.010,0.985,0.001,-0.001,-0.001,0.017,0.652,-0.494,190.66,-0.040000
20:51:35:456,0.018,-0.010,0.985,0.001,-0.001,-0.001,0.016,0.650,-0.490,190.88,0.220000
20:51:35:457,0.018,-0.010,0.984,0.001,-0.001,-0.001,0.016,0.650,-0.490,190.75,-0.130000
20:51:35:458,0.018,-0.010,0.985,0.001,-0.002,-0.000,0.019,0.649,-0.493,191.09,0.340000
20:51:35:459,0.017,-0.009,0.984,0.001,-0.002,-0.001,0.016,0.651,-0.493,190.51,-0.580000
20:51:35:460,0.018,-0.008,0.984,0.001,-0.002,-0.001,0.016,0.651,-0.494,191.14,0.630000
20:51:35:461,0.016,-0.011,0.985,0.001,-0.002,-0.001,0.020,0.649,-0.491,191.49,0.350000
20:51:35:463,0.017,-0.011,0.984,0.001,-0.002,-0.001,0.021,0.650,-0.490,190.88,-0.610000
20:51:35:463,0.019,-0.010,0.984,0.001,-0.002,-0.001,0.021,0.652,-0.492,190.01,-0.870000
20:51:35:464,0.019,-0.010,0.984,0.001,-0.002,-0.001,0.021,0.652,-0.490,190.23,0.220000
20:51:35:465,0.017,-0.011,0.984,0.001,-0.002,-0.001,0.020,0.653,-0.490,190.65,0.420000
20:51:35:466,0.018,-0.010,0.984,0.001,-0.002,-0.001,0.017,0.648,-0.494,190.78,0.130000
20:51:35:467,0.019,-0.010,0.985,0.001,-0.002,-0.001,0.020,0.649,-0.496,190.50,-0.280000
20:51:35:468,0.018,-0.009,0.985,0.001,-0.001,-0.001,0.017,0.650,-0.495,190.09,-0.410000
20:51:35:469,0.017,-0.009,0.984,0.001,-0.002,-0.000,0.024,0.650,-0.496,190.40,0.310000
20:51:35:470,0.018,-0.010,0.985,0.001,-0.002,-0.001,0.019,0.647,-0.490,190.23,-0.170000
20:51:35:471,0.018,-0.010,0.985,0.001,-0.002,-0.001,0.019,0.647,-0.488,191.03,0.800000
20:51:35:472,0.018,-0.010,0.984,0.001,-0.002,-0.001,0.018,0.647,-0.488,190.53,-0.500000
20:51:35:473,0.018,-0.010,0.985,0.001,-0.002,-0.001,0.016,0.650,-0.496,190.24,-0.290000
20:51:35:474,0.017,-0.010,0.985,0.001,-0.002,-0.001,0.020,0.647,-0.497,190.61,0.370000
20:51:35:475,0.018,-0.010,0.985,0.001,-0.002,-0.001,0.019,0.647,-0.493,191.11,0.500000
20:51:35:476,0.019,-0.009,0.985,0.001,-0.002,-0.001,0.016,0.649,-0.494,190.67,-0.440000
20:51:35:477,0.017,-0.010,0.985,0.001,-0.002,-0.001,0.019,0.648,-0.501,190.41,-0.260000
20:51:35:478,0.017,-0.010,0.985,0.002,-0.002,-0.001,0.020,0.651,-0.492,191.78,1.370000
20:51:35:479,0.018,-0.009,0.984,0.001,-0.002,-0.001,0.020,0.651,-0.492,190.02,-1.760000
20:51:35:480,0.018,-0.009,0.985,0.001,-0.001,-0.001,0.021,0.652,-0.494,190.64,0.620000
20:51:35:481,0.019,-0.010,0.984,0.001,-0.001,-0.000,0.019,0.652,-0.494,190.45,-0.190000
20:51:35:482,0.018,-0.009,0.984,0.001,-0.002,-0.001,0.020,0.650,-0.495,190.53,0.080000
20:51:35:483,0.018,-0.010,0.984,0.001,-0.002,-0.001,0.019,0.648,-0.495,190.38,-0.150000
20:51:35:483,0.018,-0.010,0.986,0.001,-0.001,-0.001,0.020,0.654,-0.496,190.41,0.030000
20:51:35:484,0.017,-0.010,0.985,0.001,-0.002,-0.001,0.022,0.651,-0.498,190.58,0.170000
20:51:35:485,0.019,-0.009,0.985,0.001,-0.001,-0.001,0.022,0.651,-0.498,190.19,-0.390000
20:51:35:486,0.020,-0.010,0.985,0.001,-0.002,-0.001,0.020,0.651,-0.495,190.05,-0.140000
20:51:35:487,0.018,-0.009,0.984,0.001,-0.002,-0.001,0.023,0.651,-0.491,190.83,0.780000
20:51:35:488,0.018,-0.010,0.983,0.001,-0.002,-0.000,0.019,0.652,-0.488,191.45,0.620000
20:51:35:489,0.017,-0.009,0.984,0.001,-0.002,-0.001,0.015,0.647,-0.486,190.43,-1.020000
20:51:35:490,0.018,-0.010,0.984,0.001,-0.002,-0.000,0.021,0.648,-0.489,190.45,0.020000
20:51:35:491,0.017,-0.010,0.985,0.001,-0.002,-0.000,0.020,0.650,-0.494,190.34,-0.110000
20:51:35:492,0.017,-0.010,0.985,0.001,-0.002,-0.001,0.020,0.650,-0.494,190.83,0.490000
20:51:35:493,0.017,-0.009,0.985,0.001,-0.002,-0.000,0.019,0.647,-0.497,190.79,-0.040000
20:51:35:494,0.017,-0.009,0.985,0.001,-0.001,-0.001,0.022,0.650,-0.497,190.18,-0.610000
20:51:35:494,0.018,-0.010,0.983,0.001,-0.001,-0.001,0.020,0.653,-0.498,190.07,-0.110000
20:51:35:495,0.018,-0.009,0.986,0.001,-0.002,-0.001,0.020,0.650,-0.497,190.45,0.380000
20:51:35:496,0.018,-0.010,0.984,0.001,-0.001,-0.001,0.024,0.651,-0.495,191.59,1.140000
20:51:35:497,0.018,-0.010,0.984,0.001,-0.001,-0.001,0.023,0.647,-0.499,191.05,-0.540000
20:51:35:498,0.018,-0.010,0.985,0.001,-0.002,-0.000,0.023,0.647,-0.499,190.36,-0.690000
20:51:35:499,0.018,-0.010,0.986,0.001,-0.001,-0.001,0.021,0.647,-0.492,190.71,0.350000
20:51:35:500,0.018,-0.010,0.986,0.001,-0.001,-0.001,0.019,0.650,-0.498,190.32,-0.390000
20:51:35:501,0.018,-0.010,0.985,0.001,-0.002,-0.001,0.021,0.652,-0.499,189.97,-0.350000
20:51:35:502,0.018,-0.009,0.986,0.001,-0.001,-0.001,0.020,0.652,-0.501,190.78,0.810000
20:51:35:503,0.019,-0.010,0.984,0.001,-0.002,-0.001,0.020,0.653,-0.497,190.90,0.120000
20:51:35:504,0.018,-0.009,0.984,0.001,-0.002,-0.001,0.022,0.649,-0.495,190.31,-0.590000
20:51:35:505,0.018,-0.010,0.984,0.001,-0.002,-0.001,0.022,0.649,-0.495,190.80,0.490000
20:51:35:506,0.017,-0.010,0.985,0.001,-0.001,-0.001,0.022,0.651,-0.495,190.92,0.120000
20:51:35:507,0.018,-0.010,0.984,0.001,-0.001,-0.001,0.022,0.656,-0.488,190.49,-0.430000
20:51:35:508,0.017,-0.010,0.985,0.001,-0.001,-0.001,0.020,0.648,-0.492,190.73,0.240000
20:51:35:508,0.017,-0.008,0.985,0.001,-0.002,-0.001,0.020,0.649,-0.491,190.29,-0.440000
20:51:35:509,0.018,-0.010,0.985,0.001,-0.002,-0.001,0.021,0.650,-0.495,190.60,0.310000
20:51:35:510,0.017,-0.009,0.985,0.001,-0.002,-0.000,0.022,0.649,-0.496,190.01,-0.590000
20:51:35:511,0.019,-0.009,0.984,0.001,-0.002,-0.001,0.022,0.649,-0.496,190.71,0.700000
20:51:35:512,0.017,-0.011,0.984,0.001,-0.001,-0.001,0.020,0.650,-0.500,190.65,-0.060000
20:51:35:513,0.017,-0.010,0.985,0.001,-0.002,-0.001,0.017,0.651,-0.498,190.17,-0.480000
20:51:35:514,0.017,-0.010,0.984,0.001,-0.002,-0.001,0.020,0.652,-0.500,191.03,0.860000
20:51:35:515,0.018,-0.010,0.985,0.001,-0.001,-0.001,0.020,0.650,-0.498,190.50,-0.530000
20:51:35:516,0.017,-0.008,0.984,0.001,-0.002,-0.000,0.019,0.650,-0.496,190.44,-0.060000
20:51:35:517,0.018,-0.009,0.985,0.001,-0.001,-0.001,0.022,0.651,-0.494,190.59,0.150000
20:51:35:518,0.017,-0.010,0.985,0.001,-0.001,-0.001,0.022,0.651,-0.494,189.88,-0.710000
20:51:35:519,0.018,-0.010,0.985,0.001,-0.001,-0.001,0.020,0.647,-0.495,190.20,0.320000
20:51:35:520,0.018,-0.010,0.984,0.001,-0.002,-0.001,0.019,0.651,-0.494,190.72,0.520000
20:51:35:521,0.019,-0.011,0.984,0.001,-0.001,-0.001,0.022,0.651,-0.494,190.57,-0.150000
20:51:35:522,0.018,-0.010,0.985,0.001,-0.002,-0.001,0.018,0.648,-0.492,190.34,-0.230000
20:51:35:522,0.018,-0.011,0.983,0.001,-0.002,-0.001,0.022,0.650,-0.494,190.44,0.100000
20:51:35:523,0.018,-0.010,0.985,0.001,-0.002,-0.000,0.020,0.651,-0.493,190.59,0.150000
20:51:35:524,0.016,-0.010,0.984,0.001,-0.002,0.000,0.020,0.651,-0.494,190.75,0.160000
20:51:35:525,0.017,-0.010,0.985,0.001,-0.001,-0.001,0.024,0.651,-0.494,190.83,0.080000
20:51:35:526,0.016,-0.009,0.984,0.001,-0.002,-0.001,0.020,0.650,-0.494,190.51,-0.320000
20:51:35:527,0.017,-0.009,0.985,0.001,-0.002,-0.001,0.024,0.653,-0.488,190.66,0.150000
20:51:35:528,0.018,-0.010,0.984,0.001,-0.002,-0.001,0.024,0.654,-0.493,190.72,0.060000
20:51:35:529,0.017,-0.010,0.985,0.001,-0.002,-0.000,0.023,0.654,-0.487,191.06,0.340000
20:51:35:530,0.017,-0.009,0.986,0.001,-0.002,-0.000,0.021,0.652,-0.491,190.84,-0.220000
20:51:35:531,0.017,-0.010,0.985,0.001,-0.001,-0.001,0.021,0.651,-0.494,190.50,-0.340000
20:51:35:532,0.018,-0.010,0.985,0.001,-0.001,-0.000,0.020,0.651,-0.494,190.50,0.000000
20:51:35:533,0.018,-0.009,0.986,0.001,-0.001,-0.000,0.019,0.650,-0.494,190.27,-0.230000
20:51:35:534,0.017,-0.010,0.986,0.001,-0.001,-0.001,0.023,0.653,-0.495,190.77,0.500000
20:51:35:535,0.016,-0.010,0.982,0.001,-0.002,-0.001,0.022,0.649,-0.495,191.44,0.670000
20:51:35:536,0.018,-0.009,0.984,0.001,-0.002,-0.001,0.020,0.650,-0.496,190.77,-0.670000
20:51:35:536,0.018,-0.010,0.984,0.000,-0.002,-0.000,0.018,0.648,-0.494,190.49,-0.280000
20:51:35:537,0.017,-0.010,0.984,0.001,-0.002,-0.001,0.019,0.651,-0.492,190.72,0.230000
20:51:35:538,0.018,-0.010,0.985,0.001,-0.002,-0.001,0.019,0.651,-0.492,190.73,0.010000
20:51:35:539,0.017,-0.011,0.987,0.001,-0.001,-0.001,0.021,0.650,-0.497,190.12,-0.610000
20:51:35:540,0.018,-0.009,0.985,0.001,-0.001,-0.001,0.020,0.652,-0.494,190.44,0.320000
20:51:35:541,0.018,-0.010,0.985,0.001,-0.002,-0.001,0.020,0.648,-0.490,190.82,0.380000
20:51:35:542,0.018,-0.009,0.986,0.001,-0.001,-0.001,0.015,0.648,-0.490,190.77,-0.050000
20:51:35:543,0.017,-0.010,0.986,0.001,-0.002,-0.001,0.017,0.645,-0.496,190.44,-0.330000
20:51:35:544,0.016,-0.010,0.984,0.001,-0.002,-0.001,0.016,0.645,-0.496,190.30,-0.140000
20:51:35:545,0.017,-0.009,0.983,0.001,-0.002,-0.001,0.016,0.645,-0.496,190.64,0.340000
20:51:35:546,0.017,-0.010,0.984,0.001,-0.001,-0.001,0.018,0.648,-0.496,190.56,-0.080000
20:51:35:547,0.017,-0.010,0.984,0.001,-0.001,-0.001,0.016,0.648,-0.495,191.29,0.730000
20:51:35:548,0.017,-0.009,0.984,0.001,-0.002,-0.001,0.022,0.648,-0.498,190.95,-0.340000
20:51:35:548,0.018,-0.010,0.985,0.000,-0.001,-0.001,0.017,0.647,-0.495,189.98,-0.970000
20:51:35:549,0.018,-0.010,0.985,0.001,-0.002,-0.000,0.015,0.651,-0.496,190.51,0.530000
20:51:35:550,0.018,-0.009,0.986,0.001,-0.002,-0.001,0.017,0.649,-0.501,191.04,0.530000
20:51:35:551,0.018,-0.009,0.984,0.001,-0.002,-0.001,0.017,0.649,-0.501,189.83,-1.210000
20:51:35:552,0.017,-0.009,0.984,0.001,-0.001,-0.001,0.021,0.653,-0.492,190.89,1.060000
20:51:35:553,0.018,-0.009,0.984,0.001,-0.002,-0.001,0.021,0.648,-0.497,191.14,0.250000
20:51:35:554,0.018,-0.009,0.983,0.001,-0.002,-0.001,0.021,0.652,-0.497,190.08,-1.060000
20:51:35:555,0.018,-0.010,0.985,0.001,-0.002,-0.001,0.020,0.652,-0.499,190.72,0.640000
20:51:35:556,0.018,-0.010,0.985,0.001,-0.002,-0.001,0.021,0.654,-0.495,190.34,-0.380000
20:51:35:557,0.019,-0.010,0.986,0.001,-0.001,-0.001,0.024,0.650,-0.500,190.51,0.170000
20:51:35:558,0.018,-0.008,0.985,0.002,-0.002,0.000,0.024,0.650,-0.500,190.65,0.140000
20:51:35:559,0.018,-0.010,0.984,0.001,-0.001,-0.000,0.021,0.652,-0.489,191.23,0.580000
20:51:35:560,0.018,-0.010,0.985,0.001,-0.001,-0.000,0.019,0.650,-0.496,191.02,-0.210000
20:51:35:560,0.017,-0.010,0.984,0.001,-0.001,-0.001,0.018,0.654,-0.487,190.18,-0.840000
20:51:35:561,0.017,-0.011,0.983,0.001,-0.001,-0.001,0.018,0.650,-0.489,190.55,0.370000
20:51:35:562,0.018,-0.010,0.985,0.001,-0.001,-0.001,0.015,0.652,-0.490,190.07,-0.480000
20:51:35:563,0.017,-0.009,0.984,0.001,-0.002,-0.001,0.016,0.648,-0.492,190.45,0.380000
20:51:35:564,0.018,-0.009,0.985,0.001,-0.002,-0.001,0.016,0.648,-0.492,190.09,-0.360000
20:51:35:565,0.017,-0.010,0.985,0.001,-0.002,-0.001,0.021,0.655,-0.491,190.48,0.390000
20:51:35:566,0.017,-0.010,0.985,0.002,-0.002,-0.001,0.021,0.653,-0.496,190.78,0.300000
20:51:35:567,0.018,-0.010,0.984,0.001,-0.002,-0.001,0.016,0.651,-0.486,190.68,-0.100000
20:51:35:568,0.019,-0.010,0.983,0.001,-0.002,-0.001,0.019,0.652,-0.490,190.41,-0.270000
20:51:35:569,0.016,-0.010,0.986,0.001,-0.002,-0.000,0.018,0.648,-0.492,190.70,0.290000
20:51:35:570,0.017,-0.010,0.983,0.001,-0.001,-0.001,0.022,0.651,-0.490,190.38,-0.320000
20:51:35:571,0.017,-0.009,0.983,0.001,-0.001,-0.000,0.022,0.651,-0.490,190.83,0.450000
20:51:35:572,0.019,-0.010,0.985,0.001,-0.002,-0.001,0.019,0.647,-0.493,190.33,-0.500000
20:51:35:573,0.018,-0.011,0.986,0.001,-0.002,-0.000,0.017,0.654,-0.493,190.57,0.240000
20:51:35:574,0.017,-0.010,0.984,0.001,-0.002,-0.001,0.020,0.649,-0.491,189.98,-0.590000
20:51:35:574,0.019,-0.010,0.985,0.001,-0.002,-0.001,0.020,0.651,-0.488,190.93,0.950000
20:51:35:575,0.019,-0.010,0.985,0.001,-0.002,-0.001,0.018,0.651,-0.492,190.63,-0.300000
20:51:35:576,0.018,-0.010,0.984,0.001,-0.002,-0.001,0.021,0.650,-0.490,190.70,0.070000
20:51:35:577,0.016,-0.010,0.984,0.001,-0.002,-0.001,0.021,0.650,-0.489,190.84,0.140000
20:51:35:578,0.017,-0.010,0.984,0.001,-0.002,-0.001,0.023,0.647,-0.489,190.23,-0.610000
20:51:35:579,0.018,-0.011,0.985,0.001,-0.002,-0.001,0.024,0.651,-0.491,189.70,-0.530000
20:51:35:580,0.018,-0.010,0.984,0.001,-0.001,-0.001,0.020,0.646,-0.497,190.61,0.910000
20:51:35:581,0.018,-0.009,0.984,0.001,-0.002,-0.001,0.021,0.650,-0.492,190.71,0.100000
20:51:35:582,0.019,-0.009,0.985,0.001,-0.002,-0.001,0.022,0.650,-0.500,190.99,0.280000
20:51:35:583,0.017,-0.009,0.986,0.001,-0.001,-0.001,0.019,0.653,-0.496,190.62,-0.370000
20:51:35:584,0.018,-0.011,0.983,0.001,-0.002,-0.000,0.019,0.648,-0.496,190.34,-0.280000
20:51:35:585,0.017,-0.009,0.984,0.001,-0.001,-0.001,0.020,0.648,-0.496,190.77,0.430000
20:51:35:586,0.018,-0.011,0.985,0.001,-0.002,-0.001,0.021,0.648,-0.494,190.96,0.190000
20:51:35:587,0.018,-0.010,0.984,0.001,-0.001,-0.001,0.020,0.648,-0.498,191.19,0.230000
20:51:35:588,0.018,-0.010,0.985,0.001,-0.002,-0.001,0.020,0.650,-0.491,191.03,-0.160000
20:51:35:588,0.018,-0.009,0.984,0.001,-0.002,-0.001,0.021,0.649,-0.496,190.91,-0.120000
20:51:35:589,0.017,-0.010,0.985,0.001,-0.002,-0.001,0.019,0.647,-0.490,190.50,-0.410000
20:51:35:590,0.017,-0.009,0.985,0.001,-0.001,-0.001,0.017,0.647,-0.490,190.04,-0.460000
20:51:35:591,0.018,-0.010,0.985,0.001,-0.001,-0.001,0.017,0.647,-0.490,190.43,0.390000
20:51:35:592,0.017,-0.010,0.984,0.001,-0.002,-0.001,0.020,0.649,-0.495,189.99,-0.440000
20:51:35:593,0.018,-0.010,0.985,0.001,-0.002,-0.001,0.021,0.649,-0.498,190.70,0.710000
20:51:35:594,0.018,-0.010,0.984,0.001,-0.001,-0.001,0.023,0.648,-0.495,190.37,-0.330000
20:51:35:595,0.017,-0.010,0.985,0.001,-0.002,-0.001,0.022,0.651,-0.491,190.20,-0.170000
20:51:35:596,0.018,-0.010,0.985,0.001,-0.001,-0.001,0.022,0.652,-0.493,190.39,0.190000
20:51:35:597,0.017,-0.010,0.984,0.001,-0.002,-0.001,0.020,0.651,-0.491,190.73,0.340000
20:51:35:598,0.016,-0.010,0.984,0.001,-0.002,-0.001,0.020,0.651,-0.491,190.33,-0.400000
20:51:35:599,0.017,-0.010,0.986,0.001,-0.002,-0.001,0.023,0.644,-0.495,190.40,0.070000
20:51:35:600,0.019,-0.009,0.984,0.001,-0.002,-0.001,0.019,0.646,-0.491,190.04,-0.360000
20:51:35:601,0.017,-0.010,0.984,0.001,-0.002,-0.001,0.020,0.650,-0.487,191.02,0.980000
20:51:35:602,0.017,-0.010,0.984,0.001,-0.001,-0.001,0.018,0.650,-0.487,189.97,-1.050000
20:51:35:603,0.016,-0.010,0.985,0.001,-0.001,-0.001,0.017,0.647,-0.487,190.55,0.580000
20:51:35:603,0.018,-0.010,0.983,0.001,-0.002,-0.001,0.013,0.647,-0.494,190.30,-0.250000
20:51:35:604,0.018,-0.009,0.985,0.001,-0.002,-0.000,0.013,0.647,-0.494,190.85,0.550000
20:51:35:605,0.017,-0.010,0.984,0.001,-0.002,-0.001,0.015,0.650,-0.494,190.46,-0.390000
20:51:35:606,0.018,-0.010,0.985,0.001,-0.001,-0.001,0.016,0.652,-0.497,190.26,-0.200000
20:51:35:607,0.017,-0.010,0.985,0.001,-0.002,-0.001,0.019,0.650,-0.496,190.25,-0.010000
20:51:35:608,0.018,-0.009,0.985,0.001,-0.002,-0.001,0.015,0.651,-0.495,190.76,0.510000
20:51:35:609,0.018,-0.009,0.984,0.001,-0.002,-0.001,0.017,0.652,-0.491,190.42,-0.340000
20:51:35:610,0.018,-0.010,0.984,0.001,-0.002,-0.001,0.016,0.649,-0.492,190.45,0.030000
20:51:35:611,0.017,-0.010,0.984,0.001,-0.002,-0.001,0.016,0.649,-0.492,191.07,0.620000
20:51:35:612,0.018,-0.010,0.984,0.001,-0.002,-0.001,0.015,0.644,-0.488,190.44,-0.630000
20:51:35:613,0.017,-0.010,0.985,0.001,-0.002,-0.001,0.021,0.644,-0.494,190.64,0.200000
20:51:35:614,0.018,-0.010,0.984,0.001,-0.002,-0.001,0.022,0.648,-0.495,190.16,-0.480000
20:51:35:615,0.017,-0.009,0.984,0.001,-0.002,-0.001,0.017,0.647,-0.494,190.76,0.600000
20:51:35:616,0.016,-0.010,0.985,0.001,-0.002,-0.001,0.020,0.649,-0.495,190.37,-0.390000
20:51:35:617,0.017,-0.009,0.986,0.001,-0.002,-0.001,0.018,0.641,-0.493,190.39,0.020000
20:51:35:618,0.018,-0.010,0.984,0.001,-0.002,-0.001,0.018,0.641,-0.493,191.26,0.870000
20:51:35:618,0.019,-0.009,0.984,0.001,-0.002,-0.001,0.016,0.650,-0.495,190.34,-0.920000
20:51:35:619,0.018,-0.009,0.983,0.001,-0.002,-0.001,0.018,0.649,-0.495,190.62,0.280000
20:51:35:620,0.017,-0.010,0.985,0.001,-0.002,-0.001,0.018,0.654,-0.492,190.90,0.280000
20:51:35:621,0.019,-0.010,0.984,0.001,-0.002,-0.001,0.022,0.643,-0.498,190.38,-0.520000
20:51:35:622,0.017,-0.010,0.984,0.001,-0.002,-0.001,0.015,0.650,-0.500,191.17,0.790000
20:51:35:623,0.018,-0.010,0.984,0.001,-0.002,-0.001,0.019,0.649,-0.495,191.08,-0.090000
20:51:35:624,0.017,-0.010,0.983,0.001,-0.001,-0.001,0.019,0.649,-0.495,190.79,-0.290000
20:51:35:625,0.017,-0.009,0.984,0.001,-0.002,-0.001,0.020,0.648,-0.494,190.84,0.050000
20:51:35:626,0.017,-0.010,0.984,0.001,-0.002,-0.001,0.020,0.648,-0.490,190.63,-0.210000
20:51:35:627,0.018,-0.009,0.984,0.001,-0.002,-0.000,0.019,0.648,-0.493,190.12,-0.510000
20:51:35:628,0.018,-0.010,0.984,0.001,-0.002,-0.001,0.016,0.647,-0.487,190.78,0.660000
20:51:35:629,0.019,-0.010,0.985,0.001,-0.002,-0.001,0.018,0.650,-0.496,190.29,-0.490000
20:51:35:630,0.017,-0.010,0.985,0.001,-0.002,-0.000,0.020,0.647,-0.493,190.67,0.380000
20:51:35:631,0.019,-0.009,0.984,0.001,-0.002,-0.001,0.020,0.647,-0.493,190.81,0.140000
20:51:35:632,0.017,-0.010,0.984,0.001,-0.002,-0.001,0.015,0.647,-0.498,190.43,-0.380000
20:51:35:633,0.018,-0.010,0.984,0.001,-0.002,-0.001,0.013,0.650,-0.496,190.01,-0.420000
20:51:35:633,0.017,-0.009,0.985,0.001,-0.002,-0.001,0.016,0.650,-0.490,190.54,0.530000
20:51:35:634,0.018,-0.009,0.985,0.001,-0.002,-0.000,0.024,0.646,-0.491,190.93,0.390000
20:51:35:635,0.018,-0.010,0.984,0.001,-0.001,-0.001,0.017,0.643,-0.490,191.06,0.130000
20:51:35:636,0.018,-0.010,0.985,0.001,-0.002,-0.001,0.016,0.650,-0.497,190.76,-0.300000
20:51:35:637,0.016,-0.009,0.984,0.001,-0.001,-0.001,0.016,0.650,-0.495,190.92,0.160000
20:51:35:638,0.019,-0.010,0.985,0.001,-0.002,-0.001,0.016,0.649,-0.495,190.72,-0.200000
20:51:35:639,0.017,-0.010,0.984,0.000,-0.002,-0.000,0.023,0.649,-0.497,190.76,0.040000
20:51:35:640,0.018,-0.009,0.984,0.001,-0.001,-0.001,0.018,0.643,-0.497,190.69,-0.070000
20:51:35:641,0.017,-0.010,0.983,0.001,-0.002,-0.000,0.017,0.646,-0.494,191.15,0.460000
20:51:35:642,0.017,-0.009,0.985,0.001,-0.002,-0.000,0.018,0.643,-0.497,190.27,-0.880000
20:51:35:643,0.017,-0.009,0.986,0.001,-0.002,-0.001,0.023,0.645,-0.497,190.05,-0.220000
20:51:35:644,0.018,-0.010,0.985,0.001,-0.001,-0.001,0.023,0.645,-0.499,190.10,0.050000
20:51:35:645,0.018,-0.011,0.984,0.001,-0.002,-0.001,0.019,0.645,-0.499,190.27,0.170000
20:51:35:645,0.017,-0.010,0.985,0.001,-0.002,-0.001,0.018,0.651,-0.500,190.52,0.250000
20:51:35:646,0.017,-0.009,0.984,0.001,-0.002,-0.000,0.017,0.649,-0.491,190.30,-0.220000
20:51:35:647,0.018,-0.010,0.983,0.001,-0.002,-0.000,0.021,0.651,-0.492,190.92,0.620000
20:51:35:648,0.017,-0.010,0.985,0.001,-0.002,-0.001,0.022,0.649,-0.492,190.58,-0.340000
20:51:35:649,0.018,-0.009,0.985,0.001,-0.002,-0.001,0.022,0.651,-0.497,190.08,-0.500000
20:51:35:650,0.018,-0.010,0.985,0.001,-0.002,-0.001,0.022,0.649,-0.491,190.92,0.840000
20:51:35:651,0.017,-0.010,0.984,0.001,-0.002,-0.001,0.022,0.649,-0.491,190.76,-0.160000
20:51:35:652,0.018,-0.010,0.985,0.001,-0.002,-0.001,0.019,0.649,-0.485,191.33,0.570000
20:51:35:653,0.018,-0.009,0.984,0.001,-0.001,-0.001,0.022,0.651,-0.491,190.15,-1.180000
20:51:35:654,0.017,-0.010,0.985,0.001,-0.001,-0.001,0.019,0.651,-0.498,190.57,0.420000
20:51:35:655,0.017,-0.010,0.986,0.001,-0.002,-0.001,0.020,0.650,-0.496,190.49,-0.080000
20:51:35:656,0.017,-0.010,0.983,0.001,-0.001,-0.001,0.018,0.651,-0.498,190.22,-0.270000
20:51:35:657,0.019,-0.010,0.984,0.001,-0.002,-0.001,0.018,0.649,-0.486,190.91,0.690000
20:51:35:657,0.018,-0.011,0.985,0.001,-0.001,-0.001,0.018,0.649,-0.486,189.65,-1.260000
20:51:35:658,0.018,-0.010,0.986,0.001,-0.002,-0.001,0.018,0.648,-0.490,190.28,0.630000
20:51:35:659,0.017,-0.010,0.985,0.001,-0.002,-0.001,0.019,0.646,-0.494,190.76,0.480000
20:51:35:660,0.017,-0.009,0.985,0.001,-0.002,-0.001,0.021,0.646,-0.496,190.43,-0.330000
20:51:35:661,0.018,-0.010,0.985,0.001,-0.002,-0.001,0.017,0.644,-0.486,190.95,0.520000
20:51:35:662,0.018,-0.010,0.985,0.001,-0.001,-0.001,0.021,0.645,-0.490,190.38,-0.570000
20:51:35:663,0.017,-0.011,0.985,0.001,-0.002,-0.001,0.025,0.647,-0.489,190.54,0.160000
20:51:35:664,0.019,-0.010,0.983,0.001,-0.002,-0.001,0.025,0.647,-0.489,190.78,0.240000
20:51:35:665,0.018,-0.011,0.985,0.001,-0.002,-0.001,0.021,0.646,-0.492,190.43,-0.350000
20:51:35:666,0.017,-0.010,0.984,0.001,-0.001,-0.001,0.022,0.650,-0.491,190.74,0.310000
20:51:35:667,0.018,-0.010,0.985,0.001,-0.001,-0.001,0.022,0.646,-0.497,190.51,-0.230000
20:51:35:668,0.018,-0.011,0.985,0.001,-0.001,-0.001,0.020,0.647,-0.489,190.12,-0.390000
20:51:35:669,0.018,-0.010,0.984,0.001,-0.001,-0.001,0.021,0.651,-0.494,190.86,0.740000
20:51:35:670,0.018,-0.009,0.983,0.001,-0.002,-0.001,0.018,0.648,-0.486,190.49,-0.370000
20:51:35:671,0.017,-0.010,0.985,0.002,-0.001,-0.001,0.018,0.648,-0.486,189.64,-0.850000
20:51:35:672,0.017,-0.010,0.985,0.001,-0.002,-0.001,0.024,0.647,-0.487,190.79,1.150000
20:51:35:672,0.017,-0.010,0.984,0.001,-0.002,-0.001,0.020,0.649,-0.493,190.18,-0.610000
20:51:35:673,0.017,-0.010,0.984,0.001,-0.001,-0.000,0.019,0.649,-0.495,190.12,-0.060000
20:51:35:674,0.017,-0.010,0.985,0.001,-0.001,-0.000,0.021,0.650,-0.499,190.54,0.420000
20:51:35:675,0.018,-0.010,0.985,0.001,-0.001,-0.001,0.020,0.648,-0.491,190.53,-0.010000
20:51:35:676,0.018,-0.009,0.983,0.000,-0.002,-0.001,0.018,0.643,-0.495,190.41,-0.120000
20:51:35:677,0.019,-0.010,0.985,0.001,-0.001,-0.001,0.018,0.643,-0.495,190.88,0.470000
20:51:35:678,0.018,-0.010,0.984,0.002,-0.001,-0.001,0.021,0.645,-0.494,190.93,0.050000
20:51:35:679,0.018,-0.010,0.985,0.001,-0.002,-0.001,0.020,0.645,-0.499,190.60,-0.330000
20:51:35:680,0.018,-0.010,0.983,0.001,-0.002,-0.001,0.021,0.648,-0.495,190.78,0.180000
20:51:35:681,0.017,-0.010,0.984,0.001,-0.002,-0.000,0.018,0.644,-0.494,190.80,0.020000
20:51:35:682,0.019,-0.010,0.984,0.001,-0.002,-0.001,0.019,0.647,-0.492,190.56,-0.240000
20:51:35:683,0.018,-0.008,0.985,0.001,-0.002,-0.001,0.014,0.643,-0.495,190.70,0.140000
20:51:35:684,0.018,-0.010,0.985,0.001,-0.002,-0.001,0.014,0.643,-0.495,190.72,0.020000
20:51:35:684,0.018,-0.009,0.985,0.001,-0.002,-0.001,0.018,0.645,-0.501,190.17,-0.550000
20:51:35:685,0.018,-0.010,0.984,0.001,-0.001,-0.001,0.018,0.645,-0.501,190.17,0.000000
20:51:35:686,0.018,-0.010,0.984,0.001,-0.002,-0.001,0.021,0.647,-0.495,190.17,0.000000
20:51:35:687,0.019,-0.010,0.984,0.001,-0.001,-0.001,0.022,0.648,-0.495,190.84,0.670000
20:51:35:688,0.017,-0.010,0.984,0.001,-0.002,-0.001,0.019,0.645,-0.492,190.94,0.100000
20:51:35:689,0.017,-0.010,0.984,0.001,-0.002,-0.001,0.018,0.643,-0.498,190.05,-0.890000
20:51:35:690,0.017,-0.009,0.985,0.001,-0.002,-0.000,0.018,0.643,-0.498,190.41,0.360000
20:51:35:691,0.018,-0.010,0.984,0.002,-0.002,-0.001,0.016,0.645,-0.494,190.38,-0.030000
20:51:35:692,0.018,-0.009,0.985,0.001,-0.001,-0.001,0.023,0.644,-0.495,190.27,-0.110000
20:51:35:693,0.018,-0.010,0.985,0.001,-0.002,-0.001,0.019,0.647,-0.499,189.63,-0.640000
20:51:35:694,0.018,-0.011,0.985,0.001,-0.002,-0.001,0.023,0.646,-0.496,190.86,1.230000
20:51:35:695,0.018,-0.009,0.984,0.001,-0.002,-0.001,0.022,0.642,-0.497,190.93,0.070000
20:51:35:696,0.016,-0.010,0.983,0.001,-0.002,-0.001,0.020,0.644,-0.496,190.32,-0.610000
20:51:35:697,0.018,-0.010,0.984,0.001,-0.002,-0.001,0.020,0.644,-0.496,190.80,0.480000
20:51:35:698,0.018,-0.010,0.983,0.001,-0.001,-0.001,0.019,0.650,-0.496,190.67,-0.130000
20:51:35:699,0.017,-0.009,0.984,0.001,-0.002,-0.001,0.022,0.655,-0.504,190.93,0.260000
20:51:35:699,0.018,-0.008,0.984,0.001,-0.002,-0.001,0.020,0.652,-0.505,190.51,-0.420000
20:51:35:700,0.018,-0.009,0.984,0.001,-0.001,-0.001,0.019,0.649,-0.492,189.69,-0.820000
20:51:35:701,0.018,-0.010,0.984,0.001,-0.002,-0.001,0.018,0.650,-0.496,190.45,0.760000
20:51:35:702,0.018,-0.010,0.985,0.001,-0.002,-0.001,0.022,0.645,-0.494,190.36,-0.090000
20:51:35:703,0.018,-0.009,0.985,0.001,-0.002,-0.001,0.022,0.645,-0.496,190.75,0.390000
20:51:35:704,0.017,-0.010,0.985,0.001,-0.002,-0.001,0.021,0.645,-0.496,190.99,0.240000
20:51:35:705,0.017,-0.010,0.985,0.001,-0.002,-0.001,0.022,0.648,-0.500,190.83,-0.160000
20:51:35:706,0.018,-0.011,0.984,0.001,-0.002,-0.001,0.021,0.647,-0.506,190.83,0.000000
20:51:35:707,0.017,-0.010,0.984,0.001,-0.002,-0.001,0.025,0.649,-0.505,190.46,-0.370000
20:51:35:708,0.017,-0.009,0.984,0.001,-0.001,-0.001,0.017,0.646,-0.501,190.47,0.010000
20:51:35:709,0.018,-0.010,0.984,0.001,-0.002,-0.001,0.018,0.649,-0.496,191.14,0.670000
20:51:35:710,0.018,-0.010,0.985,0.001,-0.001,-0.001,0.021,0.646,-0.492,190.33,-0.810000
20:51:35:711,0.018,-0.010,0.986,0.001,-0.002,-0.001,0.021,0.646,-0.492,190.74,0.410000
20:51:35:712,0.017,-0.010,0.984,0.001,-0.001,-0.001,0.018,0.641,-0.497,190.34,-0.400000
20:51:35:713,0.018,-0.010,0.985,0.001,-0.002,-0.001,0.019,0.645,-0.502,190.86,0.520000
20:51:35:713,0.016,-0.010,0.983,0.001,-0.001,-0.000,0.018,0.646,-0.504,190.17,-0.690000
20:51:35:714,0.017,-0.010,0.983,0.001,-0.001,-0.000,0.019,0.646,-0.507,190.74,0.570000
20:51:35:715,0.017,-0.010,0.984,0.001,-0.001,-0.001,0.017,0.643,-0.502,189.81,-0.930000
20:51:35:716,0.017,-0.010,0.984,0.001,-0.001,-0.001,0.019,0.645,-0.499,190.31,0.500000
20:51:35:717,0.018,-0.009,0.986,0.001,-0.002,-0.001,0.019,0.645,-0.499,190.47,0.160000
20:51:35:718,0.017,-0.009,0.984,0.001,-0.002,-0.001,0.016,0.644,-0.497,190.44,-0.030000
20:51:35:719,0.018,-0.010,0.984,0.001,-0.002,-0.001,0.020,0.650,-0.498,189.93,-0.510000
20:51:35:720,0.017,-0.009,0.984,0.001,-0.002,-0.000,0.021,0.644,-0.495,190.49,0.560000
20:51:35:721,0.018,-0.009,0.984,0.001,-0.001,-0.001,0.019,0.647,-0.492,190.63,0.140000
20:51:35:722,0.018,-0.010,0.984,0.001,-0.002,-0.001,0.019,0.640,-0.496,190.15,-0.480000
20:51:35:723,0.017,-0.010,0.986,0.001,-0.002,-0.001,0.018,0.644,-0.498,190.66,0.510000
20:51:35:724,0.018,-0.010,0.984,0.001,-0.001,-0.001,0.018,0.644,-0.498,190.62,-0.040000
20:51:35:725,0.017,-0.009,0.985,0.001,-0.002,-0.001,0.014,0.646,-0.494,190.19,-0.430000
20:51:35:726,0.017,-0.009,0.985,0.001,-0.002,-0.001,0.022,0.647,-0.491,190.47,0.280000
20:51:35:727,0.018,-0.009,0.984,0.001,-0.001,-0.001,0.018,0.649,-0.496,190.67,0.200000
20:51:35:727,0.019,-0.009,0.984,0.001,-0.002,-0.001,0.020,0.645,-0.492,190.15,-0.520000
20:51:35:728,0.019,-0.010,0.984,0.001,-0.002,-0.000,0.020,0.645,-0.493,190.42,0.270000
20:51:35:729,0.017,-0.009,0.985,0.001,-0.001,-0.001,0.023,0.651,-0.496,190.74,0.320000
20:51:35:730,0.017,-0.010,0.983,0.001,-0.002,-0.001,0.023,0.651,-0.496,191.02,0.280000
20:51:35:731,0.017,-0.009,0.986,0.001,-0.002,-0.001,0.021,0.648,-0.500,190.69,-0.330000
20:51:35:732,0.017,-0.009,0.985,0.001,-0.001,-0.001,0.023,0.648,-0.494,190.60,-0.090000
20:51:35:733,0.017,-0.009,0.984,0.001,-0.002,-0.001,0.024,0.645,-0.495,190.78,0.180000
20:51:35:734,0.019,-0.010,0.984,0.001,-0.002,-0.001,0.026,0.646,-0.493,190.37,-0.410000
20:51:35:735,0.019,-0.010,0.984,0.001,-0.001,-0.000,0.020,0.644,-0.500,189.91,-0.460000
20:51:35:735,0.017,-0.010,0.985,0.001,-0.001,-0.001,0.020,0.641,-0.498,190.35,0.440000
20:51:35:736,0.016,-0.009,0.984,0.001,-0.002,-0.001,0.020,0.641,-0.498,190.97,0.620000
20:51:35:736,0.017,-0.010,0.985,0.001,-0.002,-0.001,0.020,0.644,-0.498,191.16,0.190000
20:51:35:737,0.018,-0.010,0.985,0.001,-0.002,-0.001,0.021,0.647,-0.501,190.90,-0.260000
20:51:35:737,0.019,-0.010,0.986,0.001,-0.002,-0.001,0.019,0.647,-0.496,190.14,-0.760000
20:51:35:738,0.018,-0.009,0.984,0.001,-0.001,-0.000,0.020,0.645,-0.494,190.76,0.620000
20:51:35:739,0.020,-0.009,0.985,0.001,-0.001,-0.001,0.021,0.645,-0.491,190.72,-0.040000
20:51:35:739,0.017,-0.010,0.984,0.001,-0.001,-0.001,0.019,0.644,-0.489,190.48,-0.240000
20:51:35:740,0.018,-0.010,0.982,0.001,-0.002,-0.001,0.019,0.644,-0.489,190.61,0.130000
20:51:35:740,0.017,-0.011,0.983,0.001,-0.002,-0.001,0.019,0.645,-0.490,190.27,-0.340000
20:51:35:741,0.017,-0.009,0.985,0.001,-0.001,-0.001,0.019,0.648,-0.484,190.27,0.000000
20:51:35:741,0.018,-0.010,0.983,0.001,-0.002,-0.001,0.022,0.650,-0.495,190.46,0.190000
20:51:35:742,0.017,-0.010,0.984,0.001,-0.002,-0.001,0.019,0.645,-0.492,190.47,0.010000
20:51:35:743,0.018,-0.010,0.985,0.001,-0.001,-0.001,0.019,0.652,-0.493,190.85,0.380000
20:51:35:743,0.017,-0.010,0.985,0.001,-0.002,-0.001,0.024,0.649,-0.495,190.32,-0.530000
20:51:35:744,0.018,-0.010,0.983,0.001,-0.002,-0.001,0.024,0.649,-0.495,189.82,-0.500000
20:51:35:744,0.019,-0.010,0.983,0.002,-0.001,-0.001,0.023,0.649,-0.496,190.15,0.330000
20:51:35:745,0.017,-0.009,0.984,0.001,-0.002,-0.001,0.021,0.649,-0.496,190.00,-0.150000
20:51:35:745,0.017,-0.009,0.984,0.001,-0.002,-0.001,0.021,0.651,-0.494,190.62,0.620000
20:51:35:746,0.017,-0.011,0.984,0.001,-0.002,-0.001,0.021,0.649,-0.495,190.33,-0.290000
20:51:35:746,0.018,-0.010,0.986,0.001,-0.002,-0.000,0.018,0.647,-0.494,190.91,0.580000
20:51:35:747,0.017,-0.010,0.984,0.001,-0.001,-0.000,0.017,0.646,-0.492,190.81,-0.100000
20:51:35:748,0.018,-0.010,0.983,0.001,-0.002,-0.001,0.017,0.646,-0.496,190.56,-0.250000
20:51:35:748,0.017,-0.010,0.986,0.001,-0.002,-0.000,0.014,0.650,-0.496,190.86,0.300000
20:51:35:749,0.018,-0.011,0.984,0.001,-0.002,-0.001,0.016,0.644,-0.490,189.46,-1.400000
20:51:35:749,0.019,-0.010,0.984,0.001,-0.002,-0.001,0.016,0.645,-0.495,190.97,1.510000
20:51:35:750,0.019,-0.010,0.984,0.001,-0.002,-0.001,0.015,0.644,-0.496,190.30,-0.670000
20:51:35:750,0.017,-0.010,0.985,0.001,-0.001,-0.001,0.016,0.650,-0.493,190.09,-0.210000
20:51:35:751,0.017,-0.010,0.984,0.001,-0.002,-0.000,0.017,0.646,-0.495,190.29,0.200000
20:51:35:752,0.019,-0.009,0.984,0.001,-0.002,-0.001,0.017,0.646,-0.496,190.24,-0.050000
20:51:35:752,0.018,-0.010,0.984,0.001,-0.001,-0.001,0.017,0.646,-0.496,190.44,0.200000
20:51:35:753,0.016,-0.009,0.986,0.001,-0.002,-0.001,0.021,0.644,-0.498,190.27,-0.170000
20:51:35:753,0.018,-0.010,0.983,0.001,-0.002,-0.001,0.017,0.648,-0.500,190.68,0.410000
20:51:35:754,0.018,-0.010,0.984,0.001,-0.002,-0.001,0.019,0.648,-0.498,190.86,0.180000
20:51:35:754,0.019,-0.010,0.985,0.001,-0.002,-0.001,0.017,0.647,-0.498,190.26,-0.600000
20:51:35:755,0.018,-0.010,0.985,0.001,-0.002,-0.001,0.019,0.652,-0.498,190.93,0.670000
20:51:35:756,0.017,-0.010,0.983,0.001,-0.002,-0.001,0.017,0.647,-0.493,190.57,-0.360000
20:51:35:756,0.018,-0.010,0.985,0.000,-0.001,-0.001,0.017,0.647,-0.493,190.88,0.310000
20:51:35:757,0.018,-0.010,0.984,0.001,-0.002,-0.000,0.015,0.648,-0.489,190.91,0.030000
20:51:35:757,0.017,-0.010,0.984,0.001,-0.001,-0.001,0.015,0.640,-0.503,190.52,-0.390000
20:51:35:758,0.019,-0.010,0.985,0.001,-0.002,-0.001,0.017,0.648,-0.503,190.50,-0.020000
20:51:35:758,0.018,-0.011,0.986,0.001,-0.002,-0.001,0.016,0.645,-0.497,190.87,0.370000
20:51:35:759,0.017,-0.009,0.983,0.001,-0.001,-0.001,0.016,0.651,-0.494,190.51,-0.360000
20:51:35:760,0.016,-0.010,0.983,0.001,-0.002,-0.000,0.016,0.641,-0.502,190.44,-0.070000
20:51:35:760,0.017,-0.010,0.985,0.001,-0.002,-0.001,0.016,0.641,-0.502,190.59,0.150000
20:51:35:761,0.017,-0.010,0.985,0.001,-0.002,-0.001,0.017,0.646,-0.498,190.18,-0.410000
20:51:35:761,0.017,-0.010,0.984,0.001,-0.002,-0.000,0.017,0.646,-0.496,190.39,0.210000
20:51:35:762,0.017,-0.010,0.985,0.001,-0.002,-0.001,0.018,0.648,-0.498,190.46,0.070000
20:51:35:762,0.017,-0.010,0.986,0.001,-0.002,-0.001,0.019,0.646,-0.496,190.09,-0.370000
20:51:35:763,0.016,-0.009,0.984,0.001,-0.002,-0.001,0.021,0.644,-0.494,190.90,0.810000
20:51:35:764,0.016,-0.010,0.984,0.001,-0.002,-0.001,0.019,0.647,-0.500,190.42,-0.480000
20:51:35:764,0.017,-0.010,0.984,0.001,-0.002,-0.001,0.019,0.647,-0.500,190.88,0.460000
20:51:35:765,0.018,-0.010,0.984,0.001,-0.002,-0.001,0.019,0.647,-0.497,190.95,0.070000
20:51:35:765,0.018,-0.010,0.984,0.001,-0.002,-0.001,0.018,0.642,-0.499,190.68,-0.270000
20:51:35:772,0.018,-0.010,0.983,0.001,-0.002,-0.001,0.019,0.645,-0.502,190.50,-0.180000
20:51:35:783,0.018,-0.009,0.985,0.001,-0.002,-0.001,0.025,0.645,-0.503,190.49,-0.010000
20:51:35:794,0.019,-0.010,0.984,0.001,-0.002,-0.001,0.017,0.643,-0.499,190.34,-0.150000
20:51:35:805,0.017,-0.010,0.984,0.001,-0.001,-0.001,0.025,0.641,-0.500,190.72,0.380000
20:51:35:816,0.019,-0.009,0.985,0.001,-0.002,-0.001,0.025,0.641,-0.500,190.62,-0.100000
20:51:35:827,0.017,-0.011,0.985,0.001,-0.001,-0.001,0.020,0.644,-0.498,190.59,-0.030000
20:51:35:838,0.018,-0.010,0.983,0.001,-0.001,-0.001,0.020,0.645,-0.502,191.01,0.420000
20:51:35:849,0.018,-0.010,0.984,0.001,-0.002,-0.001,0.019,0.645,-0.497,190.26,-0.750000
20:51:35:860,0.018,-0.010,0.984,0.001,-0.002,-0.001,0.021,0.648,-0.497,190.28,0.020000
20:51:35:871,0.018,-0.011,0.984,0.001,-0.001,-0.001,0.021,0.645,-0.496,190.36,0.080000
20:51:35:882,0.018,-0.010,0.984,0.001,-0.001,-0.001,0.020,0.642,-0.496,190.63,0.270000
20:51:35:893,0.018,-0.010,0.985,0.001,-0.002,-0.001,0.020,0.642,-0.496,190.40,-0.230000
20:51:35:904,0.017,-0.009,0.986,0.001,-0.002,-0.001,0.019,0.646,-0.501,190.55,0.150000
20:51:35:915,0.018,-0.009,0.984,0.001,-0.002,-0.001,0.021,0.645,-0.490,190.51,-0.040000
20:51:35:926,0.018,-0.011,0.984,0.001,-0.001,-0.001,0.019,0.647,-0.491,190.58,0.070000
20:51:35:937,0.017,-0.010,0.986,0.001,-0.001,-0.001,0.017,0.647,-0.492,190.47,-0.110000
20:51:35:948,0.018,-0.010,0.983,0.001,-0.002,-0.001,0.021,0.646,-0.493,190.32,-0.150000
20:51:35:959,0.018,-0.009,0.985,0.001,-0.002,-0.000,0.019,0.647,-0.492,191.07,0.750000
20:51:35:970,0.019,-0.010,0.984,0.001,-0.002,-0.000,0.019,0.647,-0.492,190.68,-0.390000
20:51:35:981,0.017,-0.010,0.986,0.001,-0.002,-0.001,0.018,0.645,-0.501,190.56,-0.120000
20:51:35:992,0.018,-0.011,0.984,0.001,-0.002,-0.001,0.022,0.647,-0.497,190.06,-0.500000
20:51:36:003,0.018,-0.009,0.985,0.001,-0.002,-0.001,0.020,0.645,-0.492,191.01,0.950000
20:51:36:014,0.018,-0.011,0.983,0.001,-0.001,-0.001,0.024,0.645,-0.493,191.09,0.080000
20:51:36:025,0.018,-0.010,0.983,0.001,-0.002,-0.001,0.026,0.648,-0.492,190.23,-0.860000
20:51:36:037,0.018,-0.009,0.985,0.001,-0.001,-0.000,0.023,0.643,-0.488,190.16,-0.070000
20:51:36:048,0.019,-0.010,0.984,0.001,-0.002,-0.001,0.023,0.643,-0.488,190.52,0.360000
20:51:36:059,0.017,-0.009,0.984,0.001,-0.002,-0.001,0.018,0.645,-0.489,190.10,-0.420000
20:51:36:070,0.017,-0.009,0.984,0.001,-0.002,-0.001,0.019,0.648,-0.488,189.90,-0.200000
20:51:36:081,0.017,-0.009,0.986,0.001,-0.002,-0.001,0.021,0.650,-0.494,190.61,0.710000
20:51:36:092,0.017,-0.010,0.985,0.001,-0.002,-0.001,0.019,0.640,-0.497,190.43,-0.180000
20:51:36:103,0.018,-0.009,0.984,0.001,-0.002,-0.001,0.018,0.646,-0.495,190.33,-0.100000
20:51:36:113,0.018,-0.010,0.983,0.001,-0.002,-0.001,0.020,0.646,-0.498,190.59,0.260000
20:51:36:124,0.017,-0.010,0.984,0.001,-0.002,-0.001,0.020,0.646,-0.493,190.54,-0.050000
20:51:36:135,0.017,-0.010,0.984,0.001,-0.002,-0.001,0.016,0.651,-0.493,190.43,-0.110000
20:51:36:146,0.018,-0.011,0.982,0.001,-0.001,-0.001,0.019,0.644,-0.495,191.26,0.830000
20:51:36:157,0.017,-0.010,0.985,0.001,-0.002,-0.001,0.019,0.644,-0.494,190.50,-0.760000
20:51:36:168,0.017,-0.010,0.984,0.001,-0.002,-0.001,0.018,0.645,-0.488,189.91,-0.590000
20:51:36:179,0.017,-0.009,0.985,0.001,-0.001,-0.000,0.017,0.644,-0.492,190.94,1.030000
20:51:36:190,0.018,-0.010,0.985,0.001,-0.001,-0.001,0.022,0.645,-0.487,190.11,-0.830000
20:51:36:201,0.018,-0.010,0.984,0.001,-0.002,-0.001,0.022,0.645,-0.491,190.40,0.290000
20:51:36:212,0.018,-0.010,0.984,0.001,-0.002,-0.001,0.020,0.645,-0.491,190.45,0.050000
20:51:36:223,0.019,-0.009,0.983,0.001,-0.002,-0.001,0.021,0.642,-0.489,190.09,-0.360000
20:51:36:234,0.018,-0.009,0.984,0.001,-0.002,-0.001,0.019,0.643,-0.490,190.62,0.530000
20:51:36:245,0.017,-0.010,0.983,0.001,-0.001,-0.000,0.021,0.646,-0.491,190.60,-0.020000
20:51:36:256,0.018,-0.010,0.984,0.001,-0.002,-0.001,0.023,0.645,-0.491,189.97,-0.630000
20:51:36:267,0.018,-0.010,0.985,0.001,-0.002,-0.001,0.022,0.643,-0.482,190.05,0.080000
20:51:36:278,0.018,-0.010,0.985,0.001,-0.001,-0.001,0.021,0.644,-0.491,190.64,0.590000
20:51:36:289,0.018,-0.010,0.984,0.001,-0.001,-0.001,0.021,0.644,-0.491,190.59,-0.050000
20:51:36:300,0.017,-0.010,0.983,0.001,-0.002,-0.000,0.021,0.649,-0.497,190.53,-0.060000
20:51:36:311,0.017,-0.011,0.984,0.001,-0.002,-0.000,0.018,0.649,-0.497,190.32,-0.210000
20:51:36:322,0.017,-0.010,0.984,0.001,-0.001,-0.001,0.018,0.648,-0.490,190.92,0.600000
20:51:36:333,0.017,-0.011,0.983,0.001,-0.001,-0.001,0.018,0.649,-0.496,190.89,-0.030000
20:51:36:344,0.018,-0.010,0.984,0.001,-0.002,-0.001,0.025,0.650,-0.492,190.36,-0.530000
20:51:36:355,0.018,-0.010,0.985,0.001,-0.002,-0.001,0.021,0.641,-0.498,190.49,0.130000
20:51:36:366,0.018,-0.010,0.985,0.001,-0.002,-0.001,0.021,0.641,-0.498,190.07,-0.420000
20:51:36:377,0.018,-0.009,0.986,0.001,-0.002,-0.001,0.024,0.641,-0.494,190.65,0.580000
20:51:36:388,0.019,-0.009,0.984,0.001,-0.002,-0.000,0.022,0.643,-0.499,190.93,0.280000
20:51:36:399,0.018,-0.010,0.985,0.001,-0.002,-0.001,0.020,0.642,-0.488,189.76,-1.170000
20:51:36:410,0.018,-0.010,0.984,0.001,-0.002,-0.000,0.021,0.641,-0.489,190.26,0.500000
20:51:36:421,0.018,-0.010,0.984,0.001,-0.002,-0.001,0.020,0.639,-0.489,190.63,0.370000
20:51:36:432,0.018,-0.009,0.984,0.001,-0.002,-0.001,0.021,0.642,-0.495,190.10,-0.530000
20:51:36:443,0.018,-0.010,0.984,0.001,-0.002,-0.001,0.021,0.642,-0.495,190.78,0.680000
20:51:36:454,0.018,-0.010,0.984,0.001,-0.002,-0.000,0.023,0.643,-0.488,190.07,-0.710000
20:51:36:465,0.019,-0.010,0.984,0.001,-0.001,-0.001,0.018,0.640,-0.498,190.16,0.090000
20:51:36:476,0.019,-0.010,0.986,0.000,-0.002,-0.001,0.018,0.640,-0.496,190.01,-0.150000
20:51:36:487,0.016,-0.009,0.984,0.001,-0.002,-0.001,0.020,0.641,-0.495,190.31,0.300000
20:51:36:498,0.017,-0.011,0.985,0.001,-0.002,-0.000,0.017,0.648,-0.492,190.03,-0.280000
20:51:36:509,0.018,-0.011,0.984,0.001,-0.002,-0.001,0.023,0.644,-0.493,189.95,-0.080000
20:51:36:520,0.018,-0.010,0.983,0.001,-0.002,-0.001,0.023,0.644,-0.493,190.48,0.530000
20:51:36:531,0.017,-0.011,0.984,0.001,-0.001,-0.001,0.017,0.646,-0.499,190.32,-0.160000
20:51:36:542,0.019,-0.009,0.985,0.001,-0.001,-0.001,0.020,0.647,-0.492,190.11,-0.210000
20:51:36:553,0.018,-0.009,0.984,0.001,-0.002,-0.001,0.021,0.644,-0.492,190.41,0.300000
20:51:36:564,0.017,-0.010,0.984,0.001,-0.002,-0.001,0.024,0.640,-0.497,190.53,0.120000
20:51:36:575,0.018,-0.009,0.984,0.001,-0.002,-0.001,0.023,0.642,-0.495,190.29,-0.240000
20:51:36:586,0.017,-0.010,0.984,0.001,-0.002,-0.000,0.019,0.646,-0.493,190.58,0.290000
20:51:36:597,0.018,-0.010,0.985,0.001,-0.001,-0.001,0.019,0.646,-0.493,190.43,-0.150000
20:51:36:608,0.017,-0.011,0.983,0.001,-0.002,-0.001,0.018,0.646,-0.495,190.63,0.200000
20:51:36:619,0.017,-0.011,0.986,0.001,-0.002,-0.001,0.020,0.652,-0.489,190.87,0.240000
20:51:36:630,0.018,-0.010,0.983,0.001,-0.002,-0.001,0.019,0.644,-0.492,191.10,0.230000
20:51:36:641,0.018,-0.010,0.983,0.001,-0.002,-0.001,0.020,0.646,-0.496,190.76,-0.340000
20:51:36:652,0.018,-0.009,0.984,0.001,-0.002,-0.000,0.020,0.640,-0.497,190.55,-0.210000
20:51:36:663,0.017,-0.010,0.985,0.002,-0.002,-0.001,0.020,0.649,-0.490,190.33,-0.220000
20:51:36:674,0.018,-0.010,0.984,0.001,-0.002,-0.001,0.020,0.649,-0.490,191.12,0.790000
20:51:36:685,0.017,-0.009,0.985,0.001,-0.002,-0.001,0.022,0.648,-0.494,191.10,-0.020000
20:51:36:696,0.018,-0.010,0.985,0.001,-0.002,-0.001,0.020,0.646,-0.497,189.52,-1.580000
20:51:36:707,0.017,-0.010,0.983,0.001,-0.001,-0.001,0.019,0.645,-0.497,190.53,1.010000
20:51:36:718,0.017,-0.010,0.983,0.001,-0.002,-0.000,0.015,0.646,-0.494,190.10,-0.430000
20:51:36:729,0.018,-0.009,0.985,0.001,-0.002,-0.001,0.017,0.645,-0.502,190.84,0.740000
20:51:36:740,0.018,-0.010,0.985,0.001,-0.002,-0.001,0.020,0.645,-0.502,190.60,-0.240000
20:51:36:751,0.017,-0.010,0.983,0.001,-0.001,-0.001,0.020,0.645,-0.493,191.02,0.420000
20:51:36:762,0.017,-0.010,0.984,0.001,-0.002,-0.001,0.016,0.647,-0.493,189.81,-1.210000
20:51:36:773,0.017,-0.009,0.984,0.001,-0.001,-0.001,0.018,0.643,-0.494,190.70,0.890000
20:51:36:784,0.017,-0.009,0.984,0.001,-0.002,-0.001,0.023,0.645,-0.497,190.13,-0.570000
20:51:36:795,0.017,-0.010,0.985,0.001,-0.002,-0.001,0.021,0.646,-0.499,190.74,0.610000
20:51:36:806,0.017,-0.010,0.984,0.001,-0.002,-0.001,0.022,0.644,-0.493,189.93,-0.810000
20:51:36:817,0.018,-0.010,0.985,0.001,-0.002,-0.001,0.018,0.645,-0.493,190.60,0.670000
20:51:36:828,0.017,-0.011,0.984,0.001,-0.002,-0.001,0.018,0.646,-0.491,190.77,0.170000
20:51:36:839,0.017,-0.010,0.985,0.001,-0.002,-0.001,0.025,0.646,-0.491,190.89,0.120000
20:51:36:850,0.019,-0.010,0.985,0.001,-0.002,-0.001,0.023,0.642,-0.501,190.67,-0.220000
20:51:36:861,0.018,-0.010,0.984,0.001,-0.001,-0.001,0.018,0.650,-0.497,190.39,-0.280000
20:51:36:872,0.017,-0.010,0.985,0.001,-0.001,-0.000,0.018,0.644,-0.506,190.51,0.120000
20:51:36:883,0.018,-0.009,0.985,0.001,-0.002,-0.001,0.023,0.645,-0.503,190.29,-0.220000
20:51:36:894,0.018,-0.010,0.985,0.001,-0.002,-0.001,0.018,0.642,-0.498,190.04,-0.250000
20:51:36:905,0.017,-0.010,0.983,0.001,-0.002,-0.001,0.022,0.642,-0.497,190.57,0.530000
20:51:36:916,0.018,-0.010,0.985,0.001,-0.002,-0.000,0.022,0.642,-0.497,190.65,0.080000
20:51:36:927,0.018,-0.010,0.984,0.001,-0.001,-0.000,0.019,0.643,-0.500,190.62,-0.030000
20:51:36:938,0.018,-0.009,0.984,0.001,-0.002,-0.001,0.018,0.644,-0.501,190.59,-0.030000
20:51:36:949,0.017,-0.009,0.986,0.001,-0.002,-0.001,0.023,0.642,-0.505,189.97,-0.620000
20:51:36:960,0.018,-0.009,0.986,0.001,-0.002,-0.001,0.018,0.645,-0.498,190.38,0.410000
20:51:36:971,0.018,-0.009,0.983,0.001,-0.002,-0.001,0.020,0.648,-0.499,190.46,0.080000
20:51:36:982,0.017,-0.010,0.985,0.001,-0.001,-0.000,0.021,0.646,-0.490,191.12,0.660000
20:51:36:993,0.018,-0.011,0.986,0.001,-0.002,-0.000,0.021,0.646,-0.490,189.72,-1.400000
20:51:37:005,0.018,-0.010,0.984,0.001,-0.002,-0.001,0.025,0.649,-0.497,190.53,0.810000
20:51:37:016,0.017,-0.010,0.985,0.001,-0.002,-0.001,0.019,0.646,-0.495,190.53,0.000000
20:51:37:027,0.016,-0.010,0.984,0.001,-0.002,-0.001,0.020,0.642,-0.492,190.30,-0.230000
20:51:37:038,0.017,-0.011,0.984,0.001,-0.001,-0.001,0.024,0.647,-0.494,190.63,0.330000
20:51:37:049,0.018,-0.011,0.984,0.001,-0.001,-0.001,0.021,0.646,-0.492,189.97,-0.660000
20:51:37:059,0.017,-0.011,0.984,0.001,-0.002,-0.001,0.017,0.644,-0.500,190.13,0.160000
20:51:37:070,0.019,-0.009,0.985,0.001,-0.001,-0.000,0.017,0.644,-0.500,190.52,0.390000
20:51:37:081,0.017,-0.010,0.985,0.001,-0.001,-0.001,0.021,0.647,-0.499,191.13,0.610000
20:51:37:092,0.019,-0.010,0.985,0.001,-0.001,-0.001,0.017,0.644,-0.491,191.16,0.030000
20:51:37:103,0.018,-0.010,0.985,0.001,-0.002,-0.001,0.022,0.645,-0.490,190.27,-0.890000
20:51:37:114,0.018,-0.009,0.985,0.001,-0.002,-0.001,0.018,0.642,-0.493,190.31,0.040000
20:51:37:125,0.017,-0.010,0.985,0.001,-0.002,-0.000,0.017,0.642,-0.489,190.99,0.680000
20:51:37:136,0.019,-0.010,0.986,0.001,-0.002,-0.001,0.016,0.642,-0.489,190.91,-0.080000
20:51:37:147,0.017,-0.010,0.984,0.001,-0.002,-0.001,0.016,0.642,-0.489,189.86,-1.050000
20:51:37:158,0.017,-0.010,0.985,0.001,-0.002,-0.001,0.019,0.644,-0.493,190.42,0.560000
20:51:37:169,0.017,-0.010,0.983,0.001,-0.002,-0.000,0.021,0.644,-0.494,190.19,-0.230000
20:51:37:180,0.017,-0.009,0.984,0.001,-0.002,-0.000,0.014,0.644,-0.495,190.20,0.010000
20:51:37:191,0.018,-0.010,0.985,0.001,-0.002,-0.001,0.018,0.643,-0.492,190.29,0.090000
20:51:37:202,0.017,-0.010,0.985,0.001,-0.001,-0.001,0.014,0.646,-0.494,190.12,-0.170000
20:51:37:213,0.019,-0.010,0.984,0.001,-0.002,-0.001,0.018,0.641,-0.488,190.42,0.300000
20:51:37:224,0.018,-0.010,0.984,0.001,-0.001,-0.000,0.018,0.641,-0.488,190.55,0.130000
20:51:37:235,0.017,-0.010,0.985,0.001,-0.001,-0.001,0.014,0.641,-0.492,190.32,-0.230000
20:51:37:246,0.017,-0.009,0.984,0.001,-0.001,-0.001,0.022,0.646,-0.493,190.35,0.030000
20:51:37:257,0.018,-0.010,0.985,0.001,-0.001,-0.001,0.018,0.647,-0.491,190.20,-0.150000
20:51:37:268,0.018,-0.010,0.984,0.001,-0.002,-0.001,0.020,0.642,-0.493,190.60,0.400000
20:51:37:279,0.017,-0.010,0.985,0.001,-0.002,-0.001,0.018,0.641,-0.500,190.00,-0.600000
20:51:37:290,0.018,-0.010,0.985,0.001,-0.002,-0.001,0.022,0.643,-0.490,189.96,-0.040000
20:51:37:301,0.017,-0.010,0.985,0.001,-0.002,-0.001,0.022,0.643,-0.490,190.64,0.680000
20:51:37:312,0.018,-0.010,0.985,0.001,-0.002,-0.001,0.021,0.643,-0.494,190.51,-0.130000
20:51:37:323,0.018,-0.010,0.985,0.001,-0.002,-0.001,0.024,0.645,-0.494,190.65,0.140000
20:51:37:334,0.018,-0.011,0.984,0.001,-0.002,-0.001,0.022,0.643,-0.492,190.18,-0.470000
20:51:37:345,0.016,-0.010,0.986,0.001,-0.002,-0.001,0.022,0.643,-0.491,190.81,0.630000
20:51:37:356,0.016,-0.010,0.985,0.001,-0.002,-0.001,0.020,0.646,-0.493,190.72,-0.090000
20:51:37:367,0.016,-0.010,0.984,0.001,-0.002,-0.001,0.022,0.647,-0.495,190.27,-0.450000
20:51:37:378,0.018,-0.010,0.985,0.001,-0.002,-0.001,0.022,0.647,-0.495,190.32,0.050000
20:51:37:389,0.018,-0.010,0.986,0.001,-0.001,-0.001,0.020,0.647,-0.491,190.81,0.490000
20:51:37:400,0.019,-0.011,0.984,0.001,-0.001,-0.001,0.019,0.648,-0.493,190.38,-0.430000
20:51:37:411,0.017,-0.011,0.986,0.001,-0.002,-0.001,0.020,0.646,-0.488,190.43,0.050000
20:51:37:422,0.017,-0.010,0.983,0.001,-0.002,-0.001,0.019,0.650,-0.496,190.54,0.110000
20:51:37:433,0.017,-0.010,0.985,0.001,-0.001,-0.001,0.020,0.645,-0.491,190.29,-0.250000
20:51:37:444,0.017,-0.010,0.984,0.001,-0.001,-0.001,0.019,0.649,-0.491,189.65,-0.640000
20:51:37:455,0.018,-0.010,0.984,0.001,-0.001,-0.000,0.019,0.649,-0.495,190.50,0.850000
20:51:37:466,0.017,-0.010,0.982,0.001,-0.001,-0.001,0.020,0.647,-0.495,190.53,0.030000
20:51:37:477,0.017,-0.009,0.984,0.001,-0.002,-0.001,0.016,0.649,-0.490,190.32,-0.210000
20:51:37:488,0.018,-0.010,0.986,0.001,-0.002,-0.001,0.013,0.644,-0.491,190.38,0.060000
20:51:37:499,0.017,-0.010,0.986,0.001,-0.002,-0.001,0.017,0.647,-0.491,189.78,-0.600000
20:51:37:510,0.018,-0.010,0.984,0.001,-0.001,-0.001,0.017,0.647,-0.490,190.42,0.640000
20:51:37:521,0.017,-0.011,0.984,0.001,-0.001,-0.001,0.019,0.645,-0.495,190.66,0.240000
20:51:37:532,0.018,-0.010,0.985,0.001,-0.002,-0.001,0.019,0.648,-0.491,189.90,-0.760000
20:51:37:543,0.016,-0.010,0.983,0.001,-0.001,-0.001,0.021,0.648,-0.491,190.42,0.520000
20:51:37:554,0.018,-0.010,0.985,0.001,-0.001,-0.001,0.019,0.650,-0.491,189.68,-0.740000
20:51:37:565,0.018,-0.010,0.985,0.001,-0.002,-0.001,0.018,0.650,-0.495,190.49,0.810000
20:51:37:576,0.018,-0.010,0.983,0.001,-0.002,-0.001,0.018,0.650,-0.493,190.05,-0.440000
20:51:37:587,0.018,-0.011,0.985,0.001,-0.002,-0.001,0.018,0.650,-0.495,190.29,0.240000
20:51:37:598,0.017,-0.009,0.986,0.001,-0.001,-0.001,0.020,0.646,-0.491,189.97,-0.320000
20:51:37:609,0.018,-0.010,0.984,0.001,-0.001,-0.001,0.019,0.651,-0.486,190.17,0.200000
20:51:37:620,0.018,-0.010,0.984,0.001,-0.001,-0.001,0.019,0.651,-0.486,190.20,0.030000
20:51:37:631,0.018,-0.010,0.983,0.001,-0.002,-0.001,0.019,0.651,-0.488,190.48,0.280000
20:51:37:642,0.016,-0.010,0.985,0.001,-0.002,-0.001,0.021,0.647,-0.490,190.07,-0.410000
20:51:37:653,0.018,-0.010,0.984,0.001,-0.002,-0.001,0.020,0.644,-0.492,190.13,0.060000
20:51:37:664,0.017,-0.010,0.985,0.001,-0.002,-0.001,0.020,0.649,-0.493,190.38,0.250000
20:51:37:675,0.019,-0.009,0.983,0.001,-0.002,-0.001,0.017,0.649,-0.494,190.32,-0.060000
20:51:37:686,0.018,-0.011,0.986,0.001,-0.002,-0.001,0.018,0.650,-0.493,190.30,-0.020000
20:51:37:697,0.018,-0.010,0.984,0.001,-0.001,-0.001,0.018,0.650,-0.493,190.45,0.150000
20:51:37:708,0.017,-0.010,0.985,0.001,-0.001,-0.001,0.018,0.649,-0.488,190.55,0.100000
20:51:37:719,0.017,-0.010,0.983,0.001,-0.002,-0.001,0.017,0.645,-0.494,190.68,0.130000
20:51:37:730,0.016,-0.009,0.985,0.001,-0.001,-0.000,0.014,0.646,-0.494,191.09,0.410000
20:51:37:741,0.018,-0.010,0.984,0.001,-0.001,-0.001,0.017,0.647,-0.492,190.37,-0.720000
20:51:37:752,0.017,-0.011,0.986,0.001,-0.002,-0.001,0.020,0.646,-0.497,190.74,0.370000
20:51:37:763,0.017,-0.010,0.985,0.001,-0.002,-0.001,0.019,0.644,-0.494,190.02,-0.720000
20:51:37:774,0.018,-0.009,0.985,0.001,-0.001,-0.001,0.019,0.644,-0.494,190.93,0.910000
20:51:37:786,0.017,-0.010,0.985,0.001,-0.002,-0.001,0.019,0.646,-0.492,190.74,-0.190000
20:51:37:796,0.017,-0.010,0.985,0.001,-0.001,-0.001,0.019,0.647,-0.496,190.10,-0.640000
20:51:37:808,0.018,-0.010,0.983,0.001,-0.001,-0.001,0.019,0.646,-0.494,190.35,0.250000
20:51:37:818,0.018,-0.010,0.986,0.001,-0.002,-0.001,0.017,0.645,-0.494,190.05,-0.300000
20:51:37:830,0.017,-0.010,0.986,0.001,-0.002,-0.001,0.012,0.643,-0.493,190.39,0.340000
20:51:37:840,0.018,-0.010,0.981,0.001,-0.002,-0.001,0.016,0.641,-0.496,190.47,0.080000
20:51:37:852,0.016,-0.010,0.985,0.001,-0.002,-0.001,0.016,0.641,-0.496,190.30,-0.170000
20:51:37:862,0.018,-0.009,0.986,0.001,-0.001,-0.001,0.018,0.648,-0.493,190.54,0.240000
20:51:37:873,0.018,-0.010,0.987,0.001,-0.002,-0.000,0.016,0.645,-0.489,190.59,0.050000
20:51:37:884,0.017,-0.009,0.985,0.001,-0.002,-0.000,0.017,0.649,-0.489,189.57,-1.020000
20:51:37:895,0.018,-0.010,0.987,0.002,-0.001,-0.001,0.010,0.650,-0.498,190.57,1.000000
20:51:37:906,0.018,-0.010,0.985,0.001,-0.001,-0.000,0.017,0.651,-0.488,191.22,0.650000
20:51:37:917,0.017,-0.010,0.984,0.000,-0.002,-0.001,0.020,0.648,-0.497,190.56,-0.660000
20:51:37:928,0.017,-0.010,0.983,0.001,-0.001,-0.001,0.020,0.648,-0.497,190.05,-0.510000
20:51:37:939,0.018,-0.010,0.984,0.001,-0.002,-0.001,0.020,0.645,-0.492,190.37,0.320000
20:51:37:950,0.017,-0.010,0.986,0.001,-0.002,-0.001,0.019,0.644,-0.496,190.22,-0.150000
20:51:37:961,0.018,-0.010,0.984,0.001,-0.002,-0.001,0.018,0.644,-0.497,190.17,-0.050000
20:51:37:972,0.019,-0.009,0.984,0.001,-0.002,-0.001,0.022,0.646,-0.493,190.14,-0.030000
20:51:37:983,0.017,-0.010,0.985,0.001,-0.002,-0.001,0.019,0.648,-0.498,190.46,0.320000
20:51:37:995,0.017,-0.010,0.984,0.001,-0.002,-0.001,0.020,0.646,-0.495,190.17,-0.290000
20:51:38:006,0.018,-0.010,0.984,0.002,-0.002,-0.001,0.020,0.646,-0.495,190.74,0.570000
20:51:38:017,0.017,-0.010,0.986,0.001,-0.002,-0.000,0.019,0.645,-0.493,191.01,0.270000
20:51:38:028,0.018,-0.010,0.985,0.001,-0.001,-0.001,0.019,0.643,-0.491,190.68,-0.330000
20:51:38:039,0.017,-0.010,0.984,0.001,-0.001,-0.001,0.018,0.642,-0.493,190.20,-0.480000
20:51:38:049,0.018,-0.011,0.985,0.001,-0.001,-0.001,0.017,0.650,-0.491,190.21,0.010000
20:51:38:060,0.017,-0.010,0.985,0.001,-0.002,-0.001,0.018,0.645,-0.499,190.73,0.520000
20:51:38:071,0.018,-0.010,0.985,0.001,-0.002,-0.001,0.019,0.650,-0.490,190.99,0.260000
20:51:38:082,0.017,-0.010,0.984,0.001,-0.002,-0.001,0.019,0.650,-0.490,190.07,-0.920000
20:51:38:093,0.019,-0.011,0.986,0.001,-0.002,-0.001,0.014,0.649,-0.495,190.45,0.380000
20:51:38:104,0.019,-0.010,0.985,0.001,-0.001,-0.001,0.015,0.650,-0.492,190.29,-0.160000
20:51:38:115,0.017,-0.011,0.983,0.001,-0.002,-0.001,0.015,0.651,-0.487,190.32,0.030000
20:51:38:126,0.018,-0.009,0.983,0.001,-0.001,-0.001,0.022,0.651,-0.492,190.72,0.400000
20:51:38:137,0.016,-0.010,0.984,0.001,-0.001,-0.001,0.021,0.652,-0.496,190.78,0.060000
20:51:38:148,0.018,-0.010,0.984,0.001,-0.002,-0.000,0.021,0.649,-0.501,190.59,-0.190000
20:51:38:159,0.017,-0.010,0.986,0.001,-0.001,-0.001,0.021,0.649,-0.489,189.94,-0.650000
20:51:38:170,0.018,-0.010,0.986,0.001,-0.002,-0.000,0.018,0.651,-0.489,190.53,0.590000
20:51:38:181,0.018,-0.010,0.985,0.001,-0.001,-0.000,0.016,0.653,-0.493,190.04,-0.490000
20:51:38:192,0.018,-0.010,0.984,0.001,-0.002,-0.001,0.016,0.651,-0.493,190.07,0.030000
20:51:38:204,0.017,-0.009,0.985,0.001,-0.002,-0.001,0.019,0.649,-0.499,189.71,-0.360000
20:51:38:214,0.018,-0.010,0.985,0.001,-0.002,-0.001,0.020,0.655,-0.491,190.29,0.580000
20:51:38:226,0.018,-0.009,0.984,0.001,-0.002,-0.001,0.023,0.654,-0.495,190.65,0.360000
20:51:38:236,0.019,-0.011,0.984,0.001,-0.002,-0.001,0.023,0.653,-0.492,190.60,-0.050000
20:51:38:248,0.018,-0.010,0.986,0.001,-0.002,-0.001,0.022,0.653,-0.492,190.39,-0.210000
20:51:38:258,0.018,-0.010,0.985,0.001,-0.002,-0.001,0.023,0.653,-0.492,190.25,-0.140000
20:51:38:269,0.018,-0.010,0.986,0.001,-0.002,-0.001,0.023,0.646,-0.490,190.62,0.370000
20:51:38:280,0.018,-0.010,0.985,0.001,-0.002,-0.001,0.014,0.646,-0.496,190.48,-0.140000
20:51:38:291,0.018,-0.010,0.984,0.001,-0.001,-0.001,0.017,0.648,-0.494,190.64,0.160000
20:51:38:302,0.018,-0.010,0.985,0.001,-0.001,-0.001,0.016,0.649,-0.492,190.52,-0.120000
20:51:38:313,0.018,-0.009,0.985,0.001,-0.002,-0.001,0.020,0.652,-0.490,190.33,-0.190000
20:51:38:324,0.017,-0.010,0.984,0.001,-0.002,-0.001,0.020,0.652,-0.490,190.26,-0.070000
20:51:38:335,0.018,-0.010,0.984,0.001,-0.002,-0.001,0.018,0.646,-0.491,190.44,0.180000
20:51:38:346,0.018,-0.010,0.986,0.000,-0.002,-0.001,0.021,0.646,-0.492,189.89,-0.550000
20:51:38:357,0.018,-0.010,0.984,0.000,-0.002,-0.001,0.017,0.647,-0.496,190.15,0.260000
20:51:38:368,0.018,-0.010,0.985,0.001,-0.002,-0.000,0.017,0.647,-0.494,190.04,-0.110000
20:51:38:379,0.018,-0.010,0.984,0.001,-0.001,-0.001,0.020,0.647,-0.495,190.30,0.260000
20:51:38:391,0.018,-0.010,0.984,0.001,-0.002,-0.000,0.023,0.652,-0.493,190.07,-0.230000
20:51:38:401,0.017,-0.011,0.983,0.001,-0.001,-0.001,0.023,0.652,-0.493,190.35,0.280000
20:51:38:413,0.015,-0.010,0.986,0.001,-0.002,-0.001,0.026,0.647,-0.492,190.28,-0.070000
20:51:38:423,0.018,-0.009,0.985,0.001,-0.002,-0.001,0.024,0.653,-0.501,190.15,-0.130000
20:51:38:434,0.017,-0.010,0.985,0.001,-0.002,-0.001,0.017,0.648,-0.496,190.59,0.440000
20:51:38:446,0.017,-0.010,0.984,0.001,-0.002,-0.001,0.020,0.650,-0.491,190.34,-0.250000
20:51:38:456,0.017,-0.010,0.985,0.001,-0.002,-0.001,0.021,0.650,-0.489,190.79,0.450000
20:51:38:467,0.018,-0.010,0.985,0.001,-0.002,-0.001,0.021,0.648,-0.485,190.69,-0.100000
20:51:38:478,0.018,-0.010,0.985,0.001,-0.001,-0.000,0.021,0.648,-0.485,189.94,-0.750000
20:51:38:489,0.017,-0.010,0.985,0.001,-0.002,-0.001,0.021,0.648,-0.485,190.96,1.020000
20:51:38:500,0.016,-0.011,0.985,0.001,-0.002,-0.000,0.018,0.649,-0.489,190.50,-0.460000
20:51:38:511,0.017,-0.010,0.985,0.001,-0.002,-0.001,0.021,0.648,-0.484,189.93,-0.570000
20:51:38:522,0.016,-0.009,0.984,0.001,-0.001,-0.001,0.022,0.646,-0.490,190.04,0.110000
20:51:38:533,0.018,-0.009,0.983,0.001,-0.002,-0.001,0.019,0.648,-0.492,190.86,0.820000
20:51:38:544,0.017,-0.009,0.985,0.001,-0.001,-0.001,0.022,0.652,-0.493,189.52,-1.340000
20:51:38:555,0.017,-0.010,0.984,0.001,-0.002,-0.000,0.022,0.652,-0.493,190.08,0.560000
20:51:38:566,0.017,-0.011,0.986,0.001,-0.001,-0.001,0.024,0.652,-0.489,190.65,0.570000
20:51:38:577,0.017,-0.009,0.983,0.001,-0.002,-0.000,0.018,0.647,-0.483,190.60,-0.050000
20:51:38:588,0.017,-0.010,0.986,0.001,-0.002,-0.001,0.021,0.649,-0.488,190.75,0.150000
20:51:38:599,0.018,-0.011,0.986,0.001,-0.002,-0.000,0.021,0.650,-0.491,190.12,-0.630000
20:51:38:610,0.018,-0.009,0.985,0.001,-0.002,-0.001,0.023,0.645,-0.487,190.03,-0.090000
20:51:38:621,0.016,-0.011,0.984,0.001,-0.002,-0.001,0.022,0.648,-0.493,190.01,-0.020000
20:51:38:632,0.017,-0.010,0.984,0.001,-0.002,-0.001,0.022,0.648,-0.493,190.35,0.340000
20:51:38:643,0.018,-0.010,0.985,0.001,-0.002,-0.001,0.026,0.650,-0.485,189.86,-0.490000
20:51:38:654,0.017,-0.009,0.984,0.001,-0.002,-0.001,0.025,0.647,-0.494,190.38,0.520000
20:51:38:665,0.018,-0.010,0.985,0.001,-0.001,-0.001,0.025,0.649,-0.493,191.00,0.620000
20:51:38:676,0.017,-0.010,0.982,0.001,-0.001,-0.001,0.022,0.648,-0.487,190.32,-0.680000
20:51:38:687,0.017,-0.010,0.985,0.001,-0.002,-0.001,0.021,0.649,-0.493,189.92,-0.400000
20:51:38:698,0.016,-0.010,0.984,0.001,-0.002,-0.001,0.024,0.648,-0.489,190.57,0.650000
20:51:38:709,0.019,-0.010,0.986,0.001,-0.002,-0.001,0.024,0.648,-0.489,190.35,-0.220000
20:51:38:720,0.017,-0.010,0.984,0.001,-0.002,-0.001,0.024,0.649,-0.496,190.27,-0.080000
20:51:38:731,0.016,-0.010,0.986,0.001,-0.002,-0.001,0.023,0.647,-0.496,190.34,0.070000
20:51:38:742,0.017,-0.009,0.986,0.001,-0.002,-0.001,0.018,0.651,-0.489,189.82,-0.520000
20:51:38:753,0.017,-0.010,0.985,0.001,-0.002,-0.001,0.019,0.650,-0.490,190.12,0.300000
20:51:38:764,0.018,-0.009,0.982,0.001,-0.002,-0.001,0.018,0.651,-0.490,190.16,0.040000
20:51:38:775,0.017,-0.010,0.984,0.000,-0.002,-0.001,0.023,0.642,-0.491,189.95,-0.210000
20:51:38:786,0.017,-0.010,0.985,0.001,-0.002,-0.000,0.023,0.642,-0.491,190.95,1.000000
20:51:38:797,0.018,-0.010,0.983,0.001,-0.001,-0.001,0.023,0.645,-0.487,190.20,-0.750000
20:51:38:808,0.017,-0.010,0.985,0.001,-0.002,-0.001,0.020,0.643,-0.485,189.96,-0.240000
20:51:38:819,0.018,-0.010,0.984,0.001,-0.002,-0.001,0.018,0.646,-0.485,190.29,0.330000
20:51:38:830,0.017,-0.010,0.985,0.001,-0.002,-0.001,0.019,0.648,-0.496,190.12,-0.170000
20:51:38:841,0.018,-0.010,0.984,0.001,-0.002,-0.001,0.019,0.645,-0.493,189.61,-0.510000
20:51:38:852,0.016,-0.010,0.984,0.001,-0.002,-0.001,0.015,0.647,-0.492,190.32,0.710000
20:51:38:863,0.017,-0.010,0.986,0.001,-0.001,-0.001,0.015,0.647,-0.493,190.53,0.210000
20:51:38:874,0.017,-0.010,0.984,0.001,-0.002,-0.001,0.019,0.650,-0.493,190.11,-0.420000
20:51:38:885,0.017,-0.010,0.986,0.001,-0.001,-0.001,0.025,0.647,-0.490,190.30,0.190000
20:51:38:896,0.018,-0.010,0.983,0.001,-0.001,-0.001,0.020,0.650,-0.492,190.06,-0.240000
20:51:38:907,0.018,-0.010,0.984,0.001,-0.001,-0.001,0.024,0.652,-0.496,190.12,0.060000
20:51:38:918,0.017,-0.010,0.985,0.001,-0.001,-0.001,0.019,0.652,-0.493,190.61,0.490000
20:51:38:929,0.018,-0.009,0.985,0.001,-0.001,-0.001,0.022,0.653,-0.495,190.34,-0.270000
20:51:38:940,0.016,-0.011,0.984,0.001,-0.002,-0.001,0.022,0.652,-0.494,190.24,-0.100000
20:51:38:951,0.017,-0.009,0.985,0.001,-0.001,-0.001,0.021,0.652,-0.494,189.95,-0.290000
20:51:38:962,0.017,-0.010,0.984,0.001,-0.001,-0.001,0.018,0.653,-0.497,190.18,0.230000
20:51:38:973,0.017,-0.010,0.984,0.001,-0.002,-0.001,0.023,0.652,-0.501,190.33,0.150000
20:51:38:984,0.018,-0.010,0.985,0.001,-0.001,-0.000,0.023,0.652,-0.499,189.47,-0.860000
20:51:38:995,0.017,-0.010,0.985,0.001,-0.001,-0.001,0.023,0.650,-0.495,190.04,0.570000
20:51:39:006,0.017,-0.010,0.984,0.001,-0.002,-0.001,0.018,0.654,-0.496,190.46,0.420000
20:51:39:018,0.019,-0.010,0.984,0.001,-0.001,-0.001,0.021,0.651,-0.494,189.86,-0.600000
20:51:39:029,0.018,-0.010,0.986,0.001,-0.002,-0.001,0.021,0.651,-0.494,190.79,0.930000
20:51:39:040,0.018,-0.010,0.982,0.001,-0.002,-0.001,0.021,0.655,-0.493,190.46,-0.330000
20:51:39:051,0.017,-0.009,0.983,0.002,-0.002,-0.001,0.026,0.650,-0.500,190.67,0.210000
20:51:39:061,0.018,-0.011,0.985,0.001,-0.002,-0.000,0.017,0.651,-0.495,189.94,-0.730000
20:51:39:072,0.017,-0.011,0.985,0.001,-0.001,-0.001,0.023,0.650,-0.497,190.05,0.110000
20:51:39:083,0.018,-0.010,0.985,0.001,-0.001,-0.001,0.018,0.653,-0.495,189.96,-0.090000
20:51:39:094,0.018,-0.009,0.983,0.001,-0.002,-0.001,0.022,0.647,-0.501,190.61,0.650000
20:51:39:105,0.017,-0.009,0.985,0.001,-0.002,-0.001,0.022,0.647,-0.501,190.04,-0.570000
20:51:39:116,0.017,-0.010,0.984,0.001,-0.002,-0.001,0.021,0.648,-0.491,189.73,-0.310000
20:51:39:127,0.018,-0.010,0.984,0.001,-0.002,-0.001,0.023,0.650,-0.497,190.70,0.970000
20:51:39:138,0.016,-0.009,0.985,0.001,-0.002,-0.001,0.021,0.653,-0.495,190.71,0.010000
20:51:39:149,0.017,-0.009,0.986,0.001,-0.002,-0.001,0.020,0.652,-0.495,190.00,-0.710000
20:51:39:160,0.017,-0.010,0.984,0.001,-0.001,-0.001,0.020,0.649,-0.494,189.89,-0.110000
20:51:39:171,0.018,-0.010,0.985,0.001,-0.002,-0.001,0.018,0.655,-0.492,190.11,0.220000
20:51:39:182,0.018,-0.010,0.987,0.001,-0.002,-0.001,0.018,0.655,-0.492,190.42,0.310000
20:51:39:194,0.018,-0.010,0.984,0.001,-0.001,-0.001,0.019,0.654,-0.491,189.58,-0.840000
20:51:39:204,0.017,-0.010,0.984,0.002,-0.001,-0.001,0.022,0.651,-0.487,190.75,1.170000
20:51:39:215,0.016,-0.010,0.985,0.001,-0.001,-0.001,0.023,0.651,-0.497,190.18,-0.570000
20:51:39:226,0.018,-0.010,0.986,0.001,-0.001,-0.001,0.022,0.648,-0.494,190.23,0.050000
20:51:39:237,0.018,-0.009,0.982,0.001,-0.001,-0.001,0.027,0.650,-0.492,190.67,0.440000
20:51:39:248,0.018,-0.010,0.985,0.001,-0.001,-0.001,0.023,0.649,-0.496,190.25,-0.420000
20:51:39:259,0.017,-0.010,0.984,0.001,-0.001,-0.001,0.023,0.649,-0.496,190.14,-0.110000
20:51:39:270,0.017,-0.010,0.986,0.001,-0.002,-0.001,0.021,0.647,-0.498,190.50,0.360000
20:51:39:281,0.018,-0.010,0.984,0.001,-0.001,-0.001,0.021,0.651,-0.496,190.83,0.330000
20:51:39:292,0.018,-0.010,0.985,0.001,-0.002,-0.001,0.019,0.649,-0.486,189.96,-0.870000
20:51:39:303,0.016,-0.010,0.986,0.001,-0.002,-0.001,0.019,0.652,-0.493,190.01,0.050000
20:51:39:314,0.017,-0.010,0.986,0.001,-0.001,-0.001,0.022,0.648,-0.496,190.93,0.920000
20:51:39:325,0.017,-0.010,0.984,0.001,-0.001,-0.001,0.019,0.650,-0.498,189.92,-1.010000
20:51:39:336,0.016,-0.009,0.985,0.001,-0.001,-0.001,0.019,0.650,-0.498,190.53,0.610000
20:51:39:347,0.018,-0.011,0.984,0.001,-0.002,-0.001,0.022,0.650,-0.492,190.21,-0.320000
20:51:39:358,0.017,-0.010,0.984,0.001,-0.002,-0.001,0.018,0.650,-0.489,190.20,-0.010000
20:51:39:369,0.017,-0.010,0.986,0.001,-0.002,-0.001,0.023,0.648,-0.493,190.67,0.470000
20:51:39:380,0.017,-0.010,0.986,0.001,-0.002,-0.001,0.018,0.645,-0.493,190.36,-0.310000
20:51:39:391,0.017,-0.009,0.985,0.001,-0.002,-0.001,0.021,0.646,-0.492,189.96,-0.400000
20:51:39:402,0.017,-0.009,0.985,0.001,-0.001,-0.001,0.021,0.647,-0.494,190.63,0.670000
20:51:39:413,0.018,-0.010,0.985,0.001,-0.001,-0.001,0.021,0.647,-0.494,190.11,-0.520000
20:51:39:424,0.018,-0.009,0.985,0.001,-0.001,-0.001,0.026,0.650,-0.496,190.50,0.390000
20:51:39:435,0.017,-0.010,0.984,0.001,-0.002,-0.000,0.019,0.645,-0.493,190.68,0.180000
20:51:39:446,0.018,-0.010,0.984,0.001,-0.002,-0.000,0.019,0.651,-0.489,190.25,-0.430000
20:51:39:457,0.018,-0.009,0.985,0.001,-0.002,-0.001,0.021,0.649,-0.496,189.78,-0.470000
20:51:39:468,0.017,-0.009,0.985,0.001,-0.002,-0.001,0.019,0.652,-0.494,190.46,0.680000
20:51:39:479,0.017,-0.010,0.984,0.001,-0.002,-0.001,0.021,0.648,-0.493,189.76,-0.700000
20:51:39:490,0.017,-0.009,0.985,0.000,-0.002,-0.001,0.021,0.648,-0.493,190.48,0.720000
20:51:39:501,0.018,-0.009,0.984,0.001,-0.001,-0.000,0.022,0.652,-0.493,189.85,-0.630000
20:51:39:512,0.017,-0.010,0.983,0.001,-0.002,-0.001,0.023,0.651,-0.498,190.09,0.240000
20:51:39:524,0.018,-0.009,0.984,0.001,-0.002,-0.000,0.022,0.654,-0.498,190.39,0.300000
20:51:39:534,0.017,-0.011,0.985,0.001,-0.002,-0.001,0.024,0.654,-0.495,190.57,0.180000
20:51:39:546,0.017,-0.010,0.984,0.001,-0.002,-0.001,0.021,0.651,-0.496,189.93,-0.640000
20:51:39:556,0.017,-0.010,0.985,0.001,-0.002,-0.001,0.021,0.654,-0.498,190.50,0.570000
20:51:39:567,0.019,-0.010,0.986,0.001,-0.002,-0.001,0.021,0.654,-0.498,190.05,-0.450000
20:51:39:578,0.017,-0.009,0.986,0.001,-0.001,-0.000,0.023,0.653,-0.496,190.25,0.200000
20:51:39:589,0.017,-0.008,0.984,0.001,-0.001,-0.000,0.026,0.651,-0.492,190.86,0.610000
20:51:39:600,0.018,-0.009,0.984,0.001,-0.002,-0.001,0.025,0.653,-0.498,190.32,-0.540000
20:51:39:611,0.016,-0.010,0.985,0.001,-0.002,-0.000,0.023,0.652,-0.492,189.88,-0.440000
20:51:39:622,0.017,-0.010,0.986,0.001,-0.002,-0.001,0.022,0.652,-0.489,190.65,0.770000
20:51:39:633,0.016,-0.010,0.983,0.001,-0.001,-0.001,0.024,0.652,-0.493,189.98,-0.670000
20:51:39:644,0.019,-0.010,0.984,0.001,-0.001,-0.001,0.024,0.652,-0.492,191.12,1.140000
20:51:39:655,0.019,-0.009,0.984,0.001,-0.002,-0.000,0.024,0.650,-0.492,190.58,-0.540000
20:51:39:666,0.018,-0.009,0.985,0.001,-0.002,-0.001,0.020,0.651,-0.497,189.63,-0.950000
20:51:39:677,0.018,-0.009,0.983,0.001,-0.002,-0.001,0.022,0.652,-0.494,189.90,0.270000
20:51:39:688,0.017,-0.010,0.985,0.001,-0.001,-0.001,0.020,0.650,-0.491,190.62,0.720000
20:51:39:699,0.017,-0.010,0.984,0.001,-0.002,-0.001,0.016,0.647,-0.496,190.06,-0.560000
20:51:39:710,0.016,-0.011,0.984,0.001,-0.001,-0.001,0.021,0.649,-0.489,190.19,0.130000
20:51:39:721,0.017,-0.011,0.984,0.001,-0.002,-0.001,0.021,0.647,-0.491,190.33,0.140000
20:51:39:732,0.018,-0.010,0.985,0.001,-0.002,-0.001,0.016,0.647,-0.491,190.35,0.020000
20:51:39:743,0.019,-0.010,0.983,0.001,-0.002,-0.001,0.020,0.652,-0.491,190.52,0.170000
20:51:39:754,0.017,-0.010,0.983,0.001,-0.002,-0.001,0.017,0.645,-0.488,189.78,-0.740000
20:51:39:765,0.017,-0.010,0.985,0.001,-0.002,-0.001,0.018,0.649,-0.489,189.85,0.070000
20:51:39:776,0.017,-0.010,0.986,0.001,-0.002,-0.001,0.020,0.654,-0.487,190.36,0.510000
20:51:39:788,0.017,-0.010,0.985,0.001,-0.002,-0.001,0.019,0.651,-0.488,189.47,-0.890000
20:51:39:799,0.018,-0.010,0.985,0.001,-0.002,-0.001,0.023,0.651,-0.490,190.35,0.880000
20:51:39:810,0.017,-0.009,0.986,0.001,-0.002,-0.001,0.023,0.651,-0.490,190.23,-0.120000
20:51:39:820,0.018,-0.010,0.984,0.001,-0.002,-0.001,0.020,0.650,-0.490,190.50,0.270000
20:51:39:832,0.019,-0.010,0.982,0.001,-0.002,-0.001,0.022,0.649,-0.491,190.30,-0.200000
20:51:39:842,0.019,-0.010,0.983,0.002,-0.002,-0.001,0.020,0.652,-0.491,190.15,-0.150000
20:51:39:854,0.018,-0.009,0.986,0.001,-0.002,-0.001,0.019,0.649,-0.492,190.74,0.590000
20:51:39:864,0.018,-0.011,0.986,0.001,-0.002,-0.001,0.019,0.648,-0.489,190.29,-0.450000
20:51:39:875,0.017,-0.010,0.984,0.001,-0.002,-0.001,0.020,0.650,-0.488,189.61,-0.680000
20:51:39:886,0.018,-0.009,0.985,0.001,-0.002,-0.001,0.020,0.650,-0.488,190.94,1.330000
20:51:39:897,0.018,-0.009,0.985,0.001,-0.001,-0.000,0.017,0.648,-0.483,190.08,-0.860000
20:51:39:908,0.018,-0.009,0.984,0.001,-0.001,-0.001,0.022,0.644,-0.484,189.82,-0.260000
20:51:39:919,0.017,-0.011,0.986,0.001,-0.002,-0.001,0.018,0.645,-0.479,190.54,0.720000
20:51:39:930,0.017,-0.009,0.985,0.001,-0.002,-0.001,0.021,0.644,-0.486,189.64,-0.900000
20:51:39:941,0.019,-0.010,0.984,0.001,-0.002,-0.001,0.018,0.644,-0.487,189.96,0.320000
20:51:39:952,0.017,-0.010,0.984,0.001,-0.001,-0.000,0.019,0.648,-0.485,190.13,0.170000
20:51:39:963,0.018,-0.009,0.986,0.001,-0.002,-0.001,0.019,0.648,-0.485,190.13,0.000000
20:51:39:974,0.017,-0.010,0.986,0.001,-0.001,-0.001,0.023,0.645,-0.481,190.48,0.350000
20:51:39:985,0.017,-0.010,0.983,0.001,-0.001,-0.001,0.019,0.648,-0.485,190.22,-0.260000
20:51:39:996,0.017,-0.010,0.983,0.001,-0.001,-0.001,0.022,0.646,-0.485,190.83,0.610000
20:51:40:007,0.018,-0.010,0.985,0.001,-0.002,-0.001,0.020,0.650,-0.483,190.43,-0.400000
20:51:40:018,0.017,-0.010,0.985,0.001,-0.002,-0.001,0.023,0.649,-0.478,190.30,-0.130000
20:51:40:029,0.017,-0.010,0.984,0.001,-0.002,-0.001,0.022,0.648,-0.478,190.15,-0.150000
20:51:40:041,0.017,-0.010,0.984,0.001,-0.001,-0.001,0.022,0.648,-0.478,190.00,-0.150000
20:51:40:051,0.017,-0.010,0.984,0.001,-0.002,-0.001,0.023,0.649,-0.485,190.55,0.550000
20:51:40:062,0.017,-0.009,0.985,0.001,-0.002,-0.001,0.023,0.649,-0.481,190.43,-0.120000
20:51:40:073,0.018,-0.010,0.983,0.001,-0.002,-0.001,0.020,0.649,-0.480,189.64,-0.790000
20:51:40:084,0.017,-0.010,0.985,0.001,-0.002,-0.000,0.022,0.650,-0.487,190.79,1.150000
20:51:40:095,0.018,-0.011,0.984,0.001,-0.002,-0.000,0.019,0.650,-0.488,190.11,-0.680000
20:51:40:106,0.017,-0.010,0.983,0.001,-0.002,-0.001,0.019,0.646,-0.493,189.66,-0.450000
20:51:40:117,0.017,-0.010,0.984,0.001,-0.002,-0.001,0.019,0.646,-0.493,189.60,-0.060000
20:51:40:128,0.019,-0.009,0.984,0.001,-0.002,-0.001,0.026,0.649,-0.491,190.72,1.120000
20:51:40:139,0.018,-0.010,0.984,0.001,-0.001,-0.000,0.021,0.645,-0.484,189.84,-0.880000
20:51:40:150,0.017,-0.009,0.984,0.001,-0.001,-0.001,0.021,0.646,-0.484,190.27,0.430000
20:51:40:161,0.018,-0.010,0.985,0.002,-0.002,-0.001,0.020,0.642,-0.483,190.22,-0.050000
20:51:40:172,0.019,-0.010,0.983,0.001,-0.002,-0.001,0.023,0.650,-0.488,189.28,-0.940000
20:51:40:183,0.017,-0.010,0.985,0.000,-0.002,-0.001,0.015,0.649,-0.488,190.96,1.680000
20:51:40:194,0.017,-0.010,0.984,0.001,-0.002,-0.001,0.015,0.649,-0.488,190.43,-0.530000
20:51:40:205,0.019,-0.010,0.984,0.001,-0.002,-0.001,0.021,0.652,-0.490,190.49,0.060000
20:51:40:216,0.018,-0.010,0.984,0.001,-0.002,-0.001,0.017,0.653,-0.491,190.15,-0.340000
20:51:40:227,0.019,-0.010,0.986,0.001,-0.002,-0.001,0.021,0.651,-0.492,190.02,-0.130000
20:51:40:238,0.018,-0.010,0.984,0.001,-0.002,-0.001,0.024,0.650,-0.489,189.63,-0.390000
20:51:40:249,0.017,-0.010,0.983,0.001,-0.002,-0.001,0.022,0.651,-0.486,190.23,0.600000
20:51:40:260,0.016,-0.009,0.985,0.001,-0.002,-0.000,0.019,0.651,-0.487,190.35,0.120000
20:51:40:271,0.017,-0.011,0.984,0.001,-0.002,-0.001,0.019,0.651,-0.487,190.03,-0.320000
20:51:40:282,0.017,-0.009,0.984,0.001,-0.001,-0.001,0.021,0.652,-0.484,189.75,-0.280000
20:51:40:294,0.016,-0.011,0.984,0.001,-0.002,-0.001,0.020,0.648,-0.488,190.28,0.530000
20:51:40:305,0.018,-0.010,0.984,0.001,-0.002,-0.001,0.019,0.651,-0.483,190.50,0.220000
20:51:40:316,0.017,-0.010,0.983,0.001,-0.002,-0.001,0.019,0.644,-0.486,190.28,-0.220000
20:51:40:327,0.017,-0.009,0.985,0.001,-0.002,-0.000,0.021,0.649,-0.487,190.74,0.460000
20:51:40:337,0.018,-0.009,0.986,0.001,-0.002,-0.001,0.026,0.648,-0.489,190.68,-0.060000
20:51:40:348,0.018,-0.009,0.985,0.001,-0.002,-0.001,0.026,0.648,-0.489,190.31,-0.370000
20:51:40:360,0.017,-0.010,0.983,0.001,-0.002,-0.001,0.022,0.645,-0.483,190.22,-0.090000
20:51:40:370,0.018,-0.010,0.985,0.001,-0.002,-0.001,0.023,0.646,-0.490,189.91,-0.310000
20:51:40:381,0.018,-0.010,0.985,0.001,-0.002,-0.001,0.024,0.647,-0.490,189.93,0.020000
20:51:40:392,0.017,-0.009,0.984,0.001,-0.002,-0.001,0.024,0.648,-0.486,190.54,0.610000
20:51:40:403,0.018,-0.010,0.985,0.001,-0.002,-0.001,0.019,0.649,-0.486,190.57,0.030000
20:51:40:414,0.016,-0.009,0.984,0.001,-0.002,-0.001,0.020,0.652,-0.487,190.24,-0.330000
20:51:40:425,0.018,-0.011,0.985,0.001,-0.001,-0.001,0.020,0.652,-0.487,189.96,-0.280000
20:51:40:436,0.018,-0.010,0.986,0.001,-0.002,-0.001,0.021,0.647,-0.487,190.20,0.240000
20:51:40:447,0.017,-0.009,0.985,0.001,-0.002,-0.001,0.019,0.649,-0.490,190.06,-0.140000
20:51:40:458,0.017,-0.011,0.984,0.001,-0.001,-0.001,0.020,0.647,-0.492,190.71,0.650000
20:51:40:469,0.017,-0.010,0.983,0.001,-0.001,-0.001,0.021,0.646,-0.484,190.03,-0.680000
20:51:40:480,0.017,-0.011,0.985,0.001,-0.001,-0.001,0.018,0.648,-0.488,189.97,-0.060000
20:51:40:491,0.016,-0.010,0.984,0.001,-0.002,-0.000,0.022,0.648,-0.490,190.58,0.610000
20:51:40:502,0.017,-0.010,0.984,0.001,-0.002,-0.000,0.022,0.650,-0.496,190.45,-0.130000
20:51:40:513,0.018,-0.010,0.984,0.001,-0.002,-0.001,0.019,0.650,-0.496,190.26,-0.190000
20:51:40:524,0.017,-0.009,0.986,0.001,-0.002,-0.000,0.021,0.652,-0.488,190.09,-0.170000
20:51:40:535,0.017,-0.009,0.985,0.001,-0.001,-0.000,0.023,0.649,-0.490,189.71,-0.380000
20:51:40:547,0.018,-0.009,0.983,0.001,-0.001,-0.001,0.019,0.651,-0.487,189.81,0.100000
20:51:40:557,0.016,-0.010,0.986,0.001,-0.002,-0.001,0.021,0.652,-0.490,190.50,0.690000
20:51:40:568,0.018,-0.009,0.984,0.001,-0.001,-0.001,0.015,0.650,-0.491,190.62,0.120000
20:51:40:579,0.017,-0.009,0.985,0.001,-0.001,-0.001,0.019,0.652,-0.485,191.15,0.530000
20:51:40:590,0.018,-0.010,0.984,0.001,-0.002,-0.001,0.019,0.652,-0.485,189.76,-1.390000
20:51:40:601,0.018,-0.009,0.985,0.001,-0.002,-0.001,0.018,0.651,-0.486,190.81,1.050000
20:51:40:612,0.018,-0.009,0.984,0.001,-0.002,-0.001,0.024,0.652,-0.490,190.53,-0.280000
20:51:40:623,0.017,-0.010,0.984,0.001,-0.002,-0.001,0.019,0.650,-0.491,190.36,-0.170000
20:51:40:634,0.018,-0.010,0.986,0.001,-0.001,-0.000,0.023,0.647,-0.487,190.43,0.070000
20:51:40:645,0.017,-0.010,0.983,0.001,-0.001,-0.001,0.020,0.648,-0.484,190.16,-0.270000
20:51:40:656,0.018,-0.010,0.985,0.001,-0.002,-0.001,0.025,0.648,-0.484,190.23,0.070000
20:51:40:667,0.017,-0.010,0.985,0.001,-0.002,-0.001,0.025,0.648,-0.484,190.28,0.050000
20:51:40:678,0.016,-0.011,0.985,0.001,-0.002,-0.001,0.024,0.648,-0.482,189.93,-0.350000
20:51:40:689,0.017,-0.011,0.984,0.001,-0.002,-0.001,0.019,0.646,-0.487,190.60,0.670000
20:51:40:700,0.018,-0.010,0.984,0.001,-0.001,-0.000,0.020,0.647,-0.486,190.17,-0.430000
20:51:40:711,0.018,-0.009,0.984,0.001,-0.001,-0.001,0.022,0.646,-0.484,190.34,0.170000
20:51:40:722,0.017,-0.009,0.985,0.001,-0.001,-0.001,0.019,0.648,-0.491,189.52,-0.820000
20:51:40:733,0.017,-0.011,0.983,0.001,-0.001,-0.001,0.022,0.651,-0.487,190.58,1.060000
20:51:40:744,0.017,-0.010,0.983,0.001,-0.002,-0.001,0.022,0.651,-0.487,190.06,-0.520000
20:51:40:755,0.018,-0.010,0.984,0.001,-0.002,-0.001,0.022,0.650,-0.489,190.25,0.190000
20:51:40:766,0.017,-0.011,0.984,0.001,-0.001,-0.001,0.023,0.651,-0.487,189.76,-0.490000
20:51:40:777,0.017,-0.010,0.985,0.001,-0.002,-0.001,0.018,0.647,-0.488,190.16,0.400000
20:51:40:788,0.017,-0.009,0.985,0.001,-0.001,-0.001,0.021,0.647,-0.485,190.75,0.590000
20:51:40:799,0.017,-0.009,0.985,0.001,-0.001,-0.001,0.021,0.650,-0.491,190.08,-0.670000
20:51:40:810,0.017,-0.009,0.985,0.001,-0.001,-0.001,0.020,0.648,-0.488,190.37,0.290000
20:51:40:821,0.018,-0.010,0.985,0.001,-0.002,-0.001,0.020,0.648,-0.488,189.88,-0.490000
20:51:40:832,0.015,-0.010,0.985,0.001,-0.002,-0.001,0.019,0.645,-0.489,190.61,0.730000
20:51:40:843,0.017,-0.010,0.984,0.001,-0.002,-0.001,0.017,0.646,-0.489,190.20,-0.410000
20:51:40:854,0.018,-0.009,0.983,0.000,-0.002,-0.001,0.022,0.648,-0.486,190.63,0.430000
20:51:40:865,0.018,-0.010,0.984,0.001,-0.002,-0.001,0.022,0.649,-0.488,190.14,-0.490000
20:51:40:876,0.018,-0.010,0.985,0.001,-0.001,-0.000,0.023,0.649,-0.489,190.52,0.380000
20:51:40:887,0.018,-0.011,0.984,0.001,-0.001,-0.000,0.022,0.646,-0.491,190.88,0.360000
20:51:40:898,0.018,-0.008,0.985,0.001,-0.002,0.000,0.022,0.646,-0.491,190.52,-0.360000
20:51:40:909,0.018,-0.011,0.985,0.001,-0.002,-0.001,0.024,0.648,-0.485,190.15,-0.370000
20:51:40:921,0.018,-0.010,0.983,0.001,-0.001,-0.001,0.017,0.647,-0.484,189.79,-0.360000
20:51:40:931,0.018,-0.009,0.984,0.001,-0.001,-0.001,0.025,0.650,-0.488,190.04,0.250000
20:51:40:943,0.017,-0.009,0.984,0.001,-0.002,-0.001,0.022,0.647,-0.495,190.49,0.450000
20:51:40:954,0.017,-0.010,0.985,0.001,-0.002,-0.001,0.023,0.651,-0.498,189.75,-0.740000
20:51:40:964,0.017,-0.010,0.984,0.001,-0.002,-0.001,0.023,0.651,-0.494,190.62,0.870000
20:51:40:975,0.017,-0.009,0.985,0.001,-0.002,-0.001,0.023,0.651,-0.494,190.58,-0.040000
20:51:40:986,0.019,-0.010,0.984,0.001,-0.002,-0.000,0.024,0.652,-0.494,190.16,-0.420000
20:51:40:997,0.019,-0.009,0.984,0.001,-0.002,-0.001,0.026,0.645,-0.492,189.64,-0.520000
20:51:41:008,0.018,-0.009,0.983,0.001,-0.002,-0.000,0.029,0.648,-0.493,190.90,1.260000
20:51:41:019,0.017,-0.010,0.984,0.001,-0.001,-0.001,0.024,0.648,-0.491,190.13,-0.770000
20:51:41:030,0.016,-0.010,0.984,0.001,-0.002,-0.001,0.026,0.648,-0.493,190.93,0.800000
20:51:41:041,0.017,-0.010,0.985,0.001,-0.002,-0.001,0.027,0.648,-0.488,189.69,-1.240000
20:51:41:052,0.017,-0.010,0.985,0.001,-0.002,-0.001,0.027,0.648,-0.489,189.92,0.230000
20:51:41:063,0.017,-0.010,0.983,0.001,-0.001,-0.001,0.021,0.651,-0.489,190.29,0.370000
20:51:41:074,0.018,-0.010,0.985,0.001,-0.001,-0.001,0.023,0.647,-0.489,189.73,-0.560000
20:51:41:085,0.018,-0.010,0.984,0.001,-0.002,-0.001,0.024,0.654,-0.485,189.64,-0.090000
20:51:41:096,0.017,-0.009,0.985,0.001,-0.002,-0.001,0.024,0.649,-0.483,190.54,0.900000
20:51:41:107,0.017,-0.009,0.984,0.001,-0.002,-0.001,0.022,0.651,-0.482,190.15,-0.390000
20:51:41:118,0.017,-0.011,0.984,0.001,-0.002,-0.001,0.025,0.647,-0.486,190.17,0.020000
20:51:41:129,0.018,-0.011,0.982,0.001,-0.001,-0.001,0.025,0.649,-0.482,190.42,0.250000
20:51:41:140,0.018,-0.010,0.985,0.001,-0.002,-0.001,0.021,0.649,-0.482,190.40,-0.020000
20:51:41:151,0.017,-0.010,0.983,0.001,-0.002,-0.001,0.019,0.647,-0.491,190.39,-0.010000
20:51:41:162,0.018,-0.010,0.985,0.001,-0.002,-0.001,0.020,0.650,-0.489,190.12,-0.270000
20:51:41:173,0.016,-0.010,0.984,0.001,-0.002,-0.001,0.025,0.646,-0.487,190.32,0.200000
20:51:41:184,0.018,-0.009,0.985,0.001,-0.002,-0.001,0.022,0.648,-0.492,190.22,-0.100000
20:51:41:196,0.019,-0.010,0.985,0.001,-0.001,-0.001,0.022,0.646,-0.486,190.12,-0.100000
20:51:41:207,0.018,-0.010,0.983,0.001,-0.001,-0.001,0.023,0.649,-0.489,189.90,-0.220000
20:51:41:217,0.017,-0.010,0.985,0.001,-0.002,-0.000,0.023,0.649,-0.489,190.35,0.450000
20:51:41:229,0.017,-0.011,0.984,0.001,-0.002,-0.001,0.024,0.648,-0.487,190.01,-0.340000
20:51:41:240,0.017,-0.010,0.984,0.001,-0.002,-0.001,0.024,0.651,-0.492,190.13,0.120000
20:51:41:251,0.019,-0.010,0.984,0.001,-0.002,-0.001,0.025,0.649,-0.486,190.37,0.240000
20:51:41:262,0.017,-0.010,0.985,0.001,-0.002,-0.001,0.024,0.649,-0.485,189.92,-0.450000
20:51:41:272,0.017,-0.010,0.984,0.001,-0.002,-0.000,0.021,0.649,-0.486,190.13,0.210000
20:51:41:283,0.018,-0.010,0.986,0.001,-0.002,-0.001,0.020,0.647,-0.487,190.74,0.610000
20:51:41:294,0.018,-0.010,0.984,0.001,-0.002,-0.001,0.020,0.647,-0.487,190.23,-0.510000
20:51:41:305,0.017,-0.009,0.985,0.001,-0.002,-0.000,0.022,0.647,-0.487,189.93,-0.300000
20:51:41:316,0.017,-0.009,0.984,0.001,-0.002,-0.001,0.019,0.643,-0.492,189.79,-0.140000
20:51:41:327,0.017,-0.010,0.984,0.001,-0.002,-0.001,0.023,0.646,-0.485,189.78,-0.010000
20:51:41:338,0.018,-0.011,0.984,0.001,-0.001,-0.001,0.021,0.646,-0.488,189.94,0.160000
20:51:41:349,0.018,-0.010,0.985,0.001,-0.002,-0.001,0.018,0.646,-0.488,190.40,0.460000
20:51:41:360,0.018,-0.008,0.984,0.001,-0.001,-0.001,0.023,0.647,-0.481,190.22,-0.180000
20:51:41:371,0.018,-0.010,0.985,0.001,-0.002,-0.001,0.023,0.647,-0.481,190.70,0.480000
20:51:41:382,0.018,-0.009,0.985,0.001,-0.002,-0.001,0.022,0.648,-0.483,190.19,-0.510000
20:51:41:393,0.017,-0.011,0.984,0.001,-0.001,-0.000,0.021,0.647,-0.487,190.31,0.120000
20:51:41:405,0.018,-0.009,0.985,0.001,-0.002,-0.001,0.017,0.649,-0.486,190.78,0.470000
20:51:41:416,0.017,-0.009,0.985,0.001,-0.001,-0.000,0.024,0.646,-0.486,190.20,-0.580000
20:51:41:427,0.016,-0.010,0.984,0.001,-0.002,-0.001,0.020,0.647,-0.489,190.20,0.000000
20:51:41:438,0.017,-0.010,0.984,0.001,-0.001,-0.001,0.021,0.649,-0.487,190.20,0.000000
20:51:41:449,0.018,-0.010,0.984,0.001,-0.002,-0.001,0.021,0.649,-0.487,190.30,0.100000
20:51:41:459,0.018,-0.009,0.985,0.001,-0.002,-0.001,0.020,0.648,-0.493,190.55,0.250000
20:51:41:470,0.018,-0.011,0.984,0.001,-0.002,-0.001,0.023,0.649,-0.491,189.64,-0.910000
20:51:41:481,0.017,-0.010,0.985,0.001,-0.002,-0.001,0.018,0.641,-0.489,190.04,0.400000
20:51:41:492,0.018,-0.010,0.983,0.001,-0.001,-0.001,0.022,0.646,-0.488,190.45,0.410000
20:51:41:503,0.017,-0.009,0.984,0.001,-0.002,-0.001,0.018,0.646,-0.490,189.98,-0.470000
20:51:41:514,0.017,-0.011,0.984,0.001,-0.002,-0.001,0.022,0.646,-0.488,190.14,0.160000
20:51:41:525,0.017,-0.010,0.983,0.001,-0.002,-0.001,0.022,0.646,-0.488,189.74,-0.400000
20:51:41:536,0.017,-0.011,0.985,0.001,-0.002,-0.001,0.021,0.641,-0.490,191.33,1.590000
20:51:41:547,0.018,-0.010,0.985,0.001,-0.002,-0.001,0.022,0.646,-0.490,190.31,-1.020000
20:51:41:558,0.018,-0.009,0.985,0.001,-0.001,-0.001,0.017,0.643,-0.493,190.05,-0.260000
20:51:41:569,0.017,-0.009,0.985,0.001,-0.002,-0.001,0.016,0.643,-0.490,190.13,0.080000
20:51:41:581,0.016,-0.009,0.985,0.001,-0.001,-0.001,0.014,0.649,-0.491,190.60,0.470000
20:51:41:591,0.017,-0.010,0.986,0.001,-0.002,-0.001,0.019,0.650,-0.493,190.92,0.320000
20:51:41:602,0.017,-0.010,0.983,0.001,-0.002,-0.001,0.019,0.650,-0.493,189.89,-1.030000
20:51:41:613,0.018,-0.010,0.983,0.001,-0.002,-0.001,0.019,0.646,-0.495,189.98,0.090000
20:51:41:624,0.017,-0.009,0.983,0.001,-0.002,-0.001,0.016,0.645,-0.492,190.58,0.600000
20:51:41:635,0.018,-0.010,0.985,0.001,-0.001,-0.001,0.017,0.647,-0.491,190.03,-0.550000
20:51:41:646,0.018,-0.010,0.985,0.000,-0.002,-0.001,0.014,0.651,-0.490,190.12,0.090000
20:51:41:657,0.018,-0.010,0.983,0.001,-0.002,-0.000,0.016,0.644,-0.497,189.79,-0.330000
20:51:41:668,0.017,-0.009,0.985,0.001,-0.002,-0.001,0.016,0.650,-0.493,190.28,0.490000
20:51:41:679,0.017,-0.010,0.982,0.001,-0.002,-0.001,0.016,0.650,-0.493,190.10,-0.180000
20:51:41:690,0.018,-0.010,0.985,0.001,-0.001,-0.000,0.022,0.649,-0.495,189.47,-0.630000
20:51:41:701,0.017,-0.010,0.985,0.001,-0.002,-0.000,0.017,0.649,-0.486,190.27,0.800000
20:51:41:712,0.018,-0.009,0.984,0.001,-0.002,-0.001,0.016,0.649,-0.491,190.27,0.000000
20:51:41:723,0.018,-0.010,0.985,0.001,-0.002,-0.000,0.015,0.652,-0.497,189.96,-0.310000
20:51:41:735,0.017,-0.010,0.984,0.001,-0.002,-0.001,0.021,0.650,-0.486,190.35,0.390000
20:51:41:745,0.016,-0.010,0.984,0.001,-0.002,-0.001,0.015,0.646,-0.495,190.43,0.080000
20:51:41:757,0.018,-0.008,0.984,0.001,-0.002,-0.001,0.015,0.646,-0.491,189.82,-0.610000
20:51:41:767,0.017,-0.010,0.984,0.001,-0.002,-0.001,0.016,0.650,-0.491,190.19,0.370000
20:51:41:778,0.018,-0.010,0.984,0.001,-0.002,-0.001,0.018,0.650,-0.489,190.20,0.010000
20:51:41:789,0.016,-0.011,0.983,0.001,-0.002,-0.000,0.018,0.651,-0.491,190.64,0.440000
20:51:41:800,0.017,-0.011,0.984,0.001,-0.002,-0.001,0.019,0.645,-0.494,190.69,0.050000
20:51:41:811,0.017,-0.011,0.984,0.001,-0.001,-0.001,0.020,0.651,-0.492,190.01,-0.680000
20:51:41:822,0.018,-0.010,0.983,0.001,-0.002,-0.001,0.019,0.649,-0.491,190.02,0.010000
20:51:41:833,0.017,-0.010,0.985,0.001,-0.002,-0.001,0.019,0.651,-0.491,190.25,0.230000
20:51:41:844,0.018,-0.010,0.985,0.001,-0.002,-0.001,0.021,0.651,-0.491,190.46,0.210000
20:51:41:855,0.020,-0.009,0.985,0.001,-0.001,-0.001,0.020,0.648,-0.492,189.36,-1.100000
20:51:41:866,0.018,-0.009,0.984,0.001,-0.002,-0.001,0.016,0.655,-0.493,189.99,0.630000
20:51:41:877,0.018,-0.010,0.984,0.001,-0.002,-0.001,0.019,0.652,-0.485,190.45,0.460000
20:51:41:888,0.018,-0.010,0.984,0.001,-0.002,-0.001,0.019,0.647,-0.485,190.03,-0.420000
20:51:41:900,0.018,-0.010,0.984,0.001,-0.002,-0.001,0.019,0.644,-0.484,190.83,0.800000
20:51:41:911,0.018,-0.010,0.984,0.001,-0.002,-0.000,0.015,0.647,-0.482,190.17,-0.660000
20:51:41:922,0.018,-0.009,0.985,0.001,-0.002,-0.001,0.015,0.647,-0.482,190.31,0.140000
20:51:41:933,0.018,-0.009,0.986,0.001,-0.002,-0.001,0.015,0.651,-0.481,191.07,0.760000
20:51:41:943,0.018,-0.009,0.984,0.002,-0.002,-0.001,0.009,0.648,-0.492,190.13,-0.940000
20:51:41:955,0.017,-0.010,0.984,0.001,-0.002,-0.001,0.015,0.647,-0.490,190.05,-0.080000
20:51:41:965,0.018,-0.011,0.983,0.001,-0.002,-0.000,0.013,0.650,-0.485,190.28,0.230000
20:51:41:976,0.018,-0.010,0.984,0.001,-0.001,-0.001,0.019,0.648,-0.483,190.32,0.040000
20:51:41:987,0.018,-0.009,0.984,0.001,-0.002,-0.001,0.017,0.647,-0.489,190.16,-0.160000
20:51:41:998,0.018,-0.010,0.983,0.001,-0.002,-0.001,0.017,0.647,-0.489,189.77,-0.390000
20:51:42:009,0.018,-0.009,0.985,0.001,-0.002,-0.001,0.020,0.653,-0.486,190.31,0.540000
20:51:42:020,0.016,-0.010,0.984,0.001,-0.002,-0.001,0.018,0.649,-0.490,190.62,0.310000
20:51:42:032,0.017,-0.009,0.984,0.001,-0.002,-0.001,0.017,0.651,-0.489,189.52,-1.100000
20:51:42:042,0.018,-0.010,0.983,0.001,-0.002,-0.001,0.016,0.647,-0.488,190.29,0.770000
20:51:42:053,0.018,-0.009,0.985,0.001,-0.002,-0.001,0.016,0.647,-0.489,190.01,-0.280000
20:51:42:064,0.017,-0.010,0.984,0.001,-0.001,-0.001,0.016,0.644,-0.492,190.27,0.260000
20:51:42:075,0.019,-0.009,0.984,0.001,-0.002,-0.001,0.016,0.644,-0.492,190.04,-0.230000
20:51:42:086,0.018,-0.010,0.985,0.001,-0.002,-0.001,0.012,0.651,-0.490,189.48,-0.560000
20:51:42:097,0.018,-0.010,0.984,0.001,-0.002,-0.001,0.014,0.649,-0.495,189.73,0.250000
20:51:42:108,0.019,-0.010,0.984,0.001,-0.002,-0.001,0.008,0.653,-0.494,189.86,0.130000
20:51:42:119,0.018,-0.009,0.984,0.000,-0.002,-0.000,0.018,0.648,-0.495,190.25,0.390000
20:51:42:130,0.018,-0.009,0.984,0.001,-0.002,-0.001,0.018,0.654,-0.493,190.09,-0.160000
20:51:42:141,0.018,-0.010,0.984,0.001,-0.002,-0.000,0.019,0.646,-0.488,190.76,0.670000
20:51:42:152,0.018,-0.010,0.984,0.001,-0.002,-0.001,0.019,0.646,-0.488,190.21,-0.550000
20:51:42:163,0.018,-0.010,0.984,0.001,-0.001,-0.001,0.014,0.651,-0.489,190.55,0.340000
20:51:42:174,0.018,-0.010,0.983,0.001,-0.001,-0.001,0.017,0.647,-0.494,190.15,-0.400000
20:51:42:185,0.017,-0.010,0.984,0.001,-0.002,-0.001,0.014,0.649,-0.497,190.98,0.830000
20:51:42:197,0.018,-0.010,0.985,0.001,-0.002,-0.000,0.013,0.646,-0.494,190.45,-0.530000
20:51:42:208,0.016,-0.009,0.985,0.001,-0.001,-0.001,0.014,0.650,-0.488,190.43,-0.020000
20:51:42:219,0.018,-0.009,0.984,0.001,-0.001,-0.001,0.016,0.647,-0.496,190.78,0.350000
20:51:42:230,0.017,-0.010,0.985,0.001,-0.001,-0.001,0.016,0.647,-0.496,190.29,-0.490000
20:51:42:241,0.018,-0.010,0.984,0.001,-0.002,-0.001,0.015,0.652,-0.490,190.09,-0.200000
20:51:42:252,0.018,-0.009,0.982,0.001,-0.002,-0.001,0.017,0.649,-0.494,190.57,0.480000
20:51:42:262,0.017,-0.009,0.984,0.001,-0.002,-0.001,0.014,0.647,-0.502,190.54,-0.030000
20:51:42:273,0.018,-0.010,0.984,0.001,-0.001,-0.001,0.017,0.653,-0.495,189.91,-0.630000
20:51:42:284,0.018,-0.010,0.983,0.001,-0.002,-0.001,0.015,0.640,-0.498,190.38,0.470000
20:51:42:295,0.017,-0.010,0.986,0.001,-0.002,-0.001,0.017,0.646,-0.496,190.20,-0.180000
20:51:42:306,0.017,-0.010,0.985,0.001,-0.002,-0.001,0.017,0.646,-0.496,189.99,-0.210000
20:51:42:317,0.018,-0.009,0.985,0.001,-0.002,-0.001,0.018,0.645,-0.492,190.79,0.800000
20:51:42:328,0.019,-0.010,0.984,0.001,-0.002,-0.001,0.019,0.647,-0.489,189.83,-0.960000
20:51:42:339,0.016,-0.009,0.983,0.001,-0.002,-0.000,0.020,0.641,-0.496,190.60,0.770000
20:51:42:350,0.017,-0.010,0.984,0.001,-0.002,-0.001,0.019,0.648,-0.494,190.37,-0.230000
20:51:42:361,0.018,-0.009,0.984,0.001,-0.002,-0.000,0.019,0.646,-0.495,190.10,-0.270000
20:51:42:372,0.018,-0.011,0.985,0.001,-0.002,-0.001,0.021,0.648,-0.494,190.23,0.130000
20:51:42:383,0.018,-0.012,0.984,0.001,-0.002,-0.001,0.021,0.648,-0.494,190.18,-0.050000
20:51:42:395,0.019,-0.010,0.985,0.001,-0.001,-0.000,0.019,0.647,-0.491,190.75,0.570000
20:51:42:405,0.018,-0.011,0.983,0.001,-0.001,-0.000,0.014,0.648,-0.489,190.36,-0.390000
20:51:42:417,0.018,-0.010,0.986,0.001,-0.001,-0.001,0.014,0.647,-0.492,190.30,-0.060000
20:51:42:428,0.018,-0.009,0.984,0.001,-0.002,-0.001,0.013,0.647,-0.496,189.98,-0.320000
20:51:42:439,0.017,-0.010,0.985,0.001,-0.002,-0.001,0.016,0.642,-0.488,190.67,0.690000
20:51:42:450,0.017,-0.010,0.984,0.001,-0.002,-0.000,0.011,0.647,-0.493,190.44,-0.230000
20:51:42:461,0.018,-0.010,0.984,0.001,-0.002,-0.000,0.011,0.647,-0.487,190.12,-0.320000
20:51:42:471,0.018,-0.011,0.984,0.001,-0.002,-0.001,0.016,0.645,-0.487,190.01,-0.110000
20:51:42:482,0.018,-0.009,0.983,0.001,-0.001,-0.001,0.014,0.643,-0.483,189.87,-0.140000
20:51:42:493,0.018,-0.010,0.984,0.001,-0.002,-0.001,0.021,0.643,-0.488,190.31,0.440000
20:51:42:504,0.018,-0.009,0.986,0.001,-0.002,-0.001,0.018,0.646,-0.490,189.61,-0.700000
20:51:42:515,0.018,-0.010,0.984,0.001,-0.002,-0.001,0.017,0.644,-0.490,190.20,0.590000
20:51:42:526,0.018,-0.010,0.984,0.001,-0.002,-0.001,0.016,0.647,-0.486,189.59,-0.610000
20:51:42:537,0.018,-0.010,0.985,0.001,-0.002,-0.001,0.016,0.646,-0.496,189.28,-0.310000
20:51:42:548,0.019,-0.009,0.983,0.001,-0.002,-0.001,0.017,0.646,-0.496,190.45,1.170000
20:51:42:559,0.017,-0.010,0.985,0.001,-0.002,-0.001,0.014,0.641,-0.496,190.31,-0.140000
20:51:42:570,0.017,-0.010,0.984,0.001,-0.002,-0.001,0.019,0.643,-0.494,190.86,0.550000
20:51:42:581,0.018,-0.010,0.984,0.001,-0.002,-0.001,0.014,0.644,-0.494,190.15,-0.710000
20:51:42:592,0.017,-0.010,0.985,0.001,-0.002,-0.001,0.019,0.647,-0.489,190.38,0.230000
20:51:42:604,0.019,-0.011,0.985,0.001,-0.002,-0.001,0.019,0.643,-0.489,190.21,-0.170000
20:51:42:615,0.018,-0.010,0.984,0.001,-0.002,-0.001,0.022,0.647,-0.496,189.91,-0.300000
20:51:42:626,0.018,-0.009,0.984,0.001,-0.002,-0.001,0.022,0.647,-0.496,190.08,0.170000
20:51:42:636,0.018,-0.010,0.985,0.001,-0.002,-0.001,0.018,0.647,-0.495,190.55,0.470000
20:51:42:648,0.018,-0.010,0.983,0.001,-0.002,-0.001,0.020,0.648,-0.492,189.61,-0.940000
20:51:42:658,0.018,-0.010,0.985,0.001,-0.002,-0.001,0.017,0.647,-0.487,190.47,0.860000
20:51:42:669,0.018,-0.010,0.984,0.001,-0.001,-0.001,0.017,0.647,-0.488,190.18,-0.290000
20:51:42:680,0.018,-0.009,0.984,0.001,-0.001,-0.001,0.017,0.645,-0.494,190.11,-0.070000
20:51:42:691,0.018,-0.010,0.984,0.002,-0.002,-0.001,0.020,0.648,-0.491,190.24,0.130000
20:51:42:702,0.018,-0.009,0.984,0.001,-0.002,-0.001,0.020,0.648,-0.491,190.30,0.060000
20:51:42:713,0.019,-0.010,0.984,0.001,-0.001,-0.001,0.020,0.646,-0.487,189.99,-0.310000
20:51:42:724,0.018,-0.010,0.984,0.001,-0.002,-0.001,0.017,0.640,-0.499,190.10,0.110000
20:51:42:735,0.018,-0.010,0.985,0.001,-0.002,-0.000,0.016,0.643,-0.486,190.07,-0.030000
20:51:42:746,0.018,-0.010,0.985,0.001,-0.002,-0.001,0.016,0.645,-0.489,190.61,0.540000
20:51:42:757,0.017,-0.009,0.985,0.001,-0.002,-0.001,0.023,0.647,-0.489,190.43,-0.180000
20:51:42:768,0.017,-0.010,0.984,0.001,-0.002,-0.001,0.016,0.647,-0.494,190.25,-0.180000
20:51:42:779,0.018,-0.009,0.983,0.001,-0.002,-0.001,0.016,0.647,-0.494,190.45,0.200000
20:51:42:790,0.017,-0.010,0.985,0.001,-0.002,-0.001,0.018,0.645,-0.493,190.20,-0.250000
20:51:42:802,0.018,-0.010,0.984,0.001,-0.002,-0.001,0.016,0.644,-0.493,190.48,0.280000
20:51:42:813,0.018,-0.011,0.985,0.001,-0.002,-0.001,0.019,0.649,-0.491,190.08,-0.400000
20:51:42:824,0.017,-0.010,0.984,0.001,-0.002,-0.001,0.013,0.641,-0.492,189.96,-0.120000
20:51:42:834,0.018,-0.010,0.985,0.001,-0.002,-0.001,0.016,0.646,-0.500,190.41,0.450000
20:51:42:846,0.018,-0.010,0.984,0.001,-0.002,-0.001,0.017,0.642,-0.490,190.42,0.010000
20:51:42:857,0.017,-0.010,0.985,0.001,-0.002,-0.001,0.017,0.642,-0.490,190.30,-0.120000
20:51:42:868,0.017,-0.011,0.985,0.001,-0.002,-0.001,0.018,0.648,-0.491,189.77,-0.530000
20:51:42:878,0.018,-0.009,0.984,0.001,-0.002,-0.001,0.015,0.645,-0.493,190.57,0.800000
20:51:42:889,0.017,-0.009,0.984,0.001,-0.001,-0.001,0.018,0.645,-0.492,190.50,-0.070000
20:51:42:900,0.018,-0.009,0.985,0.001,-0.002,-0.001,0.018,0.645,-0.492,189.97,-0.530000
20:51:42:911,0.017,-0.010,0.983,0.001,-0.002,-0.001,0.016,0.648,-0.494,190.38,0.410000
20:51:42:922,0.018,-0.009,0.984,0.001,-0.002,-0.001,0.017,0.648,-0.495,190.64,0.260000
20:51:42:933,0.018,-0.011,0.984,0.001,-0.002,-0.001,0.017,0.648,-0.495,190.31,-0.330000
20:51:42:944,0.018,-0.010,0.985,0.001,-0.001,-0.001,0.016,0.643,-0.486,190.63,0.320000
20:51:42:955,0.017,-0.010,0.985,0.001,-0.002,-0.001,0.017,0.645,-0.490,190.25,-0.380000
20:51:42:966,0.017,-0.009,0.985,0.002,-0.002,-0.001,0.015,0.646,-0.499,189.94,-0.310000
20:51:42:977,0.017,-0.009,0.986,0.001,-0.002,-0.001,0.022,0.649,-0.493,191.04,1.100000
20:51:42:988,0.018,-0.010,0.985,0.001,-0.001,-0.001,0.018,0.647,-0.491,190.44,-0.600000
20:51:43:000,0.017,-0.010,0.984,0.001,-0.002,-0.001,0.020,0.652,-0.489,190.21,-0.230000
20:51:43:010,0.017,-0.010,0.984,0.001,-0.002,-0.001,0.020,0.652,-0.489,190.55,0.340000
20:51:43:021,0.018,-0.010,0.984,0.001,-0.001,-0.001,0.015,0.646,-0.493,190.47,-0.080000
20:51:43:032,0.017,-0.010,0.984,0.001,-0.002,-0.000,0.017,0.648,-0.495,190.29,-0.180000
20:51:43:043,0.017,-0.010,0.985,0.001,-0.002,-0.001,0.018,0.645,-0.499,189.83,-0.460000
20:51:43:054,0.018,-0.010,0.985,0.001,-0.002,-0.001,0.017,0.646,-0.496,190.37,0.540000
20:51:43:065,0.017,-0.010,0.986,0.001,-0.001,-0.001,0.019,0.647,-0.497,190.40,0.030000
20:51:43:076,0.018,-0.009,0.984,0.001,-0.001,-0.001,0.018,0.649,-0.487,189.61,-0.790000
20:51:43:087,0.017,-0.010,0.984,0.001,-0.001,-0.001,0.018,0.649,-0.487,190.43,0.820000
20:51:43:098,0.017,-0.011,0.986,0.001,-0.002,-0.001,0.020,0.649,-0.494,190.49,0.060000
20:51:43:109,0.018,-0.010,0.984,0.001,-0.001,-0.001,0.013,0.648,-0.499,190.77,0.280000
20:51:43:120,0.017,-0.010,0.983,0.001,-0.002,-0.001,0.015,0.648,-0.495,189.76,-1.010000
20:51:43:131,0.017,-0.010,0.984,0.001,-0.001,-0.001,0.017,0.647,-0.498,190.11,0.350000
20:51:43:142,0.017,-0.010,0.985,0.000,-0.002,-0.001,0.018,0.646,-0.498,190.31,0.200000
20:51:43:153,0.016,-0.010,0.983,0.001,-0.002,-0.001,0.022,0.649,-0.494,189.81,-0.500000
20:51:43:164,0.018,-0.010,0.986,0.001,-0.002,-0.001,0.022,0.649,-0.499,190.43,0.620000
20:51:43:175,0.018,-0.009,0.984,0.001,-0.002,-0.001,0.017,0.648,-0.499,190.16,-0.270000
20:51:43:186,0.017,-0.010,0.985,0.001,-0.002,-0.001,0.019,0.652,-0.492,190.37,0.210000
20:51:43:197,0.017,-0.010,0.984,0.001,-0.001,-0.001,0.019,0.651,-0.491,190.33,-0.040000
20:51:43:208,0.018,-0.009,0.985,0.001,-0.002,-0.001,0.018,0.647,-0.494,189.97,-0.360000
20:51:43:219,0.018,-0.009,0.984,0.001,-0.002,-0.001,0.020,0.645,-0.502,190.05,0.080000
20:51:43:230,0.018,-0.010,0.984,0.001,-0.001,-0.001,0.017,0.643,-0.501,189.96,-0.090000
20:51:43:241,0.017,-0.011,0.984,0.001,-0.001,-0.001,0.017,0.651,-0.499,190.35,0.390000
20:51:43:252,0.018,-0.010,0.986,0.001,-0.002,-0.001,0.020,0.651,-0.499,190.09,-0.260000
20:51:43:263,0.017,-0.010,0.984,0.001,-0.002,-0.001,0.018,0.648,-0.501,190.29,0.200000
20:51:43:274,0.017,-0.010,0.985,0.001,-0.002,-0.001,0.014,0.651,-0.491,190.33,0.040000
20:51:43:285,0.019,-0.010,0.984,0.001,-0.002,-0.001,0.015,0.648,-0.497,190.43,0.100000
20:51:43:296,0.017,-0.009,0.984,0.001,-0.001,-0.000,0.015,0.649,-0.497,190.69,0.260000
20:51:43:307,0.017,-0.011,0.984,0.001,-0.002,-0.001,0.018,0.649,-0.499,189.91,-0.780000
20:51:43:318,0.017,-0.009,0.984,0.001,-0.002,-0.001,0.017,0.654,-0.496,190.04,0.130000
20:51:43:329,0.018,-0.010,0.985,0.001,-0.002,-0.001,0.017,0.654,-0.496,189.75,-0.290000
20:51:43:340,0.017,-0.010,0.983,0.001,-0.002,-0.001,0.020,0.649,-0.495,190.16,0.410000
20:51:43:351,0.019,-0.009,0.985,0.001,-0.002,-0.001,0.021,0.653,-0.493,189.95,-0.210000
20:51:43:362,0.020,-0.010,0.984,0.001,-0.002,-0.001,0.016,0.648,-0.497,190.87,0.920000
20:51:43:373,0.018,-0.010,0.985,0.001,-0.002,-0.001,0.017,0.650,-0.493,190.28,-0.590000
20:51:43:384,0.018,-0.009,0.983,0.001,-0.002,-0.000,0.014,0.648,-0.494,190.32,0.040000
20:51:43:395,0.018,-0.010,0.984,0.001,-0.002,-0.001,0.021,0.648,-0.495,190.64,0.320000
20:51:43:406,0.017,-0.011,0.985,0.001,-0.002,-0.000,0.021,0.648,-0.495,190.26,-0.380000
20:51:43:417,0.018,-0.011,0.984,0.001,-0.002,-0.001,0.019,0.645,-0.498,190.19,-0.070000
20:51:43:428,0.018,-0.009,0.983,0.001,-0.002,-0.001,0.017,0.648,-0.501,191.20,1.010000
20:51:43:439,0.016,-0.009,0.985,0.001,-0.002,-0.001,0.017,0.647,-0.497,190.66,-0.540000
20:51:43:450,0.017,-0.010,0.985,0.001,-0.002,-0.001,0.018,0.653,-0.494,190.20,-0.460000
20:51:43:461,0.018,-0.010,0.985,0.001,-0.002,-0.001,0.018,0.651,-0.494,190.30,0.100000
20:51:43:472,0.018,-0.010,0.984,0.001,-0.001,-0.001,0.020,0.650,-0.489,190.18,-0.120000
20:51:43:483,0.017,-0.010,0.986,0.001,-0.001,-0.001,0.020,0.650,-0.489,190.03,-0.150000
20:51:43:494,0.017,-0.010,0.984,0.001,-0.001,-0.001,0.017,0.648,-0.495,189.83,-0.200000
20:51:43:505,0.018,-0.010,0.985,0.001,-0.001,-0.001,0.017,0.647,-0.494,189.86,0.030000
20:51:43:516,0.018,-0.010,0.984,0.001,-0.002,-0.001,0.018,0.649,-0.490,189.93,0.070000
20:51:43:527,0.017,-0.009,0.984,0.001,-0.002,-0.001,0.013,0.647,-0.489,190.02,0.090000
20:51:43:538,0.019,-0.011,0.985,0.001,-0.002,-0.001,0.012,0.641,-0.489,190.27,0.250000
20:51:43:549,0.018,-0.010,0.985,0.001,-0.002,-0.001,0.012,0.645,-0.489,190.21,-0.060000
20:51:43:560,0.018,-0.011,0.984,0.001,-0.001,-0.001,0.012,0.645,-0.489,190.23,0.020000
20:51:43:571,0.019,-0.010,0.985,0.001,-0.002,-0.001,0.016,0.648,-0.498,190.16,-0.070000
20:51:43:582,0.017,-0.010,0.984,0.001,-0.002,-0.001,0.012,0.642,-0.493,190.73,0.570000
20:51:43:593,0.018,-0.010,0.984,0.001,-0.001,-0.001,0.019,0.649,-0.497,190.47,-0.260000
20:51:43:604,0.018,-0.012,0.984,0.001,-0.002,-0.001,0.019,0.646,-0.491,190.74,0.270000
20:51:43:615,0.018,-0.009,0.985,0.001,-0.002,-0.001,0.020,0.648,-0.495,190.48,-0.260000
20:51:43:626,0.018,-0.009,0.985,0.001,-0.002,-0.001,0.023,0.644,-0.496,190.36,-0.120000
20:51:43:637,0.017,-0.011,0.985,0.001,-0.002,-0.001,0.023,0.644,-0.496,189.82,-0.540000
20:51:43:649,0.018,-0.010,0.983,0.001,-0.002,-0.001,0.023,0.649,-0.498,189.60,-0.220000
20:51:43:660,0.018,-0.010,0.984,0.001,-0.001,-0.001,0.023,0.645,-0.499,189.82,0.220000
20:51:43:670,0.018,-0.009,0.984,0.002,-0.002,-0.001,0.019,0.648,-0.491,190.40,0.580000
20:51:43:681,0.017,-0.009,0.983,0.002,-0.002,-0.001,0.019,0.644,-0.495,190.70,0.300000
20:51:43:692,0.016,-0.011,0.985,0.001,-0.001,-0.001,0.016,0.649,-0.494,190.63,-0.070000
20:51:43:703,0.018,-0.012,0.986,0.001,-0.002,-0.001,0.019,0.651,-0.492,189.85,-0.780000
20:51:43:714,0.018,-0.010,0.985,0.001,-0.002,-0.001,0.019,0.651,-0.492,189.91,0.060000
20:51:43:725,0.017,-0.009,0.984,0.001,-0.002,-0.000,0.015,0.651,-0.493,190.55,0.640000
20:51:43:736,0.018,-0.010,0.985,0.001,-0.002,-0.001,0.016,0.650,-0.488,190.17,-0.380000
20:51:43:747,0.017,-0.009,0.984,0.001,-0.002,-0.000,0.013,0.649,-0.501,190.56,0.390000
20:51:43:758,0.017,-0.011,0.985,0.001,-0.002,-0.001,0.018,0.645,-0.497,190.06,-0.500000
20:51:43:769,0.017,-0.010,0.984,0.001,-0.001,-0.001,0.016,0.651,-0.494,189.68,-0.380000
20:51:43:780,0.017,-0.010,0.986,0.001,-0.002,-0.001,0.015,0.647,-0.499,190.59,0.910000
20:51:43:791,0.019,-0.010,0.986,0.001,-0.002,-0.001,0.015,0.647,-0.499,190.17,-0.420000
20:51:43:802,0.019,-0.010,0.984,0.001,-0.002,-0.001,0.016,0.646,-0.500,190.42,0.250000
20:51:43:813,0.017,-0.010,0.985,0.001,-0.002,-0.001,0.015,0.653,-0.502,190.12,-0.300000
20:51:43:824,0.018,-0.010,0.985,0.001,-0.002,-0.001,0.015,0.644,-0.496,189.80,-0.320000
20:51:43:835,0.018,-0.010,0.984,0.001,-0.002,-0.001,0.017,0.653,-0.498,190.70,0.900000
20:51:43:846,0.018,-0.010,0.983,0.001,-0.002,-0.001,0.019,0.646,-0.502,190.03,-0.670000
20:51:43:857,0.017,-0.010,0.986,0.001,-0.002,-0.001,0.017,0.650,-0.503,190.48,0.450000
20:51:43:868,0.018,-0.010,0.983,0.000,-0.002,-0.000,0.017,0.650,-0.503,190.34,-0.140000
20:51:43:879,0.018,-0.010,0.984,0.001,-0.001,-0.001,0.018,0.647,-0.503,190.22,-0.120000
20:51:43:890,0.019,-0.009,0.984,0.001,-0.002,-0.001,0.015,0.648,-0.501,190.26,0.040000
20:51:43:901,0.019,-0.010,0.986,0.001,-0.002,-0.001,0.019,0.644,-0.506,190.20,-0.060000
20:51:43:912,0.018,-0.008,0.985,0.001,-0.001,-0.000,0.017,0.647,-0.497,190.59,0.390000
20:51:43:923,0.017,-0.010,0.984,0.001,-0.001,-0.000,0.015,0.644,-0.498,190.21,-0.380000
20:51:43:934,0.017,-0.010,0.986,0.001,-0.002,-0.001,0.019,0.646,-0.495,190.53,0.320000
20:51:43:945,0.017,-0.010,0.984,0.001,-0.002,-0.001,0.019,0.644,-0.495,190.46,-0.070000
20:51:43:956,0.017,-0.010,0.985,0.001,-0.002,-0.001,0.020,0.644,-0.495,190.37,-0.090000
20:51:43:967,0.018,-0.010,0.984,0.001,-0.002,-0.001,0.019,0.644,-0.498,190.62,0.250000
20:51:43:978,0.018,-0.010,0.985,0.001,-0.002,-0.001,0.021,0.647,-0.497,189.95,-0.670000
20:51:43:989,0.018,-0.009,0.983,0.001,-0.002,-0.000,0.024,0.646,-0.492,189.56,-0.390000
20:51:44:000,0.018,-0.009,0.986,0.001,-0.002,-0.001,0.023,0.646,-0.496,189.92,0.360000
20:51:44:012,0.018,-0.010,0.986,0.001,-0.002,-0.001,0.020,0.646,-0.497,190.09,0.170000
20:51:44:023,0.017,-0.010,0.986,0.001,-0.002,-0.001,0.021,0.648,-0.503,190.05,-0.040000
20:51:44:034,0.019,-0.010,0.984,0.001,-0.001,-0.001,0.021,0.648,-0.503,190.63,0.580000
20:51:44:044,0.018,-0.010,0.986,0.001,-0.001,-0.001,0.019,0.648,-0.508,190.05,-0.580000
20:51:44:055,0.018,-0.011,0.984,0.001,-0.001,-0.001,0.021,0.647,-0.507,190.08,0.030000
20:51:44:066,0.018,-0.009,0.986,0.001,-0.001,-0.001,0.022,0.646,-0.509,190.31,0.230000
20:51:44:077,0.018,-0.010,0.986,0.001,-0.001,-0.001,0.019,0.645,-0.500,189.55,-0.760000
20:51:44:088,0.018,-0.010,0.986,0.001,-0.002,-0.001,0.019,0.646,-0.501,189.90,0.350000
20:51:44:099,0.017,-0.010,0.985,0.001,-0.002,-0.001,0.022,0.650,-0.501,189.90,0.000000
20:51:44:111,0.018,-0.010,0.985,0.001,-0.002,-0.001,0.022,0.650,-0.501,190.16,0.260000
20:51:44:122,0.018,-0.010,0.985,0.001,-0.002,-0.001,0.019,0.646,-0.499,189.73,-0.430000
20:51:44:133,0.017,-0.011,0.984,0.001,-0.001,-0.001,0.023,0.647,-0.493,190.81,1.080000
20:51:44:144,0.017,-0.010,0.984,0.001,-0.002,-0.001,0.025,0.648,-0.491,190.12,-0.690000
20:51:44:155,0.017,-0.010,0.984,0.001,-0.002,-0.001,0.024,0.654,-0.495,190.43,0.310000
20:51:44:166,0.018,-0.011,0.984,0.001,-0.002,-0.001,0.022,0.650,-0.495,189.72,-0.710000
20:51:44:176,0.017,-0.010,0.984,0.001,-0.002,-0.001,0.020,0.652,-0.494,189.82,0.100000
20:51:44:187,0.019,-0.010,0.984,0.001,-0.002,-0.000,0.020,0.652,-0.494,190.42,0.600000
20:51:44:198,0.018,-0.011,0.985,0.001,-0.002,-0.001,0.020,0.650,-0.490,189.90,-0.520000
20:51:44:209,0.017,-0.010,0.985,0.001,-0.002,-0.001,0.020,0.651,-0.492,190.57,0.670000
20:51:44:220,0.018,-0.010,0.985,0.001,-0.002,-0.001,0.022,0.650,-0.496,189.89,-0.680000
20:51:44:232,0.018,-0.009,0.986,0.001,-0.002,-0.001,0.017,0.650,-0.500,190.51,0.620000
20:51:44:243,0.017,-0.010,0.985,0.001,-0.001,-0.001,0.024,0.651,-0.495,190.43,-0.080000
20:51:44:253,0.017,-0.011,0.984,0.001,-0.002,-0.000,0.019,0.649,-0.497,190.37,-0.060000
20:51:44:265,0.017,-0.009,0.984,0.001,-0.001,-0.000,0.019,0.649,-0.497,190.58,0.210000
20:51:44:275,0.018,-0.010,0.985,0.001,-0.002,-0.001,0.025,0.650,-0.494,189.99,-0.590000
20:51:44:286,0.018,-0.010,0.985,0.001,-0.002,-0.001,0.020,0.648,-0.498,189.92,-0.070000
20:51:44:297,0.017,-0.010,0.986,0.001,-0.001,-0.001,0.022,0.645,-0.495,190.91,0.990000
20:51:44:308,0.018,-0.009,0.985,0.001,-0.001,-0.001,0.020,0.649,-0.493,189.59,-1.320000
20:51:44:319,0.018,-0.010,0.985,0.001,-0.002,-0.000,0.023,0.652,-0.496,189.92,0.330000
20:51:44:330,0.019,-0.010,0.983,0.001,-0.001,-0.000,0.020,0.648,-0.486,189.88,-0.040000
20:51:44:341,0.018,-0.010,0.985,0.001,-0.001,-0.001,0.020,0.648,-0.486,190.09,0.210000
20:51:44:352,0.017,-0.009,0.983,0.001,-0.002,-0.001,0.026,0.650,-0.487,189.81,-0.280000
20:51:44:363,0.017,-0.010,0.983,0.001,-0.001,-0.000,0.021,0.646,-0.489,190.45,0.640000
20:51:44:374,0.016,-0.009,0.984,0.001,-0.002,-0.001,0.020,0.649,-0.490,190.12,-0.330000
20:51:44:385,0.019,-0.009,0.984,0.001,-0.002,-0.000,0.024,0.643,-0.492,190.87,0.750000
20:51:44:396,0.018,-0.010,0.985,0.001,-0.002,-0.000,0.022,0.646,-0.498,190.22,-0.650000
20:51:44:408,0.017,-0.010,0.985,0.001,-0.002,-0.001,0.023,0.647,-0.494,191.13,0.910000
20:51:44:419,0.017,-0.010,0.986,0.001,-0.002,-0.001,0.023,0.647,-0.494,189.51,-1.620000
20:51:44:430,0.016,-0.010,0.984,0.001,-0.002,-0.001,0.020,0.647,-0.492,190.30,0.790000
20:51:44:441,0.018,-0.009,0.985,0.001,-0.001,-0.001,0.024,0.645,-0.498,190.26,-0.040000
20:51:44:452,0.016,-0.010,0.983,0.001,-0.001,-0.001,0.019,0.642,-0.491,190.31,0.050000
20:51:44:463,0.018,-0.010,0.986,0.001,-0.002,-0.000,0.020,0.645,-0.497,190.12,-0.190000
20:51:44:473,0.018,-0.009,0.984,0.001,-0.002,-0.001,0.018,0.644,-0.499,189.65,-0.470000
20:51:44:484,0.018,-0.010,0.985,0.001,-0.002,-0.000,0.020,0.644,-0.494,190.16,0.510000
20:51:44:495,0.017,-0.011,0.984,0.001,-0.002,-0.000,0.020,0.644,-0.494,190.47,0.310000
20:51:44:506,0.017,-0.010,0.985,0.001,-0.001,-0.001,0.017,0.647,-0.497,189.76,-0.710000
20:51:44:517,0.017,-0.011,0.985,0.001,-0.001,-0.001,0.021,0.646,-0.490,190.50,0.740000
20:51:44:528,0.017,-0.009,0.985,0.001,-0.002,-0.001,0.019,0.647,-0.497,190.09,-0.410000
20:51:44:539,0.018,-0.011,0.983,0.001,-0.002,-0.001,0.023,0.646,-0.498,190.95,0.860000
20:51:44:550,0.018,-0.009,0.982,0.001,-0.002,-0.001,0.021,0.642,-0.498,190.31,-0.640000
20:51:44:561,0.018,-0.009,0.985,0.001,-0.002,-0.000,0.018,0.650,-0.494,190.35,0.040000
20:51:44:572,0.017,-0.010,0.985,0.001,-0.002,-0.001,0.018,0.650,-0.497,190.24,-0.110000
20:51:44:583,0.018,-0.010,0.985,0.001,-0.002,-0.001,0.019,0.649,-0.497,190.63,0.390000
20:51:44:594,0.018,-0.010,0.985,0.001,-0.001,-0.000,0.018,0.648,-0.497,190.58,-0.050000
20:51:44:605,0.017,-0.010,0.984,0.001,-0.002,-0.001,0.018,0.643,-0.495,190.65,0.070000
20:51:44:616,0.016,-0.011,0.985,0.001,-0.001,-0.001,0.018,0.647,-0.495,189.69,-0.960000
20:51:44:627,0.017,-0.010,0.985,0.001,-0.002,-0.001,0.018,0.646,-0.495,190.22,0.530000
20:51:44:638,0.017,-0.010,0.985,0.001,-0.002,-0.001,0.017,0.647,-0.496,190.01,-0.210000
20:51:44:649,0.019,-0.010,0.984,0.001,-0.002,-0.001,0.017,0.642,-0.496,190.23,0.220000
20:51:44:660,0.017,-0.011,0.985,0.001,-0.002,-0.001,0.019,0.642,-0.496,189.94,-0.290000
20:51:44:671,0.019,-0.010,0.985,0.001,-0.001,-0.001,0.017,0.647,-0.495,190.68,0.740000
20:51:44:682,0.018,-0.010,0.986,0.001,-0.001,-0.001,0.020,0.642,-0.491,190.53,-0.150000
20:51:44:693,0.017,-0.011,0.984,0.001,-0.002,-0.001,0.017,0.643,-0.493,190.21,-0.320000
20:51:44:704,0.018,-0.011,0.983,0.001,-0.001,-0.001,0.020,0.645,-0.494,190.07,-0.140000
20:51:44:715,0.017,-0.011,0.984,0.001,-0.002,-0.001,0.015,0.647,-0.501,190.29,0.220000
20:51:44:726,0.017,-0.010,0.984,0.001,-0.002,-0.001,0.018,0.647,-0.500,190.26,-0.030000
20:51:44:737,0.017,-0.010,0.985,0.001,-0.001,-0.000,0.018,0.647,-0.500,189.94,-0.320000
20:51:44:748,0.018,-0.010,0.983,0.001,-0.002,-0.001,0.020,0.648,-0.499,191.20,1.260000
20:51:44:759,0.017,-0.010,0.986,0.001,-0.002,-0.001,0.020,0.648,-0.497,190.01,-1.190000
20:51:44:770,0.018,-0.010,0.984,0.001,-0.002,-0.000,0.017,0.645,-0.494,190.36,0.350000
20:51:44:781,0.017,-0.010,0.986,0.001,-0.002,-0.001,0.021,0.644,-0.497,189.60,-0.760000
20:51:44:792,0.018,-0.010,0.982,0.001,-0.001,-0.001,0.016,0.650,-0.500,190.05,0.450000
20:51:44:803,0.018,-0.010,0.985,0.001,-0.002,-0.001,0.019,0.647,-0.505,190.74,0.690000
20:51:44:814,0.018,-0.010,0.983,0.001,-0.002,-0.001,0.019,0.647,-0.505,190.91,0.170000
20:51:44:825,0.016,-0.010,0.985,0.001,-0.002,-0.001,0.016,0.646,-0.505,190.13,-0.780000
20:51:44:836,0.018,-0.010,0.984,0.001,-0.001,-0.001,0.018,0.650,-0.504,190.60,0.470000
20:51:44:847,0.017,-0.009,0.985,0.001,-0.001,-0.001,0.021,0.647,-0.501,190.32,-0.280000
20:51:44:858,0.018,-0.009,0.984,0.001,-0.002,-0.000,0.019,0.648,-0.502,190.50,0.180000
20:51:44:869,0.017,-0.009,0.986,0.001,-0.002,-0.001,0.019,0.647,-0.493,190.28,-0.220000
20:51:44:880,0.018,-0.010,0.984,0.001,-0.001,-0.001,0.016,0.651,-0.496,190.23,-0.050000
20:51:44:891,0.018,-0.010,0.986,0.001,-0.002,-0.001,0.016,0.651,-0.496,189.94,-0.290000
20:51:44:902,0.019,-0.009,0.983,0.001,-0.002,-0.001,0.021,0.645,-0.494,189.95,0.010000
20:51:44:913,0.017,-0.011,0.985,0.001,-0.002,-0.000,0.025,0.650,-0.497,190.31,0.360000
20:51:44:924,0.017,-0.009,0.985,0.001,-0.002,-0.001,0.022,0.649,-0.499,189.71,-0.600000
20:51:44:935,0.017,-0.010,0.985,0.001,-0.002,-0.001,0.021,0.653,-0.500,190.49,0.780000
20:51:44:946,0.017,-0.010,0.983,0.001,-0.001,-0.001,0.019,0.650,-0.499,190.47,-0.020000
20:51:44:957,0.016,-0.009,0.986,0.001,-0.002,-0.001,0.022,0.650,-0.495,190.35,-0.120000
20:51:44:968,0.015,-0.009,0.985,0.001,-0.002,-0.000,0.022,0.650,-0.495,190.70,0.350000
20:51:44:979,0.018,-0.009,0.985,0.001,-0.002,-0.001,0.021,0.646,-0.499,190.40,-0.300000
20:51:44:990,0.018,-0.010,0.984,0.001,-0.002,-0.001,0.016,0.645,-0.502,190.57,0.170000
20:51:45:001,0.018,-0.010,0.985,0.001,-0.002,-0.001,0.014,0.647,-0.498,190.32,-0.250000
20:51:45:013,0.016,-0.010,0.985,0.001,-0.002,-0.001,0.017,0.649,-0.494,190.41,0.090000
20:51:45:024,0.017,-0.009,0.984,0.001,-0.001,-0.001,0.022,0.648,-0.494,190.41,0.000000
20:51:45:035,0.018,-0.011,0.985,0.001,-0.002,-0.001,0.020,0.648,-0.496,190.33,-0.080000
20:51:45:046,0.018,-0.010,0.984,0.001,-0.002,-0.001,0.020,0.648,-0.496,189.99,-0.340000
20:51:45:057,0.017,-0.009,0.984,0.001,-0.002,-0.001,0.019,0.649,-0.499,189.92,-0.070000
20:51:45:067,0.018,-0.010,0.985,0.001,-0.002,-0.001,0.018,0.649,-0.501,191.15,1.230000
20:51:45:078,0.017,-0.011,0.984,0.001,-0.001,-0.001,0.021,0.651,-0.496,190.35,-0.800000
20:51:45:089,0.018,-0.010,0.985,0.001,-0.001,-0.001,0.021,0.651,-0.502,189.61,-0.740000
20:51:45:100,0.017,-0.009,0.984,0.001,-0.001,-0.001,0.015,0.649,-0.499,190.46,0.850000
20:51:45:111,0.017,-0.008,0.984,0.001,-0.002,-0.001,0.022,0.648,-0.498,190.26,-0.200000
20:51:45:122,0.018,-0.010,0.986,0.001,-0.001,-0.001,0.022,0.648,-0.498,190.40,0.140000
20:51:45:133,0.017,-0.010,0.985,0.001,-0.001,-0.001,0.023,0.652,-0.492,190.39,-0.010000
20:51:45:144,0.017,-0.009,0.986,0.001,-0.002,-0.001,0.020,0.650,-0.486,189.85,-0.540000
20:51:45:155,0.018,-0.010,0.984,0.001,-0.002,-0.001,0.023,0.652,-0.491,190.61,0.760000
20:51:45:166,0.018,-0.010,0.984,0.001,-0.002,-0.001,0.025,0.647,-0.495,190.24,-0.370000
20:51:45:177,0.018,-0.010,0.984,0.001,-0.002,-0.001,0.022,0.646,-0.501,190.22,-0.020000
20:51:45:188,0.018,-0.010,0.985,0.001,-0.001,-0.001,0.021,0.648,-0.495,189.67,-0.550000
20:51:45:199,0.018,-0.010,0.984,0.001,-0.002,-0.001,0.021,0.648,-0.495,190.33,0.660000
20:51:45:210,0.019,-0.010,0.985,0.001,-0.002,-0.001,0.024,0.650,-0.496,190.11,-0.220000
20:51:45:221,0.017,-0.010,0.985,0.001,-0.002,-0.000,0.020,0.650,-0.494,190.16,0.050000
20:51:45:232,0.018,-0.010,0.984,0.001,-0.002,-0.001,0.021,0.648,-0.494,189.99,-0.170000
20:51:45:243,0.018,-0.010,0.984,0.001,-0.001,-0.001,0.023,0.648,-0.496,190.50,0.510000
20:51:45:254,0.017,-0.010,0.985,0.001,-0.002,-0.001,0.015,0.651,-0.489,189.92,-0.580000
20:51:45:265,0.016,-0.010,0.984,0.001,-0.002,-0.001,0.019,0.649,-0.490,190.60,0.680000
20:51:45:276,0.018,-0.009,0.984,0.001,-0.002,-0.001,0.019,0.649,-0.496,190.36,-0.240000
20:51:45:287,0.017,-0.010,0.984,0.001,-0.002,-0.001,0.021,0.647,-0.496,190.56,0.200000
20:51:45:298,0.018,-0.010,0.985,0.001,-0.002,-0.001,0.019,0.648,-0.496,190.22,-0.340000
20:51:45:310,0.018,-0.010,0.984,0.001,-0.002,-0.001,0.020,0.648,-0.491,190.55,0.330000
20:51:45:321,0.017,-0.009,0.985,0.001,-0.002,-0.001,0.020,0.647,-0.495,190.27,-0.280000
20:51:45:332,0.017,-0.010,0.986,0.001,-0.002,-0.001,0.017,0.647,-0.497,189.74,-0.530000
20:51:45:343,0.018,-0.010,0.984,0.001,-0.002,-0.001,0.021,0.646,-0.500,190.32,0.580000
20:51:45:354,0.017,-0.009,0.983,0.001,-0.002,-0.001,0.021,0.643,-0.493,189.68,-0.640000
20:51:45:365,0.017,-0.010,0.984,0.001,-0.002,-0.001,0.018,0.643,-0.493,190.03,0.350000
20:51:45:375,0.017,-0.011,0.984,0.001,-0.002,-0.001,0.019,0.643,-0.503,190.17,0.140000
20:51:45:386,0.017,-0.010,0.984,0.001,-0.002,-0.000,0.019,0.648,-0.499,190.36,0.190000
20:51:45:397,0.018,-0.010,0.985,0.001,-0.001,-0.001,0.018,0.653,-0.497,190.33,-0.030000
20:51:45:408,0.018,-0.009,0.985,0.001,-0.002,-0.001,0.020,0.650,-0.494,190.18,-0.150000
20:51:45:419,0.017,-0.010,0.986,0.001,-0.001,-0.001,0.017,0.654,-0.494,190.14,-0.040000
20:51:45:430,0.017,-0.009,0.984,0.001,-0.001,-0.001,0.015,0.646,-0.496,190.68,0.540000
20:51:45:441,0.017,-0.010,0.985,0.001,-0.002,-0.001,0.015,0.646,-0.496,190.30,-0.380000
20:51:45:452,0.017,-0.010,0.984,0.001,-0.002,-0.001,0.021,0.652,-0.496,189.82,-0.480000
20:51:45:463,0.018,-0.010,0.984,0.001,-0.002,-0.000,0.022,0.648,-0.500,190.11,0.290000
20:51:45:474,0.017,-0.010,0.984,0.001,-0.002,-0.001,0.023,0.650,-0.503,190.86,0.750000
20:51:45:485,0.016,-0.010,0.985,0.001,-0.001,-0.001,0.020,0.649,-0.499,190.31,-0.550000
20:51:45:496,0.017,-0.009,0.985,0.001,-0.001,-0.001,0.021,0.653,-0.499,190.19,-0.120000
20:51:45:507,0.017,-0.010,0.984,0.001,-0.002,-0.001,0.023,0.651,-0.500,190.06,-0.130000
20:51:45:518,0.018,-0.010,0.986,0.001,-0.002,-0.001,0.023,0.651,-0.500,189.88,-0.180000
20:51:45:529,0.017,-0.009,0.985,0.001,-0.001,-0.001,0.021,0.649,-0.498,190.57,0.690000
20:51:45:540,0.017,-0.010,0.985,0.001,-0.002,-0.001,0.024,0.648,-0.496,190.17,-0.400000
20:51:45:551,0.017,-0.010,0.985,0.001,-0.002,-0.001,0.020,0.648,-0.494,189.34,-0.830000
20:51:45:562,0.017,-0.010,0.985,0.001,-0.002,-0.001,0.024,0.650,-0.496,190.72,1.380000
20:51:45:573,0.018,-0.010,0.985,0.001,-0.002,-0.001,0.018,0.650,-0.487,190.51,-0.210000
20:51:45:584,0.017,-0.009,0.986,0.001,-0.002,-0.001,0.020,0.649,-0.497,190.06,-0.450000
20:51:45:595,0.017,-0.011,0.985,0.001,-0.002,-0.001,0.020,0.649,-0.497,190.22,0.160000
20:51:45:606,0.018,-0.009,0.986,0.001,-0.002,-0.001,0.021,0.647,-0.491,190.42,0.200000
20:51:45:617,0.018,-0.010,0.984,0.001,-0.002,-0.001,0.020,0.646,-0.493,190.51,0.090000
20:51:45:628,0.018,-0.010,0.985,0.001,-0.001,-0.001,0.018,0.645,-0.494,190.49,-0.020000
20:51:45:639,0.018,-0.012,0.986,0.001,-0.001,-0.001,0.021,0.650,-0.501,190.26,-0.230000
20:51:45:650,0.017,-0.010,0.985,0.001,-0.002,-0.001,0.019,0.648,-0.492,190.14,-0.120000
20:51:45:661,0.018,-0.009,0.983,0.001,-0.001,-0.000,0.020,0.649,-0.494,190.17,0.030000
20:51:45:673,0.018,-0.009,0.984,0.002,-0.001,-0.001,0.020,0.649,-0.494,190.45,0.280000
20:51:45:684,0.018,-0.010,0.984,0.001,-0.002,-0.001,0.014,0.647,-0.488,191.21,0.760000
20:51:45:694,0.019,-0.009,0.986,0.001,-0.002,-0.001,0.016,0.650,-0.488,190.57,-0.640000
20:51:45:705,0.017,-0.011,0.984,0.001,-0.002,-0.001,0.017,0.648,-0.493,190.35,-0.220000
20:51:45:716,0.018,-0.009,0.985,0.001,-0.002,-0.001,0.018,0.654,-0.492,190.35,0.000000
20:51:45:727,0.016,-0.010,0.984,0.001,-0.001,-0.001,0.019,0.647,-0.487,189.88,-0.470000
20:51:45:738,0.018,-0.010,0.984,0.001,-0.002,-0.001,0.023,0.649,-0.486,190.05,0.170000
20:51:45:749,0.017,-0.010,0.985,0.000,-0.002,-0.001,0.023,0.649,-0.486,190.54,0.490000
20:51:45:760,0.017,-0.010,0.985,0.001,-0.002,-0.001,0.020,0.647,-0.492,190.41,-0.130000
20:51:45:771,0.018,-0.010,0.985,0.001,-0.002,-0.001,0.021,0.649,-0.493,190.25,-0.160000
20:51:45:782,0.018,-0.010,0.984,0.001,-0.002,-0.000,0.017,0.644,-0.494,190.46,0.210000
20:51:45:793,0.018,-0.009,0.985,0.001,-0.002,-0.001,0.021,0.648,-0.492,189.68,-0.780000
20:51:45:804,0.018,-0.010,0.985,0.001,-0.002,-0.001,0.018,0.649,-0.494,190.16,0.480000
20:51:45:815,0.016,-0.010,0.984,0.001,-0.002,-0.001,0.020,0.647,-0.494,190.94,0.780000
20:51:45:826,0.017,-0.011,0.984,0.001,-0.001,-0.001,0.020,0.647,-0.494,190.49,-0.450000
20:51:45:837,0.017,-0.011,0.985,0.001,-0.002,-0.001,0.023,0.647,-0.493,190.68,0.190000
20:51:45:848,0.018,-0.010,0.984,0.001,-0.002,-0.001,0.021,0.643,-0.491,189.97,-0.710000
20:51:45:859,0.019,-0.010,0.984,0.001,-0.002,-0.000,0.020,0.647,-0.489,190.15,0.180000
20:51:45:870,0.018,-0.010,0.985,0.001,-0.002,-0.001,0.015,0.651,-0.494,190.22,0.070000
20:51:45:881,0.018,-0.009,0.985,0.001,-0.002,-0.000,0.017,0.647,-0.488,191.04,0.820000
20:51:45:892,0.020,-0.009,0.985,0.001,-0.002,-0.001,0.015,0.642,-0.487,190.37,-0.670000
20:51:45:903,0.016,-0.009,0.984,0.001,-0.001,-0.001,0.015,0.642,-0.487,190.04,-0.330000
20:51:45:914,0.018,-0.009,0.984,0.001,-0.002,-0.001,0.014,0.647,-0.483,190.78,0.740000
20:51:45:925,0.018,-0.010,0.985,0.001,-0.002,-0.001,0.014,0.646,-0.486,190.42,-0.360000
20:51:45:936,0.017,-0.010,0.984,0.001,-0.002,-0.001,0.020,0.650,-0.489,190.70,0.280000
20:51:45:947,0.017,-0.010,0.983,0.001,-0.002,-0.001,0.016,0.649,-0.487,190.25,-0.450000
20:51:45:958,0.018,-0.009,0.986,0.001,-0.002,-0.001,0.018,0.647,-0.493,190.56,0.310000
20:51:45:969,0.019,-0.009,0.985,0.001,-0.002,-0.001,0.015,0.647,-0.491,190.55,-0.010000
20:51:45:980,0.017,-0.009,0.986,0.001,-0.002,-0.001,0.015,0.647,-0.484,190.57,0.020000
20:51:45:991,0.017,-0.008,0.985,0.001,-0.002,-0.000,0.019,0.649,-0.484,190.53,-0.040000
20:51:46:002,0.018,-0.010,0.984,0.002,-0.002,-0.001,0.020,0.647,-0.491,190.13,-0.400000
20:51:46:013,0.016,-0.010,0.985,0.001,-0.002,-0.001,0.017,0.649,-0.488,190.15,0.020000
20:51:46:025,0.017,-0.011,0.984,0.000,-0.002,-0.001,0.015,0.647,-0.491,190.31,0.160000
20:51:46:036,0.018,-0.010,0.984,0.001,-0.002,-0.001,0.015,0.649,-0.488,191.15,0.840000
20:51:46:047,0.018,-0.010,0.985,0.001,-0.001,-0.001,0.017,0.647,-0.492,190.72,-0.430000
20:51:46:058,0.018,-0.010,0.984,0.001,-0.002,-0.001,0.017,0.649,-0.490,190.69,-0.030000
20:51:46:069,0.018,-0.010,0.984,0.001,-0.001,-0.001,0.018,0.649,-0.490,190.50,-0.190000
20:51:46:079,0.019,-0.010,0.985,0.001,-0.001,-0.001,0.017,0.648,-0.493,190.07,-0.430000
20:51:46:090,0.017,-0.009,0.985,0.001,-0.002,-0.000,0.016,0.651,-0.493,190.59,0.520000
20:51:46:101,0.017,-0.009,0.984,0.001,-0.002,-0.001,0.020,0.648,-0.495,189.54,-1.050000
20:51:46:112,0.018,-0.010,0.984,0.001,-0.002,-0.000,0.017,0.645,-0.496,190.08,0.540000
20:51:46:123,0.018,-0.009,0.984,0.001,-0.002,-0.001,0.017,0.650,-0.498,190.23,0.150000
20:51:46:134,0.018,-0.010,0.984,0.001,-0.002,-0.001,0.021,0.648,-0.503,190.98,0.750000
20:51:46:145,0.017,-0.010,0.984,0.001,-0.002,-0.001,0.021,0.648,-0.503,190.76,-0.220000
