timestamp,ax,ay,az,gx,gy,gz,mx,my,mz,altitude,relative_altitude
191125_17.14.38.735,-0.02500,-0.02200,0.99200,0.07000,-0.10500,0.00000,0.11600,0.45500,-0.56100,159.25000,0.00000
191125_17.14.38.736,-0.02500,-0.02200,0.99200,0.03500,-0.08700,-0.03500,0.11600,0.46100,-0.55700,159.47000,0.22000
191125_17.14.38.737,-0.02500,-0.02200,0.99300,0.05300,-0.08700,-0.03500,0.11500,0.46200,-0.56100,159.03000,-0.44000
191125_17.14.38.737,-0.02500,-0.02200,0.99200,0.08700,-0.08700,-0.01800,0.11200,0.45800,-0.55200,158.54000,-0.49000
191125_17.14.38.738,-0.02500,-0.02200,0.99300,0.05300,-0.08700,-0.01800,0.11600,0.45600,-0.55700,159.14000,0.60000
191125_17.14.38.739,-0.02500,-0.02200,0.99100,0.07000,-0.12300,-0.03500,0.11100,0.45800,-0.55500,159.66000,0.52000
191125_17.14.38.740,-0.02500,-0.02300,0.99200,0.07000,-0.14000,-0.03500,0.11300,0.45500,-0.55400,159.54000,-0.12000
191125_17.14.38.741,-0.02600,-0.02200,0.99200,0.08700,-0.10500,-0.03500,0.11700,0.45500,-0.55100,158.96000,-0.58000
191125_17.14.38.741,-0.02600,-0.02000,0.99100,0.05300,-0.08700,-0.01800,0.11900,0.45700,-0.55500,159.43000,0.47000
191125_17.14.38.742,-0.02500,-0.02300,0.99200,0.05300,-0.10500,-0.03500,0.11100,0.45700,-0.56300,159.48000,0.05000
191125_17.14.38.743,-0.02500,-0.02200,0.99100,0.05300,-0.10500,-0.01800,0.11700,0.45900,-0.54800,158.91000,-0.57000
191125_17.14.38.744,-0.02500,-0.02100,0.99100,0.07000,-0.08700,-0.03500,0.11700,0.46000,-0.55500,159.15000,0.24000
191125_17.14.38.744,-0.02500,-0.02200,0.99100,0.05300,-0.12300,-0.03500,0.11700,0.45400,-0.55200,159.62000,0.47000
191125_17.14.38.745,-0.02600,-0.02200,0.99200,0.05300,-0.08700,-0.03500,0.11700,0.45700,-0.55200,159.46000,-0.16000
191125_17.14.38.746,-0.02500,-0.02200,0.99300,0.07000,-0.08700,-0.03500,0.11700,0.45500,-0.54300,159.34000,-0.12000
191125_17.14.38.746,-0.02500,-0.02300,0.99300,0.05300,-0.10500,-0.03500,0.11100,0.45700,-0.55300,159.56000,0.22000
191125_17.14.38.747,-0.02500,-0.02200,0.99000,0.03500,-0.08700,-0.03500,0.11200,0.45900,-0.54700,159.42000,-0.14000
191125_17.14.38.748,-0.02500,-0.02200,0.99000,0.07000,-0.08700,-0.01800,0.11500,0.45700,-0.54900,158.79000,-0.63000
191125_17.14.38.749,-0.02500,-0.02200,0.99300,0.07000,-0.08700,-0.03500,0.10900,0.46000,-0.55200,158.63000,-0.16000
191125_17.14.38.749,-0.02500,-0.02000,0.99000,0.07000,-0.10500,-0.01800,0.11000,0.45800,-0.55000,159.42000,0.79000
191125_17.14.38.750,-0.02500,-0.02100,0.99200,0.07000,-0.10500,-0.01800,0.11700,0.45400,-0.55100,159.28000,-0.14000
191125_17.14.38.751,-0.02500,-0.02100,0.99100,0.07000,-0.12300,-0.03500,0.11500,0.45700,-0.55400,159.30000,0.02000
191125_17.14.38.752,-0.02500,-0.02200,0.99100,0.07000,-0.08700,-0.01800,0.11600,0.45300,-0.55200,158.33000,-0.97000
191125_17.14.38.752,-0.02500,-0.02300,0.99300,0.05300,-0.10500,0.00000,0.11300,0.45300,-0.54300,159.37000,1.04000
191125_17.14.38.753,-0.02600,-0.02100,0.99200,0.05300,-0.08700,-0.01800,0.11400,0.46000,-0.54300,158.86000,-0.51000
191125_17.14.38.754,-0.02500,-0.02200,0.99800,0.07000,-0.08700,-0.01800,0.11200,0.45700,-0.54600,159.72000,0.86000
191125_17.14.38.755,-0.02500,-0.02200,0.98900,0.07000,-0.12300,-0.01800,0.11600,0.45500,-0.54400,159.26000,-0.46000
191125_17.14.38.755,-0.02400,-0.02100,0.99300,0.05300,-0.08700,-0.03500,0.10900,0.46000,-0.54100,158.84000,-0.42000
191125_17.14.38.756,-0.02600,-0.02200,0.99200,0.05300,-0.10500,-0.01800,0.11500,0.45900,-0.54600,159.64000,0.80000
191125_17.14.38.757,-0.02500,-0.02300,0.99200,0.08700,-0.10500,-0.01800,0.11500,0.45700,-0.54900,158.76000,-0.88000
191125_17.14.38.758,-0.02500,-0.02300,0.99100,0.05300,-0.10500,-0.01800,0.11200,0.46000,-0.54600,158.66000,-0.10000
191125_17.14.38.758,-0.02500,-0.02200,0.99200,0.05300,-0.10500,-0.03500,0.11300,0.46000,-0.55200,159.59000,0.93000
191125_17.14.38.759,-0.02500,-0.02200,0.99100,0.07000,-0.10500,-0.01800,0.11400,0.45100,-0.55300,159.30000,-0.29000
191125_17.14.38.760,-0.02500,-0.02200,0.99200,0.05300,-0.08700,-0.01800,0.11400,0.45800,-0.54900,158.86000,-0.44000
191125_17.14.38.761,-0.02500,-0.02300,0.99200,0.05300,-0.12300,-0.03500,0.11200,0.45600,-0.55000,159.47000,0.61000
191125_17.14.38.762,-0.02500,-0.02300,0.99100,0.07000,-0.12300,-0.01800,0.11200,0.45800,-0.55200,158.68000,-0.79000
191125_17.14.38.762,-0.02500,-0.02400,0.99100,0.05300,-0.12300,-0.03500,0.11400,0.46200,-0.55900,159.42000,0.74000
191125_17.14.38.763,-0.02500,-0.02200,0.99200,0.07000,-0.07000,-0.03500,0.11900,0.46000,-0.55700,159.16000,-0.26000
191125_17.14.38.764,-0.02600,-0.02200,0.99100,0.08700,-0.10500,-0.01800,0.11600,0.46100,-0.55000,159.51000,0.35000
191125_17.14.38.765,-0.02500,-0.02200,0.99200,0.07000,-0.10500,-0.01800,0.11900,0.46100,-0.55500,158.60000,-0.91000
191125_17.14.38.765,-0.02500,-0.02200,0.99100,0.07000,-0.08700,-0.03500,0.11600,0.45500,-0.55800,159.36000,0.76000
191125_17.14.38.766,-0.02400,-0.02200,0.99100,0.07000,-0.10500,-0.03500,0.11800,0.45800,-0.55100,159.00000,-0.36000
191125_17.14.38.767,-0.02500,-0.02200,0.99100,0.07000,-0.12300,-0.01800,0.11300,0.45300,-0.55100,159.25000,0.25000
191125_17.14.38.767,-0.02600,-0.02200,0.99200,0.05300,-0.10500,-0.01800,0.11400,0.45500,-0.55200,159.48000,0.23000
191125_17.14.38.768,-0.02500,-0.02200,0.99100,0.05300,-0.08700,-0.03500,0.11600,0.46400,-0.54900,159.45000,-0.03000
191125_17.14.38.769,-0.02600,-0.02100,0.99000,0.07000,-0.10500,-0.01800,0.11800,0.45900,-0.54800,159.10000,-0.35000
191125_17.14.38.770,-0.02600,-0.02200,0.99100,0.05300,-0.10500,-0.03500,0.11600,0.45900,-0.55100,159.47000,0.37000
191125_17.14.38.770,-0.02600,-0.02100,0.99200,0.05300,-0.08700,-0.03500,0.11500,0.45400,-0.54600,158.89000,-0.58000
191125_17.14.38.771,-0.02500,-0.02300,0.99100,0.07000,-0.10500,-0.01800,0.11300,0.45400,-0.55100,159.13000,0.24000
191125_17.14.38.772,-0.02500,-0.02200,0.99200,0.05300,-0.08700,-0.01800,0.11800,0.45900,-0.55600,158.99000,-0.14000
191125_17.14.38.773,-0.02500,-0.02200,0.99100,0.07000,-0.10500,-0.01800,0.11500,0.45500,-0.55100,159.81000,0.82000
191125_17.14.38.773,-0.02400,-0.02200,0.99200,0.07000,-0.08700,-0.03500,0.11400,0.45900,-0.55000,159.78000,-0.03000
191125_17.14.38.774,-0.02500,-0.02100,0.99100,0.05300,-0.12300,-0.01800,0.10800,0.45400,-0.55400,158.59000,-1.19000
191125_17.14.38.775,-0.02600,-0.02200,0.99200,0.07000,-0.10500,-0.01800,0.11200,0.45700,-0.55500,158.82000,0.23000
191125_17.14.38.776,-0.02500,-0.02200,0.99300,0.07000,-0.10500,-0.01800,0.11400,0.45600,-0.55800,159.21000,0.39000
191125_17.14.38.776,-0.02500,-0.02200,0.99200,0.07000,-0.08700,0.00000,0.11800,0.45600,-0.55800,158.94000,-0.27000
191125_17.14.38.777,-0.02600,-0.02300,0.99200,0.05300,-0.08700,-0.03500,0.11600,0.45400,-0.55600,158.48000,-0.46000
191125_17.14.38.778,-0.02500,-0.02200,0.99200,0.07000,-0.08700,-0.01800,0.11100,0.45400,-0.55000,159.16000,0.68000
191125_17.14.38.779,-0.02400,-0.02200,0.98900,0.07000,-0.10500,-0.01800,0.11500,0.45700,-0.55200,159.07000,-0.09000
191125_17.14.38.779,-0.02000,-0.02200,0.93200,0.08700,-0.24500,-0.01800,0.11700,0.46200,-0.55200,159.25000,0.18000
191125_17.14.38.780,-0.02400,-0.02100,1.00200,0.05300,-0.01800,-0.01800,0.11500,0.46000,-0.55800,159.12000,-0.13000
191125_17.14.38.781,-0.02800,-0.02300,0.99600,0.05300,-0.07000,-0.01800,0.11600,0.45800,-0.56000,159.35000,0.23000
191125_17.14.38.782,-0.02400,-0.02200,0.99000,0.08700,-0.07000,-0.03500,0.11700,0.46200,-0.55400,159.18000,-0.17000
191125_17.14.38.782,-0.02600,-0.02300,0.99400,0.05300,-0.07000,-0.05300,0.11100,0.46000,-0.55100,159.43000,0.25000
191125_17.14.38.783,-0.02500,-0.02300,0.98900,0.05300,-0.12300,-0.01800,0.11000,0.45800,-0.55700,158.91000,-0.52000
191125_17.14.38.784,-0.02500,-0.02100,0.98500,0.08700,-0.08700,-0.01800,0.10900,0.45900,-0.55400,159.80000,0.89000
191125_17.14.38.785,-0.02500,-0.02300,0.99400,0.07000,-0.08700,-0.01800,0.11200,0.45800,-0.55500,159.62000,-0.18000
191125_17.14.38.785,-0.02600,-0.02100,0.99200,0.05300,-0.12300,-0.03500,0.11100,0.45800,-0.55400,159.40000,-0.22000
191125_17.14.38.786,-0.02500,-0.02200,0.99100,0.07000,-0.10500,-0.01800,0.11000,0.46100,-0.55000,159.29000,-0.11000
191125_17.14.38.787,-0.02600,-0.02300,0.99100,0.05300,-0.10500,0.00000,0.11600,0.46000,-0.55400,158.24000,-1.05000
191125_17.14.38.788,-0.02600,-0.02200,0.99500,0.07000,-0.07000,-0.03500,0.11300,0.45700,-0.55100,158.58000,0.34000
191125_17.14.38.788,-0.02700,-0.02200,0.99200,0.08700,-0.08700,-0.03500,0.11500,0.46200,-0.55200,159.72000,1.14000
191125_17.14.38.789,-0.02500,-0.02200,0.99300,0.07000,-0.08700,-0.03500,0.10400,0.45700,-0.55200,159.41000,-0.31000
191125_17.14.38.790,-0.02600,-0.02200,0.99200,0.08700,-0.10500,-0.01800,0.10900,0.46100,-0.55900,159.06000,-0.35000
191125_17.14.38.791,-0.02500,-0.02300,0.99100,0.07000,-0.10500,-0.05300,0.11200,0.46300,-0.55100,158.54000,-0.52000
191125_17.14.38.791,-0.02600,-0.02300,0.99300,0.07000,-0.07000,-0.03500,0.11100,0.45900,-0.56000,159.61000,1.07000
191125_17.14.38.792,-0.02700,-0.02200,0.99000,0.08700,-0.08700,-0.01800,0.11000,0.46100,-0.54800,159.23000,-0.38000
191125_17.14.38.793,-0.02600,-0.02200,0.99200,0.07000,-0.12300,-0.01800,0.11400,0.45700,-0.56000,159.18000,-0.05000
191125_17.14.38.794,-0.02600,-0.02200,0.99400,0.07000,-0.08700,-0.03500,0.11200,0.46000,-0.54600,159.28000,0.10000
191125_17.14.38.794,-0.02700,-0.02100,0.99200,0.07000,-0.12300,-0.03500,0.11400,0.45500,-0.55300,159.08000,-0.20000
191125_17.14.38.795,-0.02600,-0.02300,0.99200,0.08700,-0.08700,-0.03500,0.11300,0.45800,-0.55100,159.23000,0.15000
191125_17.14.38.796,-0.02500,-0.02200,0.99200,0.07000,-0.10500,-0.03500,0.11400,0.45400,-0.55200,159.99000,0.76000
191125_17.14.38.797,-0.02600,-0.02200,0.99200,0.07000,-0.10500,-0.01800,0.11300,0.45500,-0.55500,159.18000,-0.81000
191125_17.14.38.797,-0.02600,-0.02200,0.99300,0.07000,-0.10500,-0.01800,0.11300,0.45700,-0.55200,159.27000,0.09000
191125_17.14.38.798,-0.02500,-0.02200,0.99100,0.07000,-0.14000,-0.01800,0.11000,0.45400,-0.54700,159.38000,0.11000
191125_17.14.38.799,-0.02600,-0.02200,0.99100,0.07000,-0.10500,-0.03500,0.11500,0.45500,-0.54500,159.42000,0.04000
191125_17.14.38.800,-0.02500,-0.02100,0.99300,0.07000,-0.10500,-0.03500,0.11100,0.45200,-0.55300,158.88000,-0.54000
191125_17.14.38.800,-0.02600,-0.02200,0.99100,0.07000,-0.12300,-0.03500,0.11400,0.45400,-0.55000,159.00000,0.12000
191125_17.14.38.801,-0.02600,-0.02200,0.99300,0.07000,-0.07000,-0.01800,0.10900,0.45600,-0.55000,159.08000,0.08000
191125_17.14.38.802,-0.02600,-0.02200,0.98900,0.08700,-0.12300,-0.05300,0.11300,0.45200,-0.54900,159.55000,0.47000
191125_17.14.38.803,-0.02600,-0.02100,0.99200,0.07000,-0.10500,-0.01800,0.11000,0.45300,-0.55800,159.19000,-0.36000
191125_17.14.38.803,-0.02700,-0.02200,0.99100,0.07000,-0.12300,-0.03500,0.11200,0.45800,-0.55100,159.22000,0.03000
191125_17.14.38.804,-0.02600,-0.02300,0.99400,0.07000,-0.12300,-0.03500,0.11100,0.45700,-0.55700,158.87000,-0.35000
191125_17.14.38.805,-0.02400,-0.02200,0.99200,0.07000,-0.12300,-0.01800,0.11300,0.45700,-0.54900,159.47000,0.60000
191125_17.14.38.806,-0.02700,-0.02200,0.99400,0.07000,-0.08700,-0.01800,0.11100,0.45600,-0.55700,159.01000,-0.46000
191125_17.14.38.806,-0.02600,-0.02200,0.99100,0.07000,-0.08700,-0.01800,0.11000,0.45600,-0.55600,158.95000,-0.06000
191125_17.14.38.807,-0.02700,-0.02200,0.99100,0.08700,-0.10500,-0.01800,0.10800,0.45600,-0.55900,158.43000,-0.52000
191125_17.14.38.808,-0.02600,-0.02200,0.99400,0.07000,-0.10500,-0.01800,0.11200,0.45600,-0.55100,159.03000,0.60000
191125_17.14.38.808,-0.02700,-0.02200,0.99300,0.05300,-0.10500,-0.01800,0.10900,0.45400,-0.55500,158.96000,-0.07000
191125_17.14.38.809,-0.02500,-0.02200,0.97900,0.05300,0.01800,-0.05300,0.10600,0.45700,-0.54800,158.79000,-0.17000
191125_17.14.38.810,-0.02400,-0.02300,0.98400,0.05300,-0.05300,-0.03500,0.11100,0.46100,-0.55500,159.71000,0.92000
191125_17.14.38.811,-0.02900,-0.02200,1.00300,0.08700,-0.05300,-0.03500,0.11100,0.46400,-0.54800,158.94000,-0.77000
191125_17.14.38.811,-0.02700,-0.02300,0.99500,0.07000,-0.12300,-0.01800,0.11500,0.45800,-0.55100,158.74000,-0.20000
191125_17.14.38.812,-0.02500,-0.02100,0.98200,0.07000,-0.07000,-0.05300,0.11200,0.45900,-0.54900,159.36000,0.62000
191125_17.14.38.813,-0.02700,-0.02200,0.99500,0.08700,-0.07000,-0.01800,0.10500,0.46100,-0.55600,159.33000,-0.03000
191125_17.14.38.814,-0.02600,-0.02200,0.99400,0.07000,-0.10500,-0.03500,0.10900,0.45600,-0.54400,159.51000,0.18000
191125_17.14.38.814,-0.02500,-0.02200,0.99400,0.07000,-0.10500,-0.03500,0.10900,0.45800,-0.54800,159.44000,-0.07000
191125_17.14.38.815,-0.02600,-0.02300,0.99000,0.05300,-0.10500,-0.03500,0.11200,0.45900,-0.55300,159.14000,-0.30000
191125_17.14.38.816,-0.02600,-0.02100,0.99300,0.08700,-0.12300,-0.01800,0.11300,0.45600,-0.55300,158.82000,-0.32000
191125_17.14.38.817,-0.02700,-0.02300,0.98600,0.05300,-0.10500,-0.03500,0.11000,0.45800,-0.55600,158.86000,0.04000
191125_17.14.38.817,-0.02700,-0.02200,0.99100,0.07000,-0.10500,-0.01800,0.11600,0.45700,-0.55500,159.72000,0.86000
191125_17.14.38.818,-0.02700,-0.02200,0.99100,0.03500,-0.10500,-0.01800,0.11000,0.45500,-0.56400,158.96000,-0.76000
191125_17.14.38.819,-0.02600,-0.02100,0.99200,0.07000,-0.12300,-0.01800,0.11300,0.45400,-0.56200,158.84000,-0.12000
191125_17.14.38.820,-0.02600,-0.02200,0.99200,0.03500,-0.12300,-0.01800,0.11700,0.45800,-0.55400,159.60000,0.76000
191125_17.14.38.821,-0.02600,-0.02200,0.99300,0.05300,-0.08700,0.00000,0.11800,0.45400,-0.55500,159.07000,-0.53000
191125_17.14.38.821,-0.02600,-0.02200,0.99300,0.05300,-0.07000,-0.01800,0.11100,0.45700,-0.55200,159.61000,0.54000
191125_17.14.38.822,-0.02500,-0.02300,0.99200,0.07000,-0.10500,-0.01800,0.11000,0.45700,-0.56000,159.79000,0.18000
191125_17.14.38.823,-0.02700,-0.02300,0.99100,0.07000,-0.10500,-0.01800,0.11300,0.45600,-0.56400,159.24000,-0.55000
191125_17.14.38.824,-0.02700,-0.02200,0.99000,0.07000,-0.10500,-0.03500,0.11400,0.45900,-0.56300,158.99000,-0.25000
191125_17.14.38.824,-0.02700,-0.02200,0.99300,0.08700,-0.10500,-0.01800,0.11600,0.46400,-0.56000,158.82000,-0.17000
191125_17.14.38.825,-0.02600,-0.02200,0.99000,0.07000,-0.10500,-0.03500,0.11300,0.45500,-0.56000,159.35000,0.53000
191125_17.14.38.826,-0.02600,-0.02300,0.99200,0.07000,-0.10500,-0.05300,0.11500,0.46200,-0.55300,159.42000,0.07000
191125_17.14.38.827,-0.02600,-0.02300,0.99400,0.05300,-0.10500,-0.01800,0.11700,0.45500,-0.55100,159.66000,0.24000
191125_17.14.38.827,-0.02500,-0.02200,0.98900,0.07000,-0.12300,-0.01800,0.11100,0.46200,-0.54700,159.58000,-0.08000
191125_17.14.38.828,-0.02500,-0.02100,0.99300,0.05300,-0.12300,-0.03500,0.11100,0.45800,-0.54800,159.61000,0.03000
191125_17.14.38.829,-0.02600,-0.02200,0.99300,0.07000,-0.10500,-0.01800,0.11300,0.45600,-0.55000,159.48000,-0.13000
191125_17.14.38.829,-0.02500,-0.02200,0.99000,0.05300,-0.10500,-0.03500,0.11200,0.46200,-0.55000,159.60000,0.12000
191125_17.14.38.830,-0.02500,-0.02100,0.98600,0.07000,-0.10500,-0.01800,0.11500,0.45600,-0.55300,158.66000,-0.94000
191125_17.14.38.831,-0.02600,-0.02200,0.99300,0.08700,-0.10500,-0.01800,0.11300,0.45500,-0.55400,159.89000,1.23000
191125_17.14.38.832,-0.02700,-0.02100,0.99400,0.08700,-0.10500,-0.03500,0.10900,0.45900,-0.55300,159.29000,-0.60000
191125_17.14.38.833,-0.02500,-0.02200,0.98700,0.07000,-0.10500,-0.03500,0.11000,0.45400,-0.55400,159.75000,0.46000
191125_17.14.38.833,-0.02600,-0.02300,0.99300,0.07000,-0.08700,-0.03500,0.11100,0.45600,-0.55500,159.39000,-0.36000
191125_17.14.38.834,-0.02500,-0.02300,0.99300,0.07000,-0.10500,-0.03500,0.10900,0.45400,-0.55500,159.60000,0.21000
191125_17.14.38.835,-0.02500,-0.02200,0.99100,0.07000,-0.12300,-0.01800,0.11100,0.45400,-0.55400,159.06000,-0.54000
191125_17.14.38.836,-0.02700,-0.02200,0.99100,0.08700,-0.08700,-0.03500,0.10700,0.45200,-0.55900,159.64000,0.58000
191125_17.14.38.836,-0.02600,-0.02200,0.98900,0.07000,-0.08700,0.00000,0.11100,0.45200,-0.55700,158.94000,-0.70000
191125_17.14.38.837,-0.02600,-0.02300,0.99300,0.07000,-0.10500,-0.01800,0.10900,0.45600,-0.55700,159.01000,0.07000
191125_17.14.38.838,-0.02500,-0.02200,0.98900,0.08700,-0.07000,-0.03500,0.11500,0.45400,-0.55700,159.12000,0.11000
191125_17.14.38.838,-0.02600,-0.02100,0.99100,0.07000,-0.07000,-0.03500,0.11000,0.46400,-0.55700,158.96000,-0.16000
191125_17.14.38.839,-0.02500,-0.02300,0.99000,0.05300,-0.10500,-0.01800,0.11400,0.45800,-0.55400,159.40000,0.44000
191125_17.14.38.840,-0.02700,-0.02200,0.99400,0.07000,-0.07000,-0.01800,0.11100,0.45900,-0.55700,158.68000,-0.72000
191125_17.14.38.841,-0.02600,-0.02300,0.99000,0.07000,-0.10500,-0.01800,0.11300,0.45400,-0.55000,159.66000,0.98000
191125_17.14.38.841,-0.02600,-0.02200,0.99100,0.05300,-0.12300,-0.01800,0.11300,0.45200,-0.55200,159.57000,-0.09000
191125_17.14.38.842,-0.02600,-0.02200,0.99100,0.07000,-0.08700,-0.05300,0.11100,0.45600,-0.55000,159.50000,-0.07000
191125_17.14.38.843,-0.02600,-0.02200,0.99100,0.07000,-0.10500,-0.01800,0.10900,0.45400,-0.54900,159.24000,-0.26000
191125_17.14.38.844,-0.02600,-0.02200,0.99100,0.05300,-0.10500,-0.01800,0.10900,0.45800,-0.55700,159.32000,0.08000
191125_17.14.38.844,-0.02500,-0.02100,0.99300,0.05300,-0.08700,-0.03500,0.11000,0.45400,-0.54900,159.24000,-0.08000
191125_17.14.38.845,-0.02600,-0.02400,0.98700,0.05300,-0.12300,-0.03500,0.11400,0.46000,-0.55300,158.97000,-0.27000
191125_17.14.38.846,-0.02700,-0.02300,0.99100,0.07000,-0.10500,-0.01800,0.10900,0.45700,-0.55000,159.05000,0.08000
191125_17.14.38.847,-0.02500,-0.02200,0.99300,0.08700,-0.10500,-0.01800,0.10900,0.45800,-0.56000,159.15000,0.10000
191125_17.14.38.847,-0.02600,-0.02300,0.99200,0.05300,-0.12300,-0.05300,0.10600,0.45600,-0.55000,159.71000,0.56000
191125_17.14.38.848,-0.02600,-0.02300,0.99100,0.05300,-0.10500,-0.03500,0.11200,0.46000,-0.55300,159.27000,-0.44000
191125_17.14.38.849,-0.02700,-0.02200,0.99100,0.07000,-0.10500,-0.03500,0.10600,0.45200,-0.55200,159.36000,0.09000
191125_17.14.38.850,-0.02700,-0.02200,0.99100,0.05300,-0.12300,-0.03500,0.11200,0.45900,-0.55800,159.83000,0.47000
191125_17.14.38.850,-0.02600,-0.02200,0.99100,0.05300,-0.10500,-0.01800,0.11400,0.45800,-0.55500,159.50000,-0.33000
191125_17.14.38.851,-0.02600,-0.02200,0.99200,0.07000,-0.10500,-0.01800,0.11300,0.45500,-0.55900,159.96000,0.46000
191125_17.14.38.852,-0.02700,-0.02200,0.99200,0.07000,-0.10500,-0.01800,0.11100,0.45400,-0.55000,159.28000,-0.68000
191125_17.14.38.853,-0.02600,-0.02100,0.99100,0.07000,-0.10500,-0.03500,0.11300,0.45900,-0.55400,159.63000,0.35000
191125_17.14.38.853,-0.02600,-0.02200,0.99100,0.07000,-0.12300,-0.01800,0.11100,0.45300,-0.56200,159.07000,-0.56000
191125_17.14.38.854,-0.02600,-0.02100,0.99100,0.05300,-0.12300,-0.01800,0.11100,0.45600,-0.56600,159.51000,0.44000
191125_17.14.38.855,-0.02600,-0.02200,0.99100,0.03500,-0.10500,-0.03500,0.11100,0.45000,-0.55800,159.43000,-0.08000
191125_17.14.38.856,-0.02800,-0.02100,0.99200,0.07000,-0.10500,-0.03500,0.11500,0.45600,-0.56300,159.93000,0.50000
191125_17.14.38.856,-0.02600,-0.02200,0.98800,0.05300,-0.12300,-0.01800,0.11100,0.45200,-0.55600,159.25000,-0.68000
191125_17.14.38.857,-0.02600,-0.02100,0.99400,0.05300,-0.12300,-0.03500,0.10900,0.45300,-0.56000,159.81000,0.56000
191125_17.14.38.858,-0.02600,-0.02200,0.99000,0.07000,-0.14000,-0.01800,0.10700,0.45700,-0.56000,159.51000,-0.30000
191125_17.14.38.859,-0.02500,-0.02200,0.99100,0.05300,-0.10500,-0.03500,0.10900,0.45400,-0.56000,158.56000,-0.95000
191125_17.14.38.859,-0.02600,-0.02200,0.99100,0.07000,-0.10500,-0.01800,0.10400,0.45400,-0.55300,159.41000,0.85000
191125_17.14.38.860,-0.02800,-0.02200,0.99000,0.07000,-0.08700,-0.01800,0.11100,0.45900,-0.55400,159.40000,-0.01000
191125_17.14.38.861,-0.02600,-0.02100,0.99100,0.05300,-0.08700,-0.01800,0.11400,0.45600,-0.56500,159.03000,-0.37000
191125_17.14.38.861,-0.02600,-0.02200,0.99200,0.05300,-0.08700,-0.01800,0.11000,0.45600,-0.55700,159.51000,0.48000
191125_17.14.38.862,-0.02800,-0.02200,0.99300,0.07000,-0.08700,-0.03500,0.11000,0.45900,-0.55400,159.07000,-0.44000
191125_17.14.38.863,-0.02600,-0.02200,0.99200,0.05300,-0.10500,-0.01800,0.11200,0.46000,-0.55400,158.67000,-0.40000
191125_17.14.38.864,-0.02700,-0.02100,0.99200,0.07000,-0.12300,-0.03500,0.11200,0.45500,-0.55300,159.01000,0.34000
191125_17.14.38.865,-0.02500,-0.02200,0.99200,0.07000,-0.12300,-0.03500,0.11400,0.45700,-0.56300,159.85000,0.84000
191125_17.14.38.865,-0.02500,-0.02200,0.99100,0.07000,-0.10500,-0.01800,0.11300,0.45000,-0.56000,159.61000,-0.24000
191125_17.14.38.866,-0.02700,-0.02200,0.99200,0.07000,-0.10500,-0.01800,0.11300,0.45400,-0.55000,160.01000,0.40000
191125_17.14.38.867,-0.02700,-0.02300,0.99200,0.08700,-0.12300,-0.01800,0.11000,0.45600,-0.56000,159.61000,-0.40000
191125_17.14.38.868,-0.02600,-0.02200,0.99100,0.08700,-0.10500,-0.01800,0.11100,0.46100,-0.56000,159.29000,-0.32000
191125_17.14.38.868,-0.02600,-0.02200,0.99300,0.07000,-0.12300,0.00000,0.11200,0.45900,-0.56500,158.89000,-0.40000
191125_17.14.38.869,-0.02600,-0.02300,0.99100,0.05300,-0.10500,-0.03500,0.10700,0.45600,-0.56000,159.79000,0.90000
191125_17.14.38.870,-0.02700,-0.02200,0.99300,0.05300,-0.08700,-0.01800,0.10900,0.45400,-0.55500,160.02000,0.23000
191125_17.14.38.871,-0.02600,-0.02200,0.99000,0.07000,-0.10500,-0.03500,0.11300,0.45500,-0.55300,158.91000,-1.11000
191125_17.14.38.871,-0.02600,-0.02200,0.99200,0.07000,-0.10500,-0.03500,0.11800,0.45300,-0.55100,159.25000,0.34000
191125_17.14.38.872,-0.02600,-0.02300,0.99400,0.07000,-0.10500,-0.01800,0.11300,0.45600,-0.55500,159.81000,0.56000
191125_17.14.38.873,-0.02600,-0.02300,0.99200,0.07000,-0.10500,-0.03500,0.11300,0.45200,-0.55500,159.54000,-0.27000
191125_17.14.38.873,-0.02500,-0.02300,0.99200,0.07000,-0.10500,-0.03500,0.11600,0.45400,-0.55100,159.49000,-0.05000
191125_17.14.38.874,-0.02600,-0.02200,0.99200,0.07000,-0.10500,-0.03500,0.11600,0.45600,-0.55500,159.35000,-0.14000
191125_17.14.38.875,-0.02500,-0.02200,0.98900,0.05300,-0.10500,-0.03500,0.11200,0.45200,-0.54900,159.11000,-0.24000
191125_17.14.38.876,-0.02700,-0.02300,0.99200,0.07000,-0.08700,-0.03500,0.11700,0.45300,-0.55300,159.59000,0.48000
191125_17.14.38.876,-0.02600,-0.02300,0.99300,0.07000,-0.10500,-0.03500,0.11000,0.45200,-0.55600,159.09000,-0.50000
191125_17.14.38.877,-0.02800,-0.02300,0.99400,0.05300,-0.08700,-0.03500,0.10800,0.45300,-0.55200,159.05000,-0.04000
191125_17.14.38.878,-0.02500,-0.02200,0.99100,0.05300,-0.10500,-0.03500,0.11500,0.45700,-0.55300,159.49000,0.44000
191125_17.14.38.879,-0.02600,-0.02300,0.99100,0.05300,-0.08700,-0.03500,0.11000,0.45100,-0.55200,159.95000,0.46000
191125_17.14.38.879,-0.02500,-0.02200,0.99100,0.07000,-0.10500,-0.03500,0.11200,0.45000,-0.55300,158.52000,-1.43000
191125_17.14.38.880,-0.02600,-0.02300,0.99100,0.08700,-0.08700,-0.03500,0.11600,0.45400,-0.55200,159.30000,0.78000
191125_17.14.38.881,-0.02700,-0.02200,0.99100,0.07000,-0.10500,-0.03500,0.11400,0.45200,-0.55400,159.60000,0.30000
191125_17.14.38.882,-0.02700,-0.02200,0.99100,0.05300,-0.10500,-0.05300,0.10900,0.45600,-0.55000,159.71000,0.11000
191125_17.14.38.882,-0.02500,-0.02100,0.99000,0.03500,-0.08700,-0.03500,0.11200,0.45000,-0.55500,159.20000,-0.51000
191125_17.14.38.883,-0.02500,-0.02200,0.99100,0.05300,-0.10500,-0.03500,0.11000,0.45400,-0.55400,159.98000,0.78000
191125_17.14.38.884,-0.02600,-0.02200,0.99200,0.07000,-0.10500,-0.03500,0.11100,0.45500,-0.55400,159.27000,-0.71000
191125_17.14.38.885,-0.02600,-0.02100,0.99000,0.05300,-0.10500,-0.01800,0.11100,0.45300,-0.56000,159.61000,0.34000
191125_17.14.38.885,-0.02600,-0.02300,0.99100,0.07000,-0.10500,-0.01800,0.11000,0.45400,-0.55500,159.27000,-0.34000
191125_17.14.38.886,-0.02500,-0.02100,1.00600,0.08700,-0.05300,-0.03500,0.11300,0.44900,-0.55000,159.16000,-0.11000
191125_17.14.38.887,-0.02600,-0.02200,0.98700,0.07000,-0.14000,-0.03500,0.11400,0.45000,-0.55700,159.37000,0.21000
191125_17.14.38.887,-0.02600,-0.02200,0.99300,0.08700,-0.10500,-0.01800,0.11300,0.45300,-0.55300,159.42000,0.05000
191125_17.14.38.888,-0.02600,-0.02200,0.99000,0.07000,-0.12300,-0.01800,0.11100,0.45000,-0.56100,159.74000,0.32000
191125_17.14.38.889,-0.02600,-0.02100,0.98900,0.05300,-0.10500,-0.01800,0.10700,0.45500,-0.55900,158.89000,-0.85000
191125_17.14.38.890,-0.02600,-0.02200,0.99200,0.07000,-0.12300,-0.05300,0.11100,0.45400,-0.55200,159.19000,0.30000
191125_17.14.38.890,-0.02700,-0.02300,0.99400,0.07000,-0.08700,-0.01800,0.10900,0.45300,-0.55000,159.38000,0.19000
191125_17.14.38.891,-0.02500,-0.02200,0.99100,0.07000,-0.12300,-0.01800,0.10900,0.45100,-0.55700,159.55000,0.17000
191125_17.14.38.892,-0.02700,-0.02300,0.99200,0.05300,-0.08700,-0.03500,0.11100,0.45200,-0.55900,159.11000,-0.44000
191125_17.14.38.893,-0.02600,-0.02200,0.99100,0.03500,-0.12300,-0.03500,0.10900,0.45100,-0.55600,159.50000,0.39000
191125_17.14.38.893,-0.02600,-0.02100,0.99100,0.08700,-0.10500,-0.01800,0.10900,0.45300,-0.56300,159.24000,-0.26000
191125_17.14.38.894,-0.02600,-0.02200,0.99100,0.07000,-0.12300,-0.01800,0.10900,0.45200,-0.56400,159.62000,0.38000
191125_17.14.38.895,-0.02500,-0.02300,0.98700,0.05300,-0.10500,-0.01800,0.11300,0.45600,-0.55600,159.50000,-0.12000
191125_17.14.38.896,-0.02600,-0.02300,0.99200,0.07000,-0.12300,-0.03500,0.11300,0.45800,-0.55800,159.40000,-0.10000
191125_17.14.38.944,-0.02700,-0.02300,0.99100,0.05300,-0.10500,-0.03500,0.11100,0.45500,-0.55800,159.65000,0.25000
191125_17.14.39.000,-0.02500,-0.02200,0.99100,0.07000,-0.10500,-0.01800,0.11500,0.45800,-0.55600,159.47000,-0.18000
191125_17.14.39.056,-0.02600,-0.02200,0.99200,0.07000,-0.14000,-0.01800,0.11000,0.46000,-0.55800,159.59000,0.12000
191125_17.14.39.112,-0.02600,-0.02100,0.99000,0.07000,-0.10500,0.00000,0.11500,0.46000,-0.56600,159.13000,-0.46000
191125_17.14.39.168,-0.02600,-0.02100,0.99100,0.08700,-0.12300,-0.03500,0.10900,0.45000,-0.56100,159.54000,0.41000
191125_17.14.39.224,-0.02700,-0.02200,0.99200,0.07000,-0.10500,-0.01800,0.11000,0.45200,-0.55700,160.38000,0.84000
191125_17.14.39.280,-0.02600,-0.02300,0.99200,0.05300,-0.10500,-0.01800,0.11200,0.45500,-0.55300,159.95000,-0.43000
191125_17.14.39.336,-0.02600,-0.02100,0.99200,0.05300,-0.10500,-0.03500,0.11100,0.45100,-0.55600,159.77000,-0.18000
191125_17.14.39.392,-0.02500,-0.02200,0.99000,0.03500,-0.10500,-0.03500,0.10800,0.45300,-0.55800,159.64000,-0.13000
191125_17.14.39.449,-0.02800,-0.02300,0.99100,0.07000,-0.10500,-0.03500,0.10700,0.45700,-0.56000,159.25000,-0.39000
191125_17.14.39.504,-0.02700,-0.02200,0.99300,0.08700,-0.08700,-0.01800,0.10500,0.45500,-0.55700,160.21000,0.96000
191125_17.14.39.561,-0.02600,-0.02200,0.98900,0.08700,-0.10500,0.00000,0.10700,0.45600,-0.55600,159.69000,-0.52000
191125_17.14.39.616,-0.02600,-0.02200,0.99300,0.05300,-0.07000,-0.05300,0.10900,0.45000,-0.55600,158.90000,-0.79000
191125_17.14.39.673,-0.02600,-0.02200,0.98500,0.03500,-0.03500,-0.05300,0.10700,0.45600,-0.55500,159.56000,0.66000
191125_17.14.39.728,-0.02500,-0.02200,0.99100,0.05300,0.01800,-0.01800,0.10800,0.45600,-0.56300,159.59000,0.03000
191125_17.14.39.784,-0.02700,-0.02200,0.99700,0.07000,-0.12300,-0.01800,0.11100,0.45200,-0.56300,159.42000,-0.17000
191125_17.14.39.840,-0.02700,-0.02100,0.99800,0.08700,-0.15700,-0.03500,0.10800,0.45800,-0.56100,159.00000,-0.42000
191125_17.14.39.897,-0.02500,-0.02200,0.98800,0.08700,-0.17500,-0.03500,0.10900,0.45500,-0.55800,158.84000,-0.16000
191125_17.14.39.953,-0.02600,-0.02100,0.99300,0.07000,-0.19200,-0.01800,0.11500,0.45200,-0.56100,159.37000,0.53000
191125_17.14.40.008,-0.02600,-0.02200,1.00000,0.05300,-0.15700,-0.03500,0.11400,0.45400,-0.55500,160.13000,0.76000
191125_17.14.40.064,-0.02600,-0.02300,0.98700,0.05300,-0.10500,-0.03500,0.11000,0.45300,-0.55800,159.55000,-0.58000
191125_17.14.40.121,-0.02600,-0.02100,0.99400,0.07000,-0.15700,-0.01800,0.11200,0.45700,-0.55700,159.79000,0.24000
191125_17.14.40.176,-0.02500,-0.02100,0.99100,0.05300,-0.14000,-0.01800,0.11600,0.45500,-0.56100,159.42000,-0.37000
191125_17.14.40.232,-0.02500,-0.02200,0.99100,0.07000,-0.15700,-0.03500,0.11500,0.45300,-0.56000,159.09000,-0.33000
191125_17.14.40.288,-0.02700,-0.02100,0.99200,0.07000,-0.15700,-0.03500,0.11500,0.45700,-0.55800,159.16000,0.07000
191125_17.14.40.344,-0.02500,-0.02100,0.98700,0.05300,-0.12300,-0.03500,0.11400,0.45900,-0.55600,159.49000,0.33000
191125_17.14.40.400,-0.02700,-0.02200,0.99100,0.07000,-0.07000,-0.03500,0.11400,0.45400,-0.55700,159.63000,0.14000
191125_17.14.40.456,-0.02600,-0.02100,0.99000,0.07000,-0.05300,-0.01800,0.11400,0.45400,-0.55700,159.21000,-0.42000
191125_17.14.40.512,-0.02600,-0.02200,0.99400,0.05300,-0.10500,-0.05300,0.11200,0.45200,-0.56500,159.28000,0.07000
191125_17.14.40.568,-0.02700,-0.02100,0.99600,0.03500,0.00000,-0.01800,0.10700,0.45200,-0.55300,159.43000,0.15000
191125_17.14.40.624,-0.02600,-0.02200,0.98900,0.05300,-0.10500,-0.03500,0.11600,0.45400,-0.55500,159.84000,0.41000
191125_17.14.40.680,-0.02700,-0.02200,0.99400,0.05300,0.00000,-0.01800,0.11300,0.45400,-0.54800,159.48000,-0.36000
191125_17.14.40.736,-0.02600,-0.02300,0.99100,0.03500,-0.10500,-0.03500,0.11600,0.45100,-0.55200,159.52000,0.04000
191125_17.14.40.793,-0.02700,-0.02200,1.00000,0.05300,-0.07000,-0.01800,0.11200,0.45600,-0.55900,158.91000,-0.61000
191125_17.14.40.848,-0.02700,-0.02200,0.99000,0.05300,-0.05300,0.00000,0.10700,0.46000,-0.56100,159.26000,0.35000
191125_17.14.40.905,-0.02700,-0.02300,0.99100,0.05300,-0.10500,-0.03500,0.11100,0.46100,-0.55700,159.33000,0.07000
191125_17.14.40.960,-0.02600,-0.02200,0.99300,0.05300,-0.08700,-0.01800,0.10800,0.46000,-0.55100,159.30000,-0.03000
191125_17.14.41.017,-0.02700,-0.02300,0.99200,0.05300,-0.07000,-0.03500,0.11300,0.45700,-0.55600,159.73000,0.43000
191125_17.14.41.073,-0.02500,-0.02300,0.98900,0.07000,-0.05300,-0.03500,0.11200,0.45600,-0.55600,159.48000,-0.25000
191125_17.14.41.128,-0.02600,-0.02300,0.99000,0.05300,-0.08700,-0.01800,0.10900,0.45800,-0.55600,159.62000,0.14000
191125_17.14.41.184,-0.02600,-0.02100,0.99100,0.05300,-0.08700,-0.01800,0.11000,0.45900,-0.55500,159.32000,-0.30000
191125_17.14.41.240,-0.02700,-0.02300,0.99300,0.07000,-0.12300,-0.01800,0.10900,0.45700,-0.55400,159.28000,-0.04000
191125_17.14.41.297,-0.02700,-0.02200,0.99100,0.07000,-0.08700,-0.03500,0.10700,0.45800,-0.55700,159.23000,-0.05000
191125_17.14.41.352,-0.02600,-0.02200,0.99200,0.07000,-0.10500,-0.01800,0.10800,0.45300,-0.55700,159.23000,0.00000
191125_17.14.41.408,-0.02700,-0.02200,0.99400,0.07000,-0.07000,-0.03500,0.10900,0.45400,-0.55400,159.35000,0.12000
191125_17.14.41.464,-0.02700,-0.02200,0.99400,0.05300,-0.07000,-0.03500,0.10300,0.45700,-0.56200,159.51000,0.16000
191125_17.14.41.520,-0.02600,-0.02300,0.99400,0.07000,-0.08700,-0.03500,0.10800,0.44900,-0.55600,159.37000,-0.14000
191125_17.14.41.576,-0.02600,-0.02200,0.98900,0.07000,-0.14000,-0.01800,0.10700,0.45900,-0.55100,158.87000,-0.50000
191125_17.14.41.632,-0.02800,-0.02300,0.98900,0.07000,-0.12300,-0.03500,0.10800,0.45600,-0.55300,159.34000,0.47000
191125_17.14.41.688,-0.02700,-0.02200,0.99400,0.07000,-0.07000,-0.03500,0.11000,0.46100,-0.55100,159.67000,0.33000
191125_17.14.41.745,-0.02600,-0.02200,0.99300,0.07000,-0.08700,-0.01800,0.10700,0.45000,-0.55200,159.43000,-0.24000
191125_17.14.41.800,-0.02700,-0.02200,0.99100,0.07000,-0.10500,-0.03500,0.10700,0.45400,-0.54700,159.96000,0.53000
191125_17.14.41.856,-0.02700,-0.02100,0.99100,0.08700,-0.10500,-0.05300,0.10700,0.45600,-0.54700,159.42000,-0.54000
191125_17.14.41.913,-0.02600,-0.02100,0.98600,0.05300,-0.12300,-0.01800,0.10900,0.45200,-0.54500,159.84000,0.42000
191125_17.14.41.968,-0.02700,-0.02200,0.99000,0.08700,-0.10500,-0.01800,0.10700,0.45500,-0.53700,159.12000,-0.72000
191125_17.14.42.025,-0.02800,-0.02200,0.99400,0.05300,-0.10500,-0.03500,0.10900,0.46100,-0.54800,159.59000,0.47000
191125_17.14.42.081,-0.02700,-0.02200,0.99300,0.05300,-0.12300,-0.03500,0.10300,0.45900,-0.55800,159.98000,0.39000
191125_17.14.42.137,-0.02700,-0.02200,0.99100,0.08700,-0.12300,-0.05300,0.10300,0.45400,-0.55400,159.49000,-0.49000
191125_17.14.42.193,-0.02700,-0.02300,0.98900,0.05300,-0.12300,-0.03500,0.10300,0.45900,-0.55000,158.78000,-0.71000
191125_17.14.42.248,-0.02500,-0.02200,0.98800,0.07000,-0.07000,0.00000,0.10600,0.45800,-0.55100,159.56000,0.78000
191125_17.14.42.305,-0.02600,-0.02200,0.98600,0.07000,-0.07000,-0.03500,0.10800,0.45800,-0.54700,159.59000,0.03000
191125_17.14.42.361,-0.02700,-0.02300,0.99300,0.05300,-0.12300,-0.03500,0.11400,0.45800,-0.55500,160.10000,0.51000
191125_17.14.42.417,-0.02700,-0.02300,0.99100,0.07000,-0.10500,-0.01800,0.10800,0.45800,-0.54800,159.04000,-1.06000
191125_17.14.42.472,-0.02700,-0.02200,0.99300,0.07000,-0.08700,-0.03500,0.10600,0.45900,-0.54800,160.08000,1.04000
191125_17.14.42.528,-0.02700,-0.02200,0.99200,0.07000,-0.10500,-0.03500,0.11600,0.45400,-0.55700,159.20000,-0.88000
191125_17.14.42.584,-0.02700,-0.02300,0.99200,0.05300,-0.10500,-0.01800,0.10900,0.45500,-0.55400,159.32000,0.12000
191125_17.14.42.640,-0.02700,-0.02100,0.99300,0.08700,-0.08700,-0.03500,0.11000,0.45700,-0.55600,159.84000,0.52000
191125_17.14.42.696,-0.02500,-0.02100,0.99100,0.08700,-0.10500,-0.01800,0.11000,0.45600,-0.55700,159.22000,-0.62000
191125_17.14.42.752,-0.02700,-0.02300,0.99900,0.05300,-0.12300,0.00000,0.10900,0.45500,-0.54700,159.81000,0.59000
191125_17.14.42.808,-0.02600,-0.02100,0.98900,0.08700,-0.12300,-0.01800,0.11400,0.45800,-0.55000,159.13000,-0.68000
191125_17.14.42.864,-0.02500,-0.02200,0.99200,0.08700,-0.10500,-0.03500,0.11200,0.46300,-0.55700,160.13000,1.00000
191125_17.14.42.920,-0.02700,-0.02100,0.99100,0.07000,-0.12300,-0.01800,0.10800,0.45800,-0.55200,159.19000,-0.94000
191125_17.14.42.976,-0.02600,-0.02200,0.98900,0.05300,-0.10500,-0.01800,0.11300,0.46200,-0.55100,159.38000,0.19000
191125_17.14.43.032,-0.02600,-0.02200,0.99100,0.07000,-0.12300,-0.03500,0.11500,0.45800,-0.55400,159.24000,-0.14000
191125_17.14.43.088,-0.02700,-0.02200,0.99100,0.07000,-0.08700,-0.01800,0.11600,0.46000,-0.55200,158.81000,-0.43000
191125_17.14.43.144,-0.02700,-0.02300,0.99000,0.05300,-0.12300,-0.05300,0.11400,0.46000,-0.55500,159.47000,0.66000
191125_17.14.43.201,-0.02700,-0.02200,0.99300,0.07000,-0.12300,-0.01800,0.11100,0.45100,-0.55900,159.32000,-0.15000
191125_17.14.43.256,-0.02600,-0.02200,0.98900,0.05300,-0.10500,0.00000,0.11400,0.45700,-0.55400,159.07000,-0.25000
191125_17.14.43.313,-0.02600,-0.02200,0.98500,0.07000,-0.10500,-0.03500,0.10900,0.46000,-0.55700,159.38000,0.31000
191125_17.14.43.368,-0.02800,-0.02200,0.99100,0.05300,-0.08700,-0.03500,0.11600,0.46000,-0.56100,159.52000,0.14000
191125_17.14.43.425,-0.02700,-0.02300,0.99300,0.05300,-0.12300,-0.03500,0.11100,0.46200,-0.55700,159.50000,-0.02000
191125_17.14.43.480,-0.02600,-0.02300,0.99000,0.07000,-0.12300,-0.01800,0.11400,0.45700,-0.56100,160.19000,0.69000
191125_17.14.43.536,-0.02500,-0.02200,0.99000,0.08700,-0.14000,-0.03500,0.10900,0.45600,-0.56000,158.55000,-1.64000
191125_17.14.43.592,-0.02700,-0.02200,0.99200,0.07000,-0.12300,-0.01800,0.11300,0.45900,-0.55300,159.69000,1.14000
191125_17.14.43.648,-0.02700,-0.02200,0.99500,0.05300,-0.07000,-0.03500,0.11200,0.45700,-0.55400,159.19000,-0.50000
191125_17.14.43.704,-0.02800,-0.02100,1.00100,0.07000,-0.14000,-0.03500,0.11200,0.46100,-0.55100,159.57000,0.38000
191125_17.14.43.760,-0.02700,-0.02200,0.98900,0.07000,-0.12300,-0.03500,0.11200,0.46100,-0.55300,158.90000,-0.67000
191125_17.14.43.816,-0.02700,-0.02100,0.99100,0.05300,-0.10500,-0.03500,0.11200,0.46300,-0.56100,159.60000,0.70000
191125_17.14.43.872,-0.02700,-0.02200,1.00300,0.07000,-0.12300,-0.03500,0.11100,0.46200,-0.55900,159.51000,-0.09000
191125_17.14.43.928,-0.02700,-0.02200,0.98800,0.07000,-0.14000,-0.01800,0.11000,0.46100,-0.54900,159.08000,-0.43000
191125_17.14.43.984,-0.02700,-0.02300,0.99200,0.07000,-0.10500,-0.01800,0.11400,0.45800,-0.55400,159.72000,0.64000
191125_17.14.44.040,-0.02700,-0.02200,0.99500,0.07000,-0.10500,-0.03500,0.11000,0.45800,-0.55300,160.11000,0.39000
191125_17.14.44.097,-0.02600,-0.02200,0.99100,0.05300,-0.08700,-0.03500,0.11000,0.45400,-0.56100,159.31000,-0.80000
191125_17.14.44.152,-0.02700,-0.02200,0.99300,0.05300,-0.08700,-0.01800,0.10600,0.45600,-0.55900,159.50000,0.19000
191125_17.14.44.208,-0.02700,-0.02200,0.99200,0.07000,-0.10500,-0.01800,0.11000,0.45800,-0.55100,160.40000,0.90000
191125_17.14.44.265,-0.02600,-0.02100,0.99100,0.05300,-0.12300,-0.03500,0.11100,0.45500,-0.55400,159.50000,-0.90000
191125_17.14.44.320,-0.02600,-0.02300,0.99400,0.08700,-0.10500,-0.03500,0.10800,0.45400,-0.55600,159.15000,-0.35000
191125_17.14.44.376,-0.02600,-0.02200,0.98800,0.07000,-0.08700,-0.01800,0.11100,0.45400,-0.55000,159.14000,-0.01000
191125_17.14.44.432,-0.02600,-0.02200,0.99000,0.08700,-0.10500,-0.01800,0.11000,0.45800,-0.54900,159.27000,0.13000
191125_17.14.44.489,-0.02700,-0.02200,0.99100,0.05300,-0.10500,-0.03500,0.10900,0.45600,-0.55400,159.85000,0.58000
191125_17.14.44.544,-0.02600,-0.02200,0.99000,0.05300,0.00000,-0.03500,0.11000,0.46200,-0.55300,159.48000,-0.37000
191125_17.14.44.601,-0.02800,-0.02200,0.99500,0.05300,-0.03500,-0.01800,0.11300,0.45600,-0.55500,159.17000,-0.31000
191125_17.14.44.656,-0.02800,-0.02200,0.99100,0.07000,-0.03500,-0.01800,0.11000,0.45200,-0.55700,159.16000,-0.01000
191125_17.14.44.712,-0.02700,-0.02200,0.99800,0.08700,-0.21000,-0.01800,0.11000,0.45300,-0.55800,160.01000,0.85000
191125_17.14.44.768,-0.02600,-0.02300,0.99200,0.07000,-0.21000,-0.03500,0.11400,0.45600,-0.56400,159.29000,-0.72000
191125_17.14.44.824,-0.02700,-0.02200,0.99500,0.10500,-0.19200,-0.01800,0.11000,0.45300,-0.55900,159.57000,0.28000
191125_17.14.44.881,-0.02600,-0.02200,0.98900,0.07000,-0.19200,-0.01800,0.11200,0.45500,-0.55700,159.80000,0.23000
191125_17.14.44.936,-0.02600,-0.02200,0.98300,0.05300,-0.15700,-0.01800,0.11600,0.45100,-0.56300,159.85000,0.05000
191125_17.14.44.992,-0.02600,-0.02200,0.99100,0.07000,-0.14000,-0.01800,0.10600,0.45200,-0.56300,159.60000,-0.25000
191125_17.14.45.049,-0.02600,-0.02200,0.99700,0.05300,-0.08700,-0.01800,0.10900,0.45500,-0.55500,158.87000,-0.73000
191125_17.14.45.104,-0.02700,-0.02200,0.99000,0.07000,-0.14000,-0.01800,0.11200,0.45500,-0.55600,159.24000,0.37000
191125_17.14.45.160,-0.02500,-0.02200,0.99700,0.05300,-0.15700,-0.03500,0.11600,0.45800,-0.55200,159.91000,0.67000
191125_17.14.45.216,-0.02500,-0.02200,0.98900,0.07000,-0.19200,-0.01800,0.11200,0.45700,-0.54900,160.06000,0.15000
191125_17.14.45.272,-0.02500,-0.02200,0.99200,0.07000,-0.19200,-0.03500,0.11700,0.45800,-0.55000,158.55000,-1.51000
191125_17.14.45.329,-0.02500,-0.02100,0.98900,0.08700,-0.15700,-0.03500,0.11600,0.45500,-0.55400,159.57000,1.02000
191125_17.14.45.384,-0.02600,-0.02300,0.98800,0.05300,-0.14000,-0.03500,0.11200,0.45300,-0.54900,159.86000,0.29000
191125_17.14.45.440,-0.02500,-0.02100,0.98900,0.05300,-0.10500,-0.03500,0.11500,0.45400,-0.54200,159.56000,-0.30000
191125_17.14.45.496,-0.02500,-0.02200,0.99300,0.07000,-0.10500,-0.01800,0.11300,0.45900,-0.54700,158.95000,-0.61000
191125_17.14.45.553,-0.02600,-0.02200,0.99200,0.07000,-0.10500,-0.01800,0.11000,0.45600,-0.54800,159.38000,0.43000
191125_17.14.45.609,-0.02600,-0.02200,0.99100,0.05300,-0.10500,-0.03500,0.11200,0.45300,-0.54800,159.58000,0.20000
191125_17.14.45.664,-0.02600,-0.02200,0.99000,0.05300,-0.14000,-0.03500,0.11600,0.45100,-0.55100,159.23000,-0.35000
191125_17.14.45.720,-0.02500,-0.02300,0.99300,0.03500,-0.10500,-0.01800,0.11100,0.45600,-0.54800,159.35000,0.12000
191125_17.14.45.776,-0.02500,-0.02200,0.99000,0.07000,-0.12300,-0.01800,0.10900,0.46000,-0.54500,159.19000,-0.16000
191125_17.14.45.833,-0.02500,-0.02300,0.99300,0.05300,-0.12300,-0.01800,0.11100,0.45500,-0.54900,160.01000,0.82000
191125_17.14.45.889,-0.02500,-0.02200,0.99200,0.07000,-0.10500,-0.05300,0.11300,0.46000,-0.54800,159.64000,-0.37000
191125_17.14.45.944,-0.02600,-0.02200,0.99300,0.07000,-0.12300,-0.03500,0.11200,0.45800,-0.55000,159.84000,0.20000
191125_17.14.46.001,-0.02500,-0.02200,0.99200,0.07000,-0.08700,-0.03500,0.11400,0.46200,-0.55700,159.67000,-0.17000
191125_17.14.46.057,-0.02500,-0.02300,0.99100,0.05300,-0.08700,-0.03500,0.10900,0.45900,-0.55800,160.01000,0.34000
191125_17.14.46.112,-0.02500,-0.02200,0.99200,0.05300,-0.08700,-0.03500,0.11000,0.45900,-0.55600,160.12000,0.11000
191125_17.14.46.168,-0.02500,-0.02200,0.99100,0.07000,-0.10500,-0.03500,0.11700,0.45800,-0.55100,158.91000,-1.21000
191125_17.14.46.224,-0.02500,-0.02100,0.99200,0.08700,-0.12300,-0.01800,0.11000,0.46100,-0.54900,159.84000,0.93000
191125_17.14.46.280,-0.02500,-0.02300,0.99200,0.05300,-0.12300,-0.01800,0.11100,0.45600,-0.54800,159.24000,-0.60000
191125_17.14.46.336,-0.02500,-0.02200,0.99200,0.05300,-0.10500,-0.03500,0.11300,0.45400,-0.55700,159.07000,-0.17000
191125_17.14.46.392,-0.02500,-0.02300,0.99100,0.07000,-0.08700,-0.03500,0.11400,0.45600,-0.55400,159.59000,0.52000
191125_17.14.46.449,-0.02500,-0.02200,0.99200,0.07000,-0.10500,-0.03500,0.11200,0.45800,-0.54900,160.35000,0.76000
191125_17.14.46.504,-0.02500,-0.02200,0.99100,0.05300,-0.10500,-0.01800,0.11300,0.45500,-0.55300,159.79000,-0.56000
191125_17.14.46.560,-0.02500,-0.02200,0.99000,0.08700,-0.12300,-0.03500,0.11400,0.45600,-0.55200,159.21000,-0.58000
191125_17.14.46.617,-0.02500,-0.02200,0.99100,0.07000,-0.10500,-0.03500,0.11500,0.45800,-0.55700,159.20000,-0.01000
191125_17.14.46.672,-0.02600,-0.02100,0.99100,0.03500,-0.10500,-0.05300,0.11600,0.45600,-0.55600,159.67000,0.47000
191125_17.14.46.728,-0.02500,-0.02200,0.99100,0.07000,-0.12300,-0.01800,0.10900,0.45300,-0.55400,159.12000,-0.55000
191125_17.14.46.784,-0.02500,-0.02200,0.99200,0.07000,-0.08700,-0.03500,0.11600,0.45500,-0.55900,158.91000,-0.21000
191125_17.14.46.840,-0.02600,-0.02100,0.99200,0.07000,-0.08700,-0.03500,0.11100,0.45800,-0.54400,159.56000,0.65000
191125_17.14.46.896,-0.02500,-0.02200,0.99600,0.07000,-0.10500,-0.03500,0.10800,0.45400,-0.54100,159.87000,0.31000
191125_17.14.46.953,-0.02600,-0.02200,0.98500,0.03500,-0.10500,-0.03500,0.11000,0.45200,-0.55000,159.04000,-0.83000
191125_17.14.47.009,-0.02400,-0.02200,0.99100,0.07000,-0.08700,-0.03500,0.10800,0.45700,-0.55700,159.35000,0.31000
191125_17.14.47.065,-0.02500,-0.02200,0.99400,0.08700,-0.12300,-0.03500,0.11500,0.45500,-0.55600,159.81000,0.46000
191125_17.14.47.121,-0.02500,-0.02100,0.99100,0.05300,-0.08700,-0.05300,0.11200,0.45500,-0.55500,159.61000,-0.20000
191125_17.14.47.176,-0.02600,-0.02200,0.99100,0.08700,-0.10500,-0.01800,0.11500,0.45800,-0.54900,159.62000,0.01000
191125_17.14.47.232,-0.02500,-0.02200,0.99200,0.07000,-0.12300,-0.01800,0.11400,0.45600,-0.55600,159.61000,-0.01000
191125_17.14.47.288,-0.02500,-0.02200,0.99100,0.05300,-0.08700,-0.03500,0.11300,0.45800,-0.55200,159.22000,-0.39000
191125_17.14.47.344,-0.02600,-0.02200,0.99200,0.07000,-0.10500,-0.01800,0.11000,0.46100,-0.55500,159.29000,0.07000
191125_17.14.47.400,-0.02500,-0.02300,0.99000,0.07000,-0.08700,-0.01800,0.11100,0.45800,-0.54800,159.19000,-0.10000
191125_17.14.47.456,-0.02600,-0.02100,0.99300,0.08700,-0.12300,-0.03500,0.11600,0.45900,-0.54900,159.74000,0.55000
191125_17.14.47.512,-0.02500,-0.02100,0.99100,0.08700,-0.08700,-0.03500,0.11500,0.46100,-0.55100,159.58000,-0.16000
191125_17.14.47.569,-0.02600,-0.02200,0.99100,0.07000,-0.10500,-0.03500,0.11400,0.45900,-0.55700,159.58000,0.00000
191125_17.14.47.625,-0.02600,-0.02100,0.99200,0.07000,-0.10500,-0.05300,0.11100,0.45800,-0.55500,159.18000,-0.40000
191125_17.14.47.680,-0.02500,-0.02300,0.99000,0.05300,-0.10500,-0.03500,0.11000,0.46400,-0.55300,159.66000,0.48000
191125_17.14.47.737,-0.02500,-0.02200,0.99300,0.05300,-0.12300,-0.01800,0.11300,0.46500,-0.55300,159.13000,-0.53000
191125_17.14.47.793,-0.02500,-0.02200,0.99000,0.07000,-0.10500,-0.01800,0.11100,0.46300,-0.55400,159.41000,0.28000
191125_17.14.47.848,-0.02400,-0.02200,0.99100,0.07000,-0.08700,-0.03500,0.11000,0.46000,-0.55300,159.34000,-0.07000
191125_17.14.47.904,-0.02500,-0.02200,0.99000,0.05300,-0.12300,-0.01800,0.11000,0.46000,-0.55300,159.35000,0.01000
191125_17.14.47.960,-0.02800,-0.02200,0.99100,0.07000,-0.12300,-0.03500,0.11400,0.46100,-0.54600,159.85000,0.50000
191125_17.14.48.016,-0.02400,-0.02100,0.99100,0.07000,-0.10500,-0.03500,0.10900,0.45700,-0.55000,159.09000,-0.76000
191125_17.14.48.072,-0.02600,-0.02200,0.99200,0.07000,-0.08700,-0.03500,0.11600,0.46300,-0.55000,160.05000,0.96000
191125_17.14.48.129,-0.02500,-0.02200,0.99200,0.07000,-0.08700,-0.03500,0.11300,0.45800,-0.55500,159.50000,-0.55000
191125_17.14.48.185,-0.02500,-0.02100,0.99200,0.07000,-0.10500,-0.01800,0.11100,0.45800,-0.54600,159.29000,-0.21000
191125_17.14.48.241,-0.02500,-0.02300,0.99300,0.08700,-0.10500,-0.03500,0.10800,0.45800,-0.55300,158.90000,-0.39000
191125_17.14.48.296,-0.02500,-0.02200,0.99100,0.05300,-0.10500,-0.01800,0.11100,0.45800,-0.55400,159.66000,0.76000
191125_17.14.48.353,-0.02400,-0.02200,0.99200,0.05300,-0.10500,-0.03500,0.10500,0.46100,-0.55700,159.52000,-0.14000
191125_17.14.48.408,-0.02600,-0.02200,0.99200,0.07000,-0.08700,-0.05300,0.10800,0.46100,-0.55300,159.47000,-0.05000
191125_17.14.48.464,-0.02500,-0.02200,0.99100,0.07000,-0.10500,-0.01800,0.10400,0.46100,-0.54700,159.14000,-0.33000
191125_17.14.48.520,-0.02400,-0.02200,0.99100,0.07000,-0.10500,-0.03500,0.11200,0.46300,-0.54900,159.80000,0.66000
191125_17.14.48.576,-0.02500,-0.02200,0.99200,0.07000,-0.12300,-0.03500,0.11300,0.46300,-0.54900,158.49000,-1.31000
191125_17.14.48.632,-0.02600,-0.02100,0.99100,0.07000,-0.10500,0.00000,0.11000,0.46600,-0.54700,160.00000,1.51000
191125_17.14.48.688,-0.02400,-0.02200,0.99000,0.05300,-0.12300,-0.01800,0.10600,0.46300,-0.54100,159.73000,-0.27000
191125_17.14.48.744,-0.02500,-0.02200,0.99100,0.07000,-0.10500,-0.03500,0.11500,0.46000,-0.54700,159.85000,0.12000
191125_17.14.48.800,-0.02500,-0.02200,0.99300,0.07000,-0.10500,-0.01800,0.11200,0.46200,-0.54500,159.95000,0.10000
191125_17.14.48.856,-0.02500,-0.02300,0.99100,0.05300,-0.12300,-0.03500,0.11200,0.46000,-0.55400,159.70000,-0.25000
191125_17.14.48.913,-0.02500,-0.02200,0.99200,0.05300,-0.10500,-0.01800,0.11100,0.45900,-0.55500,159.63000,-0.07000
191125_17.14.48.968,-0.02400,-0.02200,0.99100,0.07000,-0.08700,-0.03500,0.11400,0.46100,-0.55100,159.25000,-0.38000
191125_17.14.49.024,-0.02600,-0.02200,0.99100,0.07000,-0.08700,-0.03500,0.11000,0.45700,-0.55200,159.80000,0.55000
191125_17.14.49.080,-0.02500,-0.02200,0.99300,0.05300,-0.10500,-0.03500,0.11200,0.46300,-0.55300,159.72000,-0.08000
191125_17.14.49.136,-0.02500,-0.02300,0.99300,0.05300,-0.10500,-0.03500,0.10500,0.45700,-0.55100,159.41000,-0.31000
191125_17.14.49.192,-0.02700,-0.02100,0.99200,0.05300,-0.10500,-0.03500,0.11300,0.45700,-0.55700,159.52000,0.11000
191125_17.14.49.248,-0.02600,-0.02100,0.99100,0.08700,-0.12300,-0.03500,0.11100,0.46000,-0.55300,159.28000,-0.24000
191125_17.14.49.304,-0.02400,-0.02200,0.99100,0.07000,-0.10500,-0.01800,0.11600,0.45800,-0.55500,158.98000,-0.30000
191125_17.14.49.360,-0.02500,-0.02100,0.99200,0.07000,-0.12300,-0.01800,0.10600,0.45300,-0.55100,159.41000,0.43000
191125_17.14.49.417,-0.02500,-0.02100,0.99200,0.07000,-0.07000,-0.01800,0.10800,0.46000,-0.55300,158.83000,-0.58000
191125_17.14.49.472,-0.02500,-0.02200,0.99100,0.05300,-0.10500,-0.01800,0.11000,0.45900,-0.55500,159.35000,0.52000
191125_17.14.49.528,-0.02600,-0.02100,0.99200,0.08700,-0.08700,-0.05300,0.10800,0.46400,-0.55400,159.47000,0.12000
191125_17.14.49.584,-0.02500,-0.02100,0.99200,0.07000,-0.10500,-0.01800,0.11100,0.46200,-0.55400,159.71000,0.24000
191125_17.14.49.640,-0.02600,-0.02200,0.99100,0.07000,-0.10500,-0.01800,0.11100,0.45900,-0.55000,159.32000,-0.39000
191125_17.14.49.696,-0.02500,-0.02100,0.99200,0.07000,-0.12300,-0.03500,0.10900,0.45600,-0.55000,159.45000,0.13000
191125_17.14.49.753,-0.02400,-0.02200,0.99100,0.07000,-0.10500,-0.03500,0.10900,0.46300,-0.55200,159.11000,-0.34000
191125_17.14.49.808,-0.02400,-0.02200,0.99100,0.05300,-0.12300,-0.03500,0.11300,0.46200,-0.55300,159.46000,0.35000
191125_17.14.49.864,-0.02400,-0.02200,0.99200,0.03500,-0.12300,-0.01800,0.10900,0.46100,-0.55600,160.43000,0.97000
191125_17.14.49.920,-0.02500,-0.02100,0.99200,0.05300,-0.10500,-0.01800,0.11000,0.45700,-0.55700,159.73000,-0.70000
191125_17.14.49.977,-0.02500,-0.02300,0.99200,0.07000,-0.10500,-0.01800,0.11600,0.46000,-0.55000,159.40000,-0.33000
191125_17.14.50.033,-0.02500,-0.02200,0.99100,0.05300,-0.08700,-0.03500,0.11000,0.45800,-0.55400,159.60000,0.20000
191125_17.14.50.088,-0.02600,-0.02200,0.99200,0.08700,-0.10500,-0.01800,0.11100,0.45800,-0.55300,159.67000,0.07000
191125_17.14.50.144,-0.02500,-0.02100,0.99100,0.07000,-0.07000,-0.01800,0.10800,0.45400,-0.54700,159.45000,-0.22000
191125_17.14.50.200,-0.02400,-0.02300,0.99100,0.07000,-0.12300,-0.01800,0.11000,0.45500,-0.55100,159.51000,0.06000
191125_17.14.50.256,-0.02400,-0.02200,0.99100,0.07000,-0.10500,-0.01800,0.10900,0.46000,-0.55100,158.87000,-0.64000
191125_17.14.50.313,-0.02500,-0.02200,0.99100,0.05300,-0.08700,-0.01800,0.11800,0.45800,-0.55100,159.75000,0.88000
191125_17.14.50.369,-0.02500,-0.02200,0.99200,0.05300,-0.10500,-0.03500,0.11400,0.46000,-0.55200,159.08000,-0.67000
191125_17.14.50.424,-0.02400,-0.02100,0.99100,0.07000,-0.10500,-0.03500,0.11400,0.45500,-0.55000,159.30000,0.22000
191125_17.14.50.481,-0.02600,-0.02200,0.99100,0.05300,-0.14000,-0.05300,0.11400,0.45900,-0.54700,159.37000,0.07000
191125_17.14.50.536,-0.02500,-0.02200,0.99300,0.05300,-0.08700,-0.03500,0.11500,0.45900,-0.55200,159.63000,0.26000
191125_17.14.50.592,-0.02500,-0.02100,0.99200,0.05300,-0.10500,-0.03500,0.11200,0.45500,-0.56000,159.23000,-0.40000
191125_17.14.50.648,-0.02500,-0.02200,0.99100,0.08700,-0.12300,-0.03500,0.11300,0.45700,-0.55000,159.82000,0.59000
191125_17.14.50.704,-0.02600,-0.02300,0.99100,0.07000,-0.08700,-0.03500,0.11500,0.45900,-0.55500,159.01000,-0.81000
191125_17.14.50.760,-0.02500,-0.02100,0.99200,0.07000,-0.10500,-0.01800,0.11500,0.46200,-0.55200,159.27000,0.26000
191125_17.14.50.816,-0.02500,-0.02200,0.99000,0.07000,-0.08700,0.00000,0.11000,0.46000,-0.55900,160.07000,0.80000
191125_17.14.50.872,-0.02400,-0.02100,0.99100,0.07000,-0.12300,-0.01800,0.10900,0.45900,-0.54900,159.32000,-0.75000
191125_17.14.50.928,-0.02500,-0.02200,0.99100,0.08700,-0.12300,-0.01800,0.11600,0.46100,-0.55000,159.08000,-0.24000
191125_17.14.50.984,-0.02500,-0.02200,0.99200,0.07000,-0.12300,-0.01800,0.11100,0.45700,-0.55100,159.91000,0.83000
191125_17.14.51.040,-0.02500,-0.02200,0.99000,0.05300,-0.10500,-0.03500,0.10900,0.46100,-0.54800,159.25000,-0.66000
191125_17.14.51.097,-0.02600,-0.02200,0.99100,0.07000,-0.12300,-0.01800,0.11400,0.45800,-0.54700,159.33000,0.08000
191125_17.14.51.153,-0.02500,-0.02100,0.99200,0.05300,-0.10500,-0.01800,0.11400,0.46300,-0.54700,159.23000,-0.10000
191125_17.14.51.208,-0.02500,-0.02200,0.99100,0.07000,-0.12300,-0.03500,0.11300,0.46100,-0.55100,159.07000,-0.16000
191125_17.14.51.265,-0.02500,-0.02100,0.99100,0.05300,-0.08700,-0.01800,0.11100,0.46100,-0.54600,159.44000,0.37000
191125_17.14.51.320,-0.02400,-0.02200,0.99100,0.07000,-0.10500,-0.01800,0.11200,0.45900,-0.55500,159.80000,0.36000
191125_17.14.51.376,-0.02600,-0.02100,0.99200,0.05300,-0.12300,-0.03500,0.11100,0.46000,-0.55600,158.88000,-0.92000
191125_17.14.51.432,-0.02500,-0.02200,0.99200,0.07000,-0.10500,-0.03500,0.11400,0.46100,-0.55700,158.80000,-0.08000
191125_17.14.51.488,-0.02500,-0.02200,0.99100,0.07000,-0.10500,0.00000,0.11800,0.46300,-0.55500,159.07000,0.27000
191125_17.14.51.544,-0.02500,-0.02100,0.99200,0.07000,-0.12300,-0.03500,0.11200,0.46000,-0.55700,159.49000,0.42000
191125_17.14.51.600,-0.02600,-0.02200,0.99100,0.05300,-0.12300,-0.01800,0.11200,0.45900,-0.55000,159.90000,0.41000
191125_17.14.51.656,-0.02500,-0.02200,0.99200,0.05300,-0.10500,-0.03500,0.11500,0.46400,-0.55000,159.38000,-0.52000
191125_17.14.51.712,-0.02500,-0.02300,0.99100,0.07000,-0.12300,-0.01800,0.11500,0.46300,-0.54800,159.50000,0.12000
191125_17.14.51.768,-0.02400,-0.02200,0.99200,0.07000,-0.08700,-0.01800,0.11800,0.46000,-0.54900,159.89000,0.39000
191125_17.14.51.824,-0.02600,-0.02200,0.99100,0.07000,-0.10500,-0.01800,0.11600,0.45600,-0.54600,159.47000,-0.42000
191125_17.14.51.880,-0.02600,-0.02200,0.99100,0.07000,-0.10500,-0.01800,0.11200,0.46500,-0.54400,159.32000,-0.15000
191125_17.14.51.936,-0.02600,-0.02200,0.99100,0.07000,-0.10500,-0.01800,0.11500,0.45700,-0.54900,158.94000,-0.38000
191125_17.14.51.992,-0.02500,-0.02300,0.99100,0.05300,-0.10500,-0.07000,0.11500,0.46100,-0.54900,159.72000,0.78000
191125_17.14.52.048,-0.02600,-0.02100,0.99200,0.07000,-0.10500,-0.03500,0.11400,0.45800,-0.54300,159.54000,-0.18000
191125_17.14.52.104,-0.02400,-0.02100,0.99100,0.03500,-0.08700,-0.03500,0.12000,0.45700,-0.54800,160.01000,0.47000
191125_17.14.52.160,-0.02400,-0.02200,0.99000,0.07000,-0.08700,-0.03500,0.11800,0.45600,-0.54600,159.59000,-0.42000
191125_17.14.52.216,-0.02400,-0.02100,0.99100,0.05300,-0.12300,-0.01800,0.11400,0.46200,-0.55100,159.48000,-0.11000
191125_17.14.52.272,-0.02600,-0.02300,0.99200,0.08700,-0.10500,-0.01800,0.11700,0.46000,-0.55200,159.57000,0.09000
191125_17.14.52.328,-0.02500,-0.02300,0.99200,0.07000,-0.10500,-0.03500,0.12100,0.45800,-0.55300,159.32000,-0.25000
191125_17.14.52.384,-0.02500,-0.02200,0.99100,0.05300,-0.10500,-0.03500,0.12000,0.46400,-0.54300,159.49000,0.17000
191125_17.14.52.440,-0.02600,-0.02300,0.99100,0.05300,-0.10500,-0.03500,0.11300,0.46400,-0.54000,159.34000,-0.15000
191125_17.14.52.496,-0.02600,-0.02100,0.99100,0.07000,-0.10500,-0.03500,0.11400,0.46300,-0.54800,158.86000,-0.48000
191125_17.14.52.552,-0.02500,-0.02100,0.99100,0.05300,-0.10500,-0.01800,0.11000,0.46200,-0.55000,159.39000,0.53000
191125_17.14.52.608,-0.02600,-0.02200,0.99100,0.07000,-0.12300,-0.03500,0.11500,0.46300,-0.54200,159.75000,0.36000
191125_17.14.52.664,-0.02500,-0.02200,0.99100,0.05300,-0.10500,-0.03500,0.11300,0.45900,-0.54400,158.75000,-1.00000
191125_17.14.52.721,-0.02500,-0.02100,0.99100,0.05300,-0.10500,-0.03500,0.11600,0.46200,-0.54600,159.45000,0.70000
191125_17.14.52.776,-0.02400,-0.02200,0.99200,0.05300,-0.10500,-0.03500,0.11400,0.46400,-0.55400,159.68000,0.23000
191125_17.14.52.832,-0.02400,-0.02100,0.99000,0.05300,-0.10500,-0.03500,0.11100,0.46100,-0.54700,159.31000,-0.37000
191125_17.14.52.888,-0.02400,-0.02300,0.99200,0.05300,-0.10500,-0.03500,0.11400,0.45800,-0.55500,159.97000,0.66000
191125_17.14.52.944,-0.02500,-0.02200,0.99100,0.08700,-0.10500,-0.01800,0.11300,0.45700,-0.54800,159.66000,-0.31000
191125_17.14.53.001,-0.02500,-0.02200,0.99000,0.03500,-0.08700,-0.03500,0.11400,0.46200,-0.55200,159.74000,0.08000
191125_17.14.53.057,-0.02500,-0.02100,0.99100,0.05300,-0.10500,-0.01800,0.11500,0.46400,-0.54600,159.42000,-0.32000
191125_17.14.53.113,-0.02500,-0.02100,0.99200,0.03500,-0.10500,-0.01800,0.11500,0.45800,-0.55200,159.26000,-0.16000
191125_17.14.53.168,-0.02500,-0.02100,0.99100,0.07000,-0.08700,-0.03500,0.12000,0.45900,-0.54900,158.85000,-0.41000
191125_17.14.53.224,-0.02600,-0.02200,0.99100,0.08700,-0.10500,-0.01800,0.11400,0.46200,-0.54700,159.11000,0.26000
191125_17.14.53.280,-0.02400,-0.02200,0.99000,0.05300,-0.12300,-0.03500,0.12000,0.45900,-0.54500,158.90000,-0.21000
191125_17.14.53.336,-0.02500,-0.02300,0.99100,0.07000,-0.08700,-0.03500,0.11500,0.46100,-0.54600,159.48000,0.58000
191125_17.14.53.392,-0.02500,-0.02200,0.99100,0.05300,-0.08700,-0.01800,0.11400,0.45700,-0.54800,159.11000,-0.37000
191125_17.14.53.448,-0.02500,-0.02200,0.99100,0.08700,-0.10500,-0.01800,0.11600,0.46200,-0.54800,159.76000,0.65000
191125_17.14.53.504,-0.02600,-0.02300,0.99100,0.08700,-0.10500,-0.03500,0.11300,0.46300,-0.54700,159.41000,-0.35000
191125_17.14.53.561,-0.02600,-0.02200,0.99200,0.05300,-0.08700,-0.01800,0.11400,0.45900,-0.55700,159.77000,0.36000
191125_17.14.53.617,-0.02500,-0.02200,0.99300,0.07000,-0.08700,-0.03500,0.11300,0.46000,-0.55700,159.55000,-0.22000
191125_17.14.53.673,-0.02700,-0.02100,0.99200,0.05300,-0.12300,-0.03500,0.11300,0.45900,-0.54700,159.55000,0.00000
191125_17.14.53.728,-0.02500,-0.02200,0.99200,0.07000,-0.12300,-0.01800,0.11800,0.46300,-0.55500,159.82000,0.27000
191125_17.14.53.784,-0.02600,-0.02100,0.99000,0.05300,-0.08700,-0.03500,0.11300,0.46000,-0.55700,159.59000,-0.23000
191125_17.14.53.841,-0.02500,-0.02200,0.99200,0.05300,-0.10500,-0.01800,0.10900,0.46400,-0.54700,159.08000,-0.51000
191125_17.14.53.896,-0.02600,-0.02200,0.99200,0.08700,-0.10500,-0.01800,0.11300,0.46200,-0.55400,159.57000,0.49000
191125_17.14.53.953,-0.02500,-0.02300,0.99100,0.07000,-0.10500,-0.01800,0.10500,0.46100,-0.55700,159.24000,-0.33000
191125_17.14.54.008,-0.02500,-0.02200,0.99100,0.05300,-0.08700,-0.03500,0.11400,0.46400,-0.55100,159.76000,0.52000
191125_17.14.54.064,-0.02400,-0.02200,0.99200,0.07000,-0.10500,-0.01800,0.11100,0.45900,-0.55900,159.54000,-0.22000
191125_17.14.54.120,-0.02500,-0.02100,0.99200,0.07000,-0.10500,-0.01800,0.11700,0.46000,-0.55600,159.08000,-0.46000
191125_17.14.54.176,-0.02500,-0.02200,0.99200,0.05300,-0.10500,0.00000,0.11300,0.45800,-0.55400,159.48000,0.40000
191125_17.14.54.233,-0.02500,-0.02200,0.99300,0.07000,-0.08700,-0.05300,0.11300,0.45600,-0.55100,159.15000,-0.33000
191125_17.14.54.288,-0.02500,-0.02100,0.99100,0.05300,-0.10500,-0.03500,0.11300,0.45900,-0.55200,158.98000,-0.17000
191125_17.14.54.344,-0.02600,-0.02300,0.99100,0.07000,-0.10500,-0.03500,0.11800,0.46000,-0.55300,159.32000,0.34000
191125_17.14.54.400,-0.02500,-0.02200,0.99000,0.05300,-0.10500,-0.05300,0.11400,0.46000,-0.55500,159.34000,0.02000
191125_17.14.54.456,-0.02500,-0.02100,0.99200,0.05300,-0.10500,-0.01800,0.10900,0.45600,-0.55700,159.56000,0.22000
191125_17.14.54.512,-0.02500,-0.02300,0.99200,0.07000,-0.08700,-0.01800,0.11200,0.45700,-0.55600,159.47000,-0.09000
191125_17.14.54.568,-0.02500,-0.02300,0.99200,0.07000,-0.12300,-0.01800,0.11200,0.46100,-0.55100,159.01000,-0.46000
191125_17.14.54.624,-0.02500,-0.02200,0.99200,0.07000,-0.10500,-0.01800,0.11200,0.45900,-0.55300,160.13000,1.12000
191125_17.14.54.680,-0.02500,-0.02200,0.99200,0.07000,-0.10500,-0.01800,0.11700,0.45700,-0.55100,159.63000,-0.50000
191125_17.14.54.736,-0.02600,-0.02100,0.99200,0.07000,-0.08700,-0.03500,0.11100,0.45500,-0.54700,159.10000,-0.53000
191125_17.14.54.792,-0.02500,-0.02300,0.99100,0.07000,-0.10500,-0.05300,0.10800,0.45400,-0.55300,159.07000,-0.03000
191125_17.14.54.848,-0.02500,-0.02300,0.99100,0.05300,-0.10500,-0.01800,0.11000,0.45400,-0.55200,159.87000,0.80000
191125_17.14.54.904,-0.02600,-0.02100,0.99300,0.07000,-0.10500,-0.03500,0.11300,0.45300,-0.55100,158.88000,-0.99000
191125_17.14.54.960,-0.02500,-0.02300,0.99000,0.08700,-0.10500,-0.03500,0.10800,0.45600,-0.54200,159.87000,0.99000
191125_17.14.55.016,-0.02600,-0.02100,0.99200,0.05300,-0.08700,-0.05300,0.11100,0.45500,-0.54400,160.01000,0.14000
191125_17.14.55.072,-0.02600,-0.02100,0.99100,0.07000,-0.10500,-0.01800,0.11100,0.45600,-0.54800,159.53000,-0.48000
191125_17.14.55.128,-0.02500,-0.02200,0.99100,0.03500,-0.07000,-0.03500,0.10900,0.45700,-0.54300,159.07000,-0.46000
191125_17.14.55.184,-0.02500,-0.02200,0.97700,0.07000,-0.03500,-0.01800,0.11400,0.46000,-0.54500,159.85000,0.78000
191125_17.14.55.240,-0.02700,-0.02200,1.00500,0.05300,-0.01800,-0.03500,0.10900,0.46000,-0.54800,158.98000,-0.87000
191125_17.14.55.296,-0.02400,-0.02100,0.98900,0.07000,-0.07000,-0.01800,0.11000,0.46200,-0.54900,159.71000,0.73000
191125_17.14.55.352,-0.02600,-0.02100,0.99200,0.07000,-0.08700,-0.01800,0.11000,0.46300,-0.54600,159.45000,-0.26000
191125_17.14.55.408,-0.02700,-0.02200,0.99500,0.05300,-0.07000,-0.01800,0.10700,0.45800,-0.55000,158.72000,-0.73000
191125_17.14.55.464,-0.02500,-0.02200,0.98900,0.08700,-0.08700,-0.01800,0.11100,0.45900,-0.55300,159.47000,0.75000
191125_17.14.55.520,-0.02500,-0.02200,0.99300,0.05300,-0.10500,0.00000,0.11400,0.45500,-0.55200,159.27000,-0.20000
191125_17.14.55.576,-0.02500,-0.02300,0.99400,0.07000,-0.08700,-0.03500,0.10900,0.46100,-0.55200,159.07000,-0.20000
191125_17.14.55.632,-0.02500,-0.02100,0.99100,0.03500,-0.10500,-0.03500,0.11300,0.45900,-0.55900,159.21000,0.14000
191125_17.14.55.688,-0.02600,-0.02100,0.99100,0.07000,-0.10500,-0.01800,0.11100,0.45400,-0.54900,158.93000,-0.28000
191125_17.14.55.744,-0.02600,-0.02200,0.99300,0.07000,-0.05300,-0.03500,0.11200,0.46100,-0.54600,159.54000,0.61000
191125_17.14.55.800,-0.02600,-0.02200,0.99300,0.08700,-0.08700,-0.01800,0.11200,0.45700,-0.54600,159.58000,0.04000
191125_17.14.55.856,-0.02500,-0.02100,0.98900,0.07000,-0.10500,-0.01800,0.11100,0.45600,-0.54200,159.43000,-0.15000
191125_17.14.55.912,-0.02500,-0.02300,0.99200,0.05300,-0.12300,-0.03500,0.11000,0.45900,-0.54700,159.51000,0.08000
191125_17.14.55.968,-0.02500,-0.02200,0.99000,0.08700,-0.10500,-0.03500,0.10700,0.45700,-0.54900,159.72000,0.21000
191125_17.14.56.024,-0.02500,-0.02200,0.99200,0.05300,-0.12300,-0.03500,0.11100,0.45400,-0.54900,159.50000,-0.22000
191125_17.14.56.080,-0.02600,-0.02200,0.99100,0.07000,-0.10500,-0.03500,0.11100,0.45700,-0.55800,159.10000,-0.40000
191125_17.14.56.136,-0.02500,-0.02100,0.99200,0.05300,-0.10500,-0.01800,0.11400,0.45900,-0.55900,159.54000,0.44000
191125_17.14.56.192,-0.02500,-0.02200,0.99000,0.07000,-0.10500,-0.01800,0.10700,0.45500,-0.55400,159.13000,-0.41000
191125_17.14.56.248,-0.02500,-0.02200,0.99400,0.08700,-0.14000,-0.03500,0.11200,0.45600,-0.55800,159.53000,0.40000
191125_17.14.56.304,-0.02600,-0.02100,0.99100,0.07000,-0.14000,-0.03500,0.11200,0.45100,-0.55600,159.30000,-0.23000
191125_17.14.56.360,-0.02600,-0.02300,0.99200,0.07000,-0.12300,-0.01800,0.11300,0.45400,-0.55200,159.42000,0.12000
191125_17.14.56.416,-0.02500,-0.02300,0.98900,0.05300,-0.12300,-0.03500,0.11500,0.45400,-0.55100,159.43000,0.01000
191125_17.14.56.472,-0.02800,-0.02200,0.99300,0.08700,-0.10500,-0.03500,0.11600,0.45200,-0.54900,159.26000,-0.17000
191125_17.14.56.528,-0.02500,-0.02200,0.99100,0.07000,-0.10500,-0.03500,0.11800,0.45700,-0.55200,159.46000,0.20000
191125_17.14.56.584,-0.02600,-0.02200,0.99000,0.05300,-0.12300,-0.01800,0.11400,0.45700,-0.55000,159.48000,0.02000
191125_17.14.56.640,-0.02500,-0.02200,0.99300,0.05300,-0.12300,-0.01800,0.11600,0.45800,-0.55100,159.41000,-0.07000
191125_17.14.56.696,-0.02600,-0.02200,0.99100,0.05300,-0.10500,-0.01800,0.11100,0.45400,-0.54900,159.66000,0.25000
191125_17.14.56.752,-0.02500,-0.02200,0.99200,0.05300,-0.10500,-0.03500,0.11500,0.45900,-0.55200,159.32000,-0.34000
191125_17.14.56.808,-0.02500,-0.02200,0.99300,0.07000,-0.10500,-0.03500,0.11400,0.46000,-0.55100,159.78000,0.46000
191125_17.14.56.864,-0.02600,-0.02200,0.99100,0.07000,-0.10500,-0.01800,0.11300,0.45700,-0.55300,159.10000,-0.68000
191125_17.14.56.920,-0.02400,-0.02200,0.99100,0.07000,-0.10500,-0.01800,0.11400,0.45800,-0.54900,159.34000,0.24000
191125_17.14.56.976,-0.02600,-0.02100,0.99300,0.05300,-0.10500,-0.03500,0.11300,0.45900,-0.55200,159.97000,0.63000
191125_17.14.57.033,-0.02600,-0.02200,0.99400,0.05300,-0.17500,-0.01800,0.11100,0.46000,-0.55400,158.84000,-1.13000
191125_17.14.57.088,-0.02400,-0.02200,0.99000,0.05300,-0.19200,-0.01800,0.11200,0.45600,-0.54800,159.93000,1.09000
191125_17.14.57.145,-0.02500,-0.02300,0.99400,0.05300,-0.14000,-0.01800,0.11200,0.45800,-0.54900,158.90000,-1.03000
191125_17.14.57.200,-0.02400,-0.02300,0.99000,0.07000,-0.12300,-0.01800,0.11200,0.46100,-0.55300,159.55000,0.65000
191125_17.14.57.256,-0.02400,-0.02200,0.99200,0.07000,-0.08700,-0.01800,0.11200,0.45700,-0.55300,158.88000,-0.67000
191125_17.14.57.312,-0.02500,-0.02300,0.98800,0.07000,-0.12300,-0.01800,0.10900,0.46100,-0.55600,159.27000,0.39000
191125_17.14.57.368,-0.02500,-0.02200,0.99100,0.05300,-0.10500,-0.01800,0.10800,0.46200,-0.54800,159.26000,-0.01000
191125_17.14.57.424,-0.02500,-0.02200,0.99200,0.07000,-0.08700,-0.03500,0.11400,0.45900,-0.54400,159.02000,-0.24000
191125_17.14.57.480,-0.02600,-0.02300,0.99500,0.05300,-0.07000,-0.01800,0.11200,0.46300,-0.54600,158.84000,-0.18000
191125_17.14.57.536,-0.02700,-0.02300,0.99000,0.07000,-0.08700,-0.03500,0.11600,0.45400,-0.54400,159.52000,0.68000
191125_17.14.57.592,-0.02500,-0.02100,0.99100,0.08700,-0.08700,-0.01800,0.11500,0.45900,-0.54100,159.54000,0.02000
191125_17.14.57.648,-0.02500,-0.02200,0.99500,0.07000,-0.03500,-0.03500,0.11100,0.45700,-0.54800,159.08000,-0.46000
191125_17.14.57.704,-0.02500,-0.02100,0.99400,0.07000,-0.10500,-0.01800,0.11500,0.45900,-0.55200,159.30000,0.22000
191125_17.14.57.760,-0.02500,-0.02100,0.99100,0.08700,-0.05300,-0.03500,0.11200,0.46100,-0.54100,159.29000,-0.01000
191125_17.14.57.816,-0.02500,-0.02100,0.98400,0.07000,-0.08700,-0.03500,0.11300,0.45700,-0.55400,159.38000,0.09000
191125_17.14.57.872,-0.02700,-0.02200,1.00100,0.07000,-0.07000,-0.03500,0.11100,0.46200,-0.55200,159.32000,-0.06000
191125_17.14.57.928,-0.02600,-0.02300,0.99400,0.03500,-0.08700,-0.03500,0.11600,0.45700,-0.55000,158.84000,-0.48000
191125_17.14.57.984,-0.02500,-0.02100,0.99200,0.08700,-0.12300,-0.01800,0.11500,0.45800,-0.54700,159.51000,0.67000
191125_17.14.58.040,-0.02400,-0.02200,0.98900,0.05300,-0.15700,-0.03500,0.11200,0.45600,-0.55600,159.31000,-0.20000
191125_17.14.58.097,-0.02500,-0.02100,0.98700,0.07000,-0.14000,-0.01800,0.11200,0.45300,-0.55100,159.12000,-0.19000
191125_17.14.58.152,-0.02600,-0.02200,0.99100,0.08700,-0.10500,-0.03500,0.11100,0.46100,-0.54500,159.20000,0.08000
191125_17.14.58.208,-0.02600,-0.02300,0.99300,0.07000,-0.07000,-0.01800,0.11200,0.45700,-0.55100,159.21000,0.01000
191125_17.14.58.264,-0.02700,-0.02200,0.98900,0.07000,-0.10500,-0.01800,0.11500,0.46100,-0.54900,158.99000,-0.22000
191125_17.14.58.320,-0.02500,-0.02200,0.99100,0.07000,-0.10500,-0.03500,0.10900,0.45500,-0.54800,159.66000,0.67000
191125_17.14.58.376,-0.02700,-0.02200,0.99100,0.05300,-0.08700,-0.03500,0.11600,0.45500,-0.54900,159.34000,-0.32000
191125_17.14.58.432,-0.02600,-0.02200,0.99100,0.07000,-0.10500,0.00000,0.11200,0.45700,-0.54500,158.86000,-0.48000
191125_17.14.58.488,-0.02500,-0.02200,0.99100,0.07000,-0.08700,-0.03500,0.10600,0.45700,-0.54700,159.60000,0.74000
191125_17.14.58.544,-0.02500,-0.02200,0.99000,0.05300,-0.07000,-0.01800,0.11100,0.45500,-0.55500,159.70000,0.10000
191125_17.14.58.600,-0.02500,-0.02300,0.99100,0.08700,-0.07000,-0.01800,0.11900,0.46000,-0.55800,159.41000,-0.29000
191125_17.14.58.656,-0.02600,-0.02100,0.99200,0.07000,-0.10500,-0.03500,0.12000,0.46000,-0.55700,159.15000,-0.26000
191125_17.14.58.712,-0.02500,-0.02200,0.99400,0.05300,-0.08700,-0.05300,0.11800,0.45800,-0.55500,159.21000,0.06000
191125_17.14.58.768,-0.02600,-0.02100,0.99300,0.07000,-0.12300,-0.05300,0.12000,0.45800,-0.55400,159.63000,0.42000
191125_17.14.58.824,-0.02500,-0.02200,0.99100,0.07000,-0.14000,-0.01800,0.11900,0.45700,-0.55000,159.03000,-0.60000
191125_17.14.58.880,-0.02600,-0.02200,0.99400,0.05300,-0.14000,-0.01800,0.11300,0.45700,-0.55800,159.43000,0.40000
191125_17.14.58.936,-0.02600,-0.02300,0.99300,0.05300,-0.17500,-0.01800,0.11300,0.45800,-0.54500,159.28000,-0.15000
191125_17.14.58.992,-0.02500,-0.02200,0.99000,0.07000,-0.19200,-0.03500,0.11400,0.45600,-0.54800,159.02000,-0.26000
191125_17.14.59.048,-0.02500,-0.02200,0.99200,0.05300,-0.12300,-0.03500,0.11200,0.46100,-0.55400,158.92000,-0.10000
191125_17.14.59.104,-0.02600,-0.02200,0.99100,0.07000,-0.10500,-0.01800,0.11200,0.45900,-0.56000,159.66000,0.74000
191125_17.14.59.160,-0.02600,-0.02200,0.99100,0.07000,-0.12300,-0.01800,0.11300,0.45800,-0.55600,159.21000,-0.45000
191125_17.14.59.216,-0.02600,-0.02300,0.99200,0.08700,-0.10500,-0.05300,0.11300,0.45900,-0.55500,159.32000,0.11000
191125_17.14.59.272,-0.02600,-0.02200,0.99100,0.07000,-0.12300,-0.03500,0.11700,0.46300,-0.55700,159.21000,-0.11000
191125_17.14.59.328,-0.02600,-0.02200,0.99100,0.05300,-0.10500,-0.01800,0.11600,0.45700,-0.55600,159.96000,0.75000
191125_17.14.59.384,-0.02500,-0.02200,0.99200,0.07000,-0.10500,-0.03500,0.10900,0.46300,-0.55500,159.21000,-0.75000
191125_17.14.59.440,-0.02500,-0.02200,0.99100,0.07000,-0.08700,-0.03500,0.11400,0.46300,-0.55100,158.83000,-0.38000
191125_17.14.59.497,-0.02500,-0.02200,0.99100,0.07000,-0.12300,-0.03500,0.11300,0.46300,-0.55400,159.44000,0.61000
191125_17.14.59.552,-0.02500,-0.02200,0.99100,0.05300,-0.10500,-0.03500,0.11300,0.45900,-0.56200,159.11000,-0.33000
191125_17.14.59.608,-0.02600,-0.02200,0.99100,0.07000,-0.10500,-0.01800,0.10700,0.45400,-0.55100,159.72000,0.61000
191125_17.14.59.664,-0.02400,-0.02100,0.99200,0.07000,-0.10500,-0.03500,0.11000,0.45800,-0.55700,158.64000,-1.08000
191125_17.14.59.720,-0.02500,-0.02200,0.99200,0.05300,-0.12300,-0.03500,0.11000,0.45900,-0.55200,158.40000,-0.24000
191125_17.14.59.776,-0.02600,-0.02100,0.99100,0.05300,-0.10500,-0.01800,0.11400,0.45600,-0.55200,158.99000,0.59000
191125_17.14.59.832,-0.02500,-0.02100,0.99200,0.05300,-0.12300,-0.03500,0.11100,0.46000,-0.55300,159.55000,0.56000
191125_17.14.59.888,-0.02500,-0.02100,0.99100,0.05300,-0.10500,-0.03500,0.10900,0.45900,-0.55500,159.54000,-0.01000
191125_17.14.59.944,-0.02600,-0.02200,0.99200,0.08700,-0.10500,-0.01800,0.11200,0.45600,-0.55300,159.25000,-0.29000
191125_17.15.00.000,-0.02500,-0.02100,0.99100,0.07000,-0.14000,-0.03500,0.11100,0.45800,-0.55200,159.78000,0.53000
191125_17.15.00.056,-0.02500,-0.02200,0.99300,0.08700,-0.12300,-0.01800,0.11200,0.46300,-0.55100,159.16000,-0.62000
191125_17.15.00.112,-0.02500,-0.02300,0.99100,0.07000,-0.08700,-0.03500,0.11200,0.46000,-0.55000,158.63000,-0.53000
191125_17.15.00.168,-0.02500,-0.02200,0.99100,0.07000,-0.08700,-0.03500,0.11500,0.46100,-0.55500,159.08000,0.45000
191125_17.15.00.224,-0.02500,-0.02200,0.99200,0.07000,-0.10500,-0.03500,0.11400,0.45600,-0.55000,159.71000,0.63000
191125_17.15.00.280,-0.02500,-0.02200,0.99200,0.07000,-0.12300,-0.01800,0.11000,0.45800,-0.55100,159.39000,-0.32000
191125_17.15.00.336,-0.02500,-0.02100,0.99100,0.07000,-0.12300,-0.01800,0.11200,0.45900,-0.55600,159.16000,-0.23000
191125_17.15.00.392,-0.02400,-0.02200,0.99200,0.05300,-0.10500,-0.01800,0.10900,0.45800,-0.55100,158.84000,-0.32000
191125_17.15.00.448,-0.02600,-0.02100,0.99100,0.07000,-0.14000,-0.01800,0.11200,0.46300,-0.54900,159.65000,0.81000
191125_17.15.00.504,-0.02500,-0.02100,0.99100,0.07000,-0.10500,-0.01800,0.10800,0.46300,-0.54900,159.12000,-0.53000
191125_17.15.00.560,-0.02500,-0.02200,0.99100,0.07000,-0.10500,-0.01800,0.11000,0.45900,-0.55300,158.92000,-0.20000
191125_17.15.00.617,-0.02500,-0.02100,0.99200,0.07000,-0.10500,-0.03500,0.11300,0.46300,-0.54800,158.85000,-0.07000
191125_17.15.00.672,-0.02500,-0.02200,0.99200,0.05300,-0.10500,-0.03500,0.10800,0.46400,-0.55000,159.69000,0.84000
191125_17.15.00.728,-0.02500,-0.02100,0.99200,0.07000,-0.10500,-0.03500,0.11500,0.46600,-0.55100,158.80000,-0.89000
191125_17.15.00.784,-0.02500,-0.02200,0.99200,0.05300,-0.08700,-0.03500,0.11300,0.45900,-0.55300,159.66000,0.86000
191125_17.15.00.840,-0.02600,-0.02200,0.99100,0.07000,-0.14000,-0.03500,0.11000,0.46000,-0.55300,159.57000,-0.09000
191125_17.15.00.896,-0.02500,-0.02300,0.99100,0.03500,-0.12300,-0.01800,0.11300,0.46000,-0.55500,159.27000,-0.30000
191125_17.15.00.952,-0.02500,-0.02300,0.99100,0.07000,-0.12300,-0.03500,0.11400,0.46400,-0.55200,158.55000,-0.72000
191125_17.15.01.008,-0.02500,-0.02200,0.99200,0.05300,-0.12300,-0.01800,0.11200,0.46000,-0.55400,159.86000,1.31000
191125_17.15.01.064,-0.02500,-0.02200,0.99200,0.07000,-0.10500,-0.01800,0.11000,0.46100,-0.54900,159.26000,-0.60000
191125_17.15.01.120,-0.02500,-0.02200,0.99100,0.07000,-0.10500,-0.01800,0.11400,0.46100,-0.55300,159.86000,0.60000
191125_17.15.01.176,-0.02400,-0.02100,0.99200,0.07000,-0.10500,-0.01800,0.11200,0.45900,-0.55100,159.08000,-0.78000
191125_17.15.01.232,-0.02500,-0.02200,0.99100,0.07000,-0.10500,-0.03500,0.11400,0.45900,-0.56100,159.21000,0.13000
191125_17.15.01.288,-0.02500,-0.02100,0.99200,0.05300,-0.10500,-0.01800,0.11300,0.46400,-0.55600,159.57000,0.36000
191125_17.15.01.344,-0.02600,-0.02200,0.99100,0.05300,-0.10500,-0.01800,0.11200,0.45900,-0.55900,159.43000,-0.14000
191125_17.15.01.400,-0.02500,-0.02100,0.99200,0.07000,-0.08700,-0.03500,0.11400,0.46100,-0.55900,159.30000,-0.13000
191125_17.15.01.456,-0.02500,-0.02200,0.99200,0.07000,-0.08700,-0.01800,0.11600,0.46300,-0.55900,159.69000,0.39000
191125_17.15.01.512,-0.02500,-0.02100,0.99100,0.07000,-0.10500,-0.01800,0.11700,0.46400,-0.55100,158.99000,-0.70000
191125_17.15.01.568,-0.02500,-0.02300,0.99100,0.08700,-0.10500,-0.01800,0.11200,0.46000,-0.55800,159.16000,0.17000
191125_17.15.01.624,-0.02400,-0.02300,0.99100,0.05300,-0.10500,-0.03500,0.11700,0.46200,-0.55700,159.35000,0.19000
191125_17.15.01.680,-0.02500,-0.02100,0.99200,0.07000,-0.10500,-0.01800,0.11800,0.45900,-0.55700,158.85000,-0.50000
191125_17.15.01.736,-0.02500,-0.02100,0.99200,0.07000,-0.07000,-0.03500,0.12000,0.45600,-0.55700,158.55000,-0.30000
191125_17.15.01.793,-0.02500,-0.02300,0.99200,0.05300,-0.10500,-0.03500,0.11500,0.46100,-0.55200,159.41000,0.86000
191125_17.15.01.848,-0.02600,-0.02100,0.99300,0.07000,-0.10500,-0.03500,0.11100,0.45600,-0.55200,159.33000,-0.08000
191125_17.15.01.904,-0.02500,-0.02200,0.99200,0.05300,-0.08700,-0.03500,0.11300,0.46500,-0.54800,159.15000,-0.18000
191125_17.15.01.960,-0.02500,-0.02200,0.99200,0.05300,-0.10500,-0.03500,0.11300,0.46300,-0.55300,158.67000,-0.48000
191125_17.15.02.016,-0.02400,-0.02300,0.99200,0.05300,-0.08700,-0.03500,0.11300,0.46200,-0.54900,158.96000,0.29000
191125_17.15.02.072,-0.02600,-0.02200,0.99200,0.07000,-0.10500,-0.03500,0.11100,0.46100,-0.55100,159.32000,0.36000
191125_17.15.02.129,-0.02400,-0.02200,0.99100,0.07000,-0.10500,-0.01800,0.11100,0.46000,-0.54600,158.90000,-0.42000
191125_17.15.02.184,-0.02600,-0.02300,0.99300,0.08700,-0.08700,-0.03500,0.11300,0.46100,-0.54800,159.47000,0.57000
191125_17.15.02.240,-0.02500,-0.02200,0.99100,0.07000,-0.12300,-0.01800,0.11700,0.46600,-0.55200,158.83000,-0.64000
191125_17.15.02.296,-0.02500,-0.02100,0.99200,0.05300,-0.08700,-0.03500,0.11800,0.46600,-0.54700,159.82000,0.99000
191125_17.15.02.352,-0.02500,-0.02100,0.99100,0.07000,-0.08700,-0.01800,0.12200,0.45800,-0.54900,158.98000,-0.84000
191125_17.15.02.408,-0.02500,-0.02100,0.99100,0.05300,-0.10500,-0.03500,0.11600,0.46000,-0.54600,159.26000,0.28000
191125_17.15.02.464,-0.02500,-0.02200,0.99100,0.05300,-0.08700,-0.03500,0.11400,0.45800,-0.55600,158.79000,-0.47000
191125_17.15.02.520,-0.02500,-0.02200,0.99200,0.07000,-0.10500,-0.01800,0.11400,0.46000,-0.55500,159.36000,0.57000
191125_17.15.02.576,-0.02500,-0.02200,0.99200,0.05300,-0.14000,-0.03500,0.11400,0.45800,-0.55600,159.59000,0.23000
191125_17.15.02.632,-0.02400,-0.02200,0.99200,0.07000,-0.10500,-0.03500,0.11800,0.46200,-0.55100,159.29000,-0.30000
191125_17.15.02.688,-0.02500,-0.02200,0.99100,0.07000,-0.12300,-0.01800,0.11600,0.46500,-0.55000,158.78000,-0.51000
191125_17.15.02.744,-0.02600,-0.02300,0.99200,0.05300,-0.08700,-0.03500,0.11200,0.46000,-0.55900,158.75000,-0.03000
191125_17.15.02.800,-0.02500,-0.02200,0.98900,0.05300,-0.07000,-0.03500,0.11800,0.46500,-0.56100,160.14000,1.39000
191125_17.15.02.857,-0.02500,-0.02200,0.99400,0.05300,-0.10500,-0.03500,0.11600,0.46200,-0.55600,159.01000,-1.13000
191125_17.15.02.912,-0.02600,-0.02200,0.99300,0.07000,-0.10500,-0.03500,0.11000,0.46200,-0.55100,159.28000,0.27000
191125_17.15.02.968,-0.02500,-0.02200,0.99100,0.03500,-0.08700,0.00000,0.11400,0.46100,-0.55700,159.22000,-0.06000
191125_17.15.03.024,-0.02600,-0.02200,0.99300,0.08700,-0.10500,-0.03500,0.11700,0.46200,-0.55800,158.97000,-0.25000
191125_17.15.03.080,-0.02600,-0.02100,0.99100,0.08700,-0.10500,-0.03500,0.11200,0.45800,-0.55700,159.22000,0.25000
191125_17.15.03.136,-0.02500,-0.02200,0.99300,0.07000,-0.10500,-0.03500,0.11100,0.45800,-0.54900,159.11000,-0.11000
191125_17.15.03.192,-0.02400,-0.02200,0.99000,0.05300,-0.07000,-0.03500,0.11600,0.45700,-0.55600,159.12000,0.01000
191125_17.15.03.248,-0.02600,-0.02100,0.99100,0.08700,-0.10500,-0.03500,0.11500,0.45900,-0.54400,159.36000,0.24000
191125_17.15.03.304,-0.02500,-0.02200,0.99200,0.07000,-0.10500,0.00000,0.11400,0.46500,-0.54900,159.01000,-0.35000
191125_17.15.03.360,-0.02500,-0.02200,0.99100,0.07000,-0.10500,-0.03500,0.11300,0.46000,-0.55300,159.31000,0.30000
191125_17.15.03.416,-0.02600,-0.02200,0.99200,0.08700,-0.10500,-0.03500,0.11600,0.46100,-0.55300,159.26000,-0.05000
191125_17.15.03.472,-0.02500,-0.02100,0.99000,0.07000,-0.10500,-0.01800,0.11500,0.45900,-0.55600,159.17000,-0.09000
191125_17.15.03.528,-0.02600,-0.02200,0.99200,0.07000,-0.12300,-0.03500,0.11300,0.46000,-0.55500,159.37000,0.20000
191125_17.15.03.584,-0.02400,-0.02200,0.99200,0.07000,-0.08700,-0.01800,0.11500,0.45500,-0.55300,159.15000,-0.22000
191125_17.15.03.640,-0.02400,-0.02200,0.99100,0.07000,-0.08700,-0.01800,0.11200,0.46000,-0.55000,159.53000,0.38000
191125_17.15.03.696,-0.02500,-0.02100,0.99200,0.05300,-0.10500,-0.03500,0.10900,0.46000,-0.55200,158.94000,-0.59000
191125_17.15.03.752,-0.02500,-0.02100,0.99000,0.07000,-0.10500,-0.01800,0.10400,0.45700,-0.54900,159.33000,0.39000
191125_17.15.03.808,-0.02500,-0.02300,0.99100,0.07000,-0.10500,-0.03500,0.11400,0.45700,-0.55100,159.03000,-0.30000
191125_17.15.03.864,-0.02500,-0.02200,0.99100,0.07000,-0.08700,-0.03500,0.11100,0.46300,-0.54500,159.43000,0.40000
191125_17.15.03.920,-0.02600,-0.02100,0.99200,0.05300,-0.10500,-0.01800,0.11400,0.45600,-0.55800,159.10000,-0.33000
191125_17.15.03.976,-0.02600,-0.02100,0.99100,0.05300,-0.12300,-0.03500,0.11500,0.46100,-0.55500,159.28000,0.18000
191125_17.15.04.032,-0.02500,-0.02200,0.99100,0.07000,-0.10500,-0.01800,0.11200,0.46100,-0.55000,159.12000,-0.16000
191125_17.15.04.088,-0.02500,-0.02200,0.99100,0.07000,-0.07000,-0.01800,0.11300,0.46000,-0.55700,159.04000,-0.08000
191125_17.15.04.144,-0.02500,-0.02200,0.99100,0.07000,-0.08700,-0.01800,0.11600,0.45900,-0.55200,159.36000,0.32000
191125_17.15.04.200,-0.02600,-0.02200,0.99100,0.07000,-0.08700,-0.01800,0.11300,0.46000,-0.55200,158.88000,-0.48000
191125_17.15.04.256,-0.02600,-0.02200,0.99100,0.05300,-0.12300,-0.03500,0.11600,0.46000,-0.55400,159.96000,1.08000
191125_17.15.04.312,-0.02500,-0.02200,0.99200,0.07000,-0.08700,-0.01800,0.11400,0.46500,-0.54900,159.16000,-0.80000
191125_17.15.04.368,-0.02500,-0.02300,0.99100,0.08700,-0.10500,-0.03500,0.11400,0.46900,-0.55400,158.64000,-0.52000
191125_17.15.04.424,-0.02500,-0.02200,0.99100,0.07000,-0.10500,-0.01800,0.11300,0.46100,-0.55600,159.15000,0.51000
191125_17.15.04.480,-0.02500,-0.02200,0.99200,0.07000,-0.08700,-0.03500,0.11300,0.45900,-0.55900,159.18000,0.03000
191125_17.15.04.536,-0.02400,-0.02200,0.99300,0.07000,-0.10500,-0.01800,0.11400,0.45800,-0.55200,158.87000,-0.31000
191125_17.15.04.592,-0.02400,-0.02200,0.98800,0.07000,-0.10500,-0.03500,0.11300,0.45900,-0.55500,159.11000,0.24000
191125_17.15.04.648,-0.02600,-0.02200,0.99200,0.07000,-0.10500,-0.03500,0.11000,0.46000,-0.54600,159.28000,0.17000
191125_17.15.04.704,-0.02500,-0.02100,0.99200,0.05300,-0.10500,-0.03500,0.11600,0.46100,-0.55300,159.33000,0.05000
191125_17.15.04.760,-0.02500,-0.02100,0.98800,0.07000,-0.10500,-0.03500,0.11600,0.46100,-0.54600,159.45000,0.12000
191125_17.15.04.816,-0.02500,-0.02100,0.99700,0.07000,-0.08700,-0.01800,0.10600,0.45600,-0.55200,159.66000,0.21000
191125_17.15.04.872,-0.02500,-0.02200,0.98900,0.08700,-0.12300,-0.01800,0.10900,0.46000,-0.55000,159.65000,-0.01000
191125_17.15.04.928,-0.02500,-0.02300,0.99100,0.07000,-0.10500,-0.03500,0.11600,0.46000,-0.55600,159.28000,-0.37000
191125_17.15.04.984,-0.02600,-0.02100,0.99400,0.07000,-0.10500,0.00000,0.11100,0.46200,-0.54800,159.37000,0.09000
191125_17.15.05.040,-0.02400,-0.02200,0.99100,0.07000,-0.10500,-0.01800,0.10900,0.46100,-0.55500,159.25000,-0.12000
191125_17.15.05.096,-0.02500,-0.02300,0.99000,0.07000,-0.10500,-0.01800,0.11600,0.45700,-0.54700,159.49000,0.24000
191125_17.15.05.152,-0.02800,-0.02200,0.98300,0.07000,-0.19200,-0.01800,0.11300,0.46000,-0.55000,159.47000,-0.02000
191125_17.15.05.208,-0.02300,-0.02200,0.98500,0.08700,-0.10500,-0.01800,0.11300,0.45900,-0.54200,159.47000,0.00000
191125_17.15.05.264,-0.02500,-0.02100,0.99200,0.07000,-0.08700,-0.03500,0.11100,0.46200,-0.55400,159.10000,-0.37000
191125_17.15.05.320,-0.02500,-0.02300,0.99300,0.07000,-0.08700,-0.03500,0.11400,0.46100,-0.55100,159.04000,-0.06000
191125_17.15.05.376,-0.02500,-0.02200,0.99200,0.07000,-0.10500,-0.03500,0.11300,0.46300,-0.54500,159.01000,-0.03000
191125_17.15.05.432,-0.02500,-0.02200,0.99000,0.05300,-0.08700,-0.03500,0.11400,0.45900,-0.54900,159.77000,0.76000
191125_17.15.05.488,-0.02400,-0.02100,0.98900,0.07000,-0.10500,-0.01800,0.11500,0.45800,-0.54900,159.93000,0.16000
191125_17.15.05.544,-0.02500,-0.02200,0.99600,0.05300,-0.08700,-0.01800,0.11200,0.46000,-0.54900,159.92000,-0.01000
191125_17.15.05.600,-0.02500,-0.02200,0.99000,0.07000,-0.12300,-0.01800,0.10900,0.45600,-0.54200,159.51000,-0.41000
191125_17.15.05.656,-0.02500,-0.02200,0.99100,0.03500,-0.07000,-0.03500,0.11500,0.45900,-0.54700,158.65000,-0.86000
191125_17.15.05.712,-0.02500,-0.02100,0.99300,0.07000,-0.08700,-0.03500,0.11100,0.45800,-0.54400,159.27000,0.62000
191125_17.15.05.768,-0.02500,-0.02200,0.99000,0.05300,-0.08700,-0.05300,0.11400,0.45800,-0.54700,158.98000,-0.29000
191125_17.15.05.824,-0.02600,-0.02200,0.99200,0.07000,-0.10500,-0.01800,0.11400,0.45800,-0.54900,159.01000,0.03000
191125_17.15.05.880,-0.02500,-0.02200,0.99100,0.08700,-0.10500,-0.03500,0.11600,0.46100,-0.54100,159.51000,0.50000
191125_17.15.05.936,-0.02400,-0.02200,0.99100,0.08700,-0.12300,-0.03500,0.11300,0.46100,-0.53900,158.83000,-0.68000
191125_17.15.05.992,-0.02500,-0.02200,0.99300,0.05300,-0.10500,-0.01800,0.11300,0.46100,-0.54100,159.07000,0.24000
191125_17.15.06.048,-0.02500,-0.02100,0.99000,0.07000,-0.10500,-0.01800,0.11400,0.46500,-0.54400,158.93000,-0.14000
191125_17.15.06.104,-0.02500,-0.02100,0.99200,0.05300,-0.08700,-0.03500,0.11500,0.45900,-0.54300,159.44000,0.51000
191125_17.15.06.160,-0.02500,-0.02200,0.99200,0.07000,-0.10500,-0.03500,0.11000,0.46000,-0.54500,159.01000,-0.43000
191125_17.15.06.216,-0.02500,-0.02300,0.99200,0.07000,-0.08700,-0.03500,0.11500,0.46000,-0.55000,158.78000,-0.23000
191125_17.15.06.272,-0.02500,-0.02200,0.99200,0.07000,-0.12300,-0.03500,0.11600,0.46200,-0.54800,159.34000,0.56000
191125_17.15.06.328,-0.02600,-0.02100,0.99200,0.08700,-0.10500,-0.03500,0.11400,0.46200,-0.54900,159.63000,0.29000
191125_17.15.06.384,-0.02600,-0.02200,0.99200,0.05300,-0.12300,-0.01800,0.11100,0.46400,-0.54600,159.38000,-0.25000
191125_17.15.06.440,-0.02500,-0.02200,0.99100,0.05300,-0.12300,-0.03500,0.11000,0.46200,-0.54500,159.52000,0.14000
191125_17.15.06.496,-0.02500,-0.02200,0.99200,0.07000,-0.12300,-0.03500,0.11500,0.45800,-0.54900,159.15000,-0.37000
191125_17.15.06.552,-0.02500,-0.02200,0.99200,0.07000,-0.12300,-0.01800,0.11900,0.45800,-0.54800,159.62000,0.47000
191125_17.15.06.608,-0.02600,-0.02200,0.99100,0.07000,-0.08700,-0.01800,0.11500,0.45400,-0.55100,159.56000,-0.06000
191125_17.15.06.664,-0.02500,-0.02100,0.99000,0.07000,-0.08700,-0.01800,0.11500,0.46000,-0.55100,159.30000,-0.26000
191125_17.15.06.720,-0.02500,-0.02200,0.99400,0.07000,-0.10500,-0.03500,0.11200,0.45800,-0.54900,159.54000,0.24000
191125_17.15.06.776,-0.02400,-0.02100,0.99000,0.05300,-0.10500,-0.03500,0.11300,0.46100,-0.55000,159.26000,-0.28000
191125_17.15.06.832,-0.02600,-0.02200,0.99200,0.07000,-0.12300,-0.01800,0.11600,0.45800,-0.55000,159.06000,-0.20000
191125_17.15.06.888,-0.02500,-0.02200,0.98600,0.07000,-0.14000,-0.03500,0.11500,0.46000,-0.55800,158.93000,-0.13000
191125_17.15.06.944,-0.02500,-0.02100,0.99700,0.05300,-0.10500,-0.03500,0.11600,0.45800,-0.55200,158.99000,0.06000
191125_17.15.07.000,-0.02500,-0.02300,0.99100,0.05300,-0.10500,-0.01800,0.11400,0.46200,-0.55400,158.83000,-0.16000
191125_17.15.07.056,-0.02500,-0.02300,0.99000,0.05300,-0.08700,-0.01800,0.11400,0.46100,-0.55700,159.52000,0.69000
191125_17.15.07.112,-0.02500,-0.02300,0.99400,0.07000,-0.10500,-0.03500,0.11600,0.46200,-0.55200,159.39000,-0.13000
191125_17.15.07.168,-0.02400,-0.02200,0.98900,0.03500,-0.12300,-0.03500,0.11800,0.45900,-0.55100,159.43000,0.04000
191125_17.15.07.224,-0.02500,-0.02200,0.98900,0.05300,-0.10500,-0.03500,0.11500,0.46200,-0.54700,159.11000,-0.32000
191125_17.15.07.280,-0.02500,-0.02200,0.99300,0.07000,-0.10500,-0.01800,0.11100,0.45900,-0.54900,159.33000,0.22000
191125_17.15.07.336,-0.02600,-0.02100,0.99100,0.07000,-0.08700,-0.05300,0.11200,0.45800,-0.54800,159.20000,-0.13000
191125_17.15.07.392,-0.02500,-0.02100,0.99100,0.07000,-0.12300,-0.01800,0.11600,0.45700,-0.55100,159.23000,0.03000
191125_17.15.07.448,-0.02500,-0.02200,0.99000,0.07000,-0.12300,-0.03500,0.11700,0.45700,-0.54800,159.90000,0.67000
191125_17.15.07.504,-0.02500,-0.02200,0.99100,0.07000,-0.10500,0.00000,0.11600,0.45600,-0.54600,158.66000,-1.24000
191125_17.15.07.560,-0.02500,-0.02200,0.99000,0.07000,-0.10500,-0.05300,0.11400,0.45900,-0.54900,159.37000,0.71000
191125_17.15.07.616,-0.02600,-0.02100,0.99100,0.07000,-0.08700,0.00000,0.11800,0.46300,-0.54900,158.89000,-0.48000
191125_17.15.07.672,-0.02500,-0.02300,0.99200,0.07000,-0.12300,-0.01800,0.11500,0.46100,-0.55300,159.84000,0.95000
191125_17.15.07.728,-0.02600,-0.02200,0.99100,0.03500,-0.12300,-0.01800,0.11100,0.46200,-0.54800,159.49000,-0.35000
191125_17.15.07.784,-0.02600,-0.02200,0.99200,0.05300,-0.12300,-0.01800,0.11300,0.46100,-0.55500,159.36000,-0.13000
191125_17.15.07.840,-0.02400,-0.02100,0.99100,0.05300,-0.10500,-0.03500,0.11800,0.46100,-0.55200,159.44000,0.08000
191125_17.15.07.896,-0.02600,-0.02200,0.99200,0.05300,-0.12300,-0.03500,0.11700,0.45900,-0.54600,159.31000,-0.13000
191125_17.15.07.952,-0.02500,-0.02100,0.99200,0.07000,-0.10500,-0.01800,0.11700,0.46600,-0.55100,159.19000,-0.12000
191125_17.15.08.008,-0.02500,-0.02200,0.99000,0.07000,-0.12300,-0.05300,0.11300,0.46200,-0.55400,158.68000,-0.51000
191125_17.15.08.064,-0.02500,-0.02200,0.99100,0.07000,-0.12300,-0.03500,0.11100,0.46400,-0.54700,159.58000,0.90000
191125_17.15.08.120,-0.02500,-0.02200,0.99300,0.07000,-0.10500,-0.03500,0.11500,0.46000,-0.55100,159.31000,-0.27000
191125_17.15.08.176,-0.02500,-0.02200,0.99100,0.05300,-0.12300,-0.01800,0.11000,0.45800,-0.54900,159.58000,0.27000
191125_17.15.08.232,-0.02600,-0.02200,0.99200,0.07000,-0.10500,-0.03500,0.11700,0.46100,-0.54400,159.37000,-0.21000
191125_17.15.08.288,-0.02400,-0.02200,0.99200,0.07000,-0.10500,-0.01800,0.11200,0.45800,-0.54600,159.71000,0.34000
191125_17.15.08.344,-0.02500,-0.02100,0.99300,0.07000,-0.08700,-0.03500,0.11100,0.45400,-0.54000,158.62000,-1.09000
191125_17.15.08.400,-0.02500,-0.02100,0.98900,0.07000,-0.10500,-0.01800,0.11300,0.46000,-0.54200,158.80000,0.18000
191125_17.15.08.456,-0.02600,-0.02100,0.99300,0.03500,-0.08700,-0.03500,0.11600,0.45700,-0.55200,159.13000,0.33000
191125_17.15.08.512,-0.02700,-0.02200,0.98900,0.07000,-0.10500,-0.01800,0.11600,0.45700,-0.55100,159.36000,0.23000
191125_17.15.08.568,-0.02500,-0.02200,0.99200,0.07000,-0.10500,-0.03500,0.11600,0.45800,-0.54900,159.41000,0.05000
191125_17.15.08.624,-0.02400,-0.02100,0.99200,0.03500,-0.10500,-0.01800,0.11500,0.45800,-0.54800,159.00000,-0.41000
191125_17.15.08.680,-0.02600,-0.02200,0.99100,0.07000,-0.08700,-0.01800,0.11200,0.45700,-0.55500,159.29000,0.29000
191125_17.15.08.736,-0.02500,-0.02200,0.99300,0.03500,-0.12300,-0.03500,0.11600,0.46200,-0.55400,159.36000,0.07000
191125_17.15.08.792,-0.02500,-0.02100,0.99100,0.07000,-0.08700,-0.01800,0.11600,0.45800,-0.55100,159.10000,-0.26000
191125_17.15.08.848,-0.02600,-0.02100,0.99100,0.05300,-0.08700,-0.01800,0.11600,0.45700,-0.54600,159.26000,0.16000
191125_17.15.08.904,-0.02600,-0.02200,0.99300,0.07000,-0.12300,-0.03500,0.11600,0.46200,-0.54700,159.47000,0.21000
191125_17.15.08.960,-0.02500,-0.02200,0.98900,0.05300,-0.12300,-0.03500,0.11800,0.45900,-0.54900,159.08000,-0.39000
191125_17.15.09.016,-0.02500,-0.02100,0.99300,0.05300,-0.12300,-0.01800,0.11400,0.45800,-0.55600,159.19000,0.11000
191125_17.15.09.072,-0.02600,-0.02200,0.99300,0.07000,-0.10500,-0.03500,0.11200,0.45600,-0.54900,158.84000,-0.35000
191125_17.15.09.128,-0.02300,-0.02100,0.99000,0.07000,-0.08700,-0.03500,0.11900,0.46000,-0.55600,159.27000,0.43000
191125_17.15.09.184,-0.02400,-0.02200,0.99100,0.05300,-0.10500,-0.03500,0.11300,0.45800,-0.55100,158.73000,-0.54000
191125_17.15.09.240,-0.02500,-0.02100,0.99200,0.07000,-0.10500,-0.03500,0.11800,0.45900,-0.55500,159.33000,0.60000
191125_17.15.09.296,-0.02500,-0.02200,0.99100,0.08700,-0.08700,-0.03500,0.11700,0.45600,-0.55500,159.22000,-0.11000
191125_17.15.09.352,-0.02500,-0.02200,0.99100,0.07000,-0.12300,-0.03500,0.11200,0.45900,-0.55700,159.01000,-0.21000
191125_17.15.09.408,-0.02500,-0.02100,0.99100,0.05300,-0.14000,-0.03500,0.11500,0.45500,-0.55600,159.05000,0.04000
191125_17.15.09.464,-0.02600,-0.02200,0.99200,0.07000,-0.12300,-0.03500,0.11500,0.45700,-0.55300,158.60000,-0.45000
191125_17.15.09.520,-0.02500,-0.02100,0.99100,0.07000,-0.10500,-0.03500,0.11500,0.45900,-0.55700,159.65000,1.05000
191125_17.15.09.576,-0.02600,-0.02200,0.99100,0.05300,-0.12300,-0.03500,0.11600,0.46100,-0.55400,159.63000,-0.02000
191125_17.15.09.632,-0.02500,-0.02300,0.99200,0.07000,-0.08700,-0.03500,0.11800,0.45900,-0.55700,159.36000,-0.27000
191125_17.15.09.688,-0.02500,-0.02200,0.99600,0.07000,-0.08700,-0.01800,0.11500,0.46200,-0.55300,159.59000,0.23000
191125_17.15.09.744,-0.02600,-0.02200,0.99100,0.07000,-0.12300,0.00000,0.11000,0.45800,-0.56100,159.28000,-0.31000
191125_17.15.09.800,-0.02500,-0.02100,0.99000,0.07000,-0.10500,-0.05300,0.11500,0.46200,-0.55500,158.81000,-0.47000
191125_17.15.09.856,-0.02600,-0.02300,0.99300,0.05300,-0.08700,-0.01800,0.11000,0.46300,-0.56000,159.18000,0.37000
191125_17.15.09.912,-0.02400,-0.02200,0.98600,0.03500,-0.08700,-0.05300,0.11000,0.45700,-0.55200,159.16000,-0.02000
191125_17.15.09.968,-0.02600,-0.02200,0.99300,0.05300,-0.10500,-0.03500,0.11200,0.46100,-0.55700,159.15000,-0.01000
191125_17.15.10.024,-0.02600,-0.02200,0.99100,0.07000,-0.12300,-0.03500,0.11100,0.46100,-0.55800,158.82000,-0.33000
191125_17.15.10.080,-0.02500,-0.02100,0.99100,0.08700,-0.08700,-0.01800,0.11200,0.45900,-0.55300,159.18000,0.36000
191125_17.15.10.136,-0.02500,-0.02200,0.98800,0.03500,-0.12300,-0.03500,0.11400,0.45800,-0.55600,159.41000,0.23000
191125_17.15.10.192,-0.02500,-0.02200,0.99200,0.03500,-0.10500,-0.01800,0.11000,0.46200,-0.55900,159.30000,-0.11000
191125_17.15.10.248,-0.02400,-0.02200,0.99200,0.07000,-0.10500,-0.03500,0.11400,0.45800,-0.55000,159.08000,-0.22000
191125_17.15.10.304,-0.02600,-0.02200,0.99100,0.07000,-0.10500,-0.03500,0.11200,0.46100,-0.55200,159.44000,0.36000
191125_17.15.10.360,-0.02500,-0.02200,0.99100,0.05300,-0.10500,-0.01800,0.11000,0.45800,-0.55700,159.44000,0.00000
191125_17.15.10.416,-0.02400,-0.02200,0.99100,0.07000,-0.10500,-0.03500,0.11200,0.45700,-0.55600,159.10000,-0.34000
191125_17.15.10.472,-0.02400,-0.02200,0.99100,0.07000,-0.12300,-0.01800,0.11200,0.46100,-0.55500,159.42000,0.32000
191125_17.15.10.528,-0.02500,-0.02200,0.99100,0.07000,-0.10500,0.00000,0.11200,0.45600,-0.55100,158.93000,-0.49000
191125_17.15.10.584,-0.02500,-0.02300,0.99100,0.07000,-0.08700,-0.03500,0.11300,0.46100,-0.55300,159.33000,0.40000
191125_17.15.10.640,-0.02500,-0.02200,0.99100,0.07000,-0.12300,-0.03500,0.11400,0.45700,-0.56200,159.58000,0.25000
191125_17.15.10.696,-0.02600,-0.02200,0.99100,0.03500,-0.08700,-0.01800,0.11300,0.45600,-0.55700,159.08000,-0.50000
191125_17.15.10.752,-0.02600,-0.02200,0.99100,0.05300,-0.08700,-0.03500,0.11100,0.45700,-0.55500,159.45000,0.37000
191125_17.15.10.808,-0.02600,-0.02100,0.99000,0.03500,-0.10500,-0.01800,0.11400,0.45800,-0.55600,159.51000,0.06000
191125_17.15.10.864,-0.02500,-0.02200,0.99100,0.05300,-0.10500,-0.01800,0.11100,0.45900,-0.55600,159.54000,0.03000
191125_17.15.10.920,-0.02500,-0.02200,0.99300,0.07000,-0.08700,-0.01800,0.11100,0.45800,-0.55600,159.25000,-0.29000
191125_17.15.10.976,-0.02500,-0.02200,0.99100,0.07000,-0.10500,0.00000,0.11100,0.46200,-0.55400,158.82000,-0.43000
191125_17.15.11.032,-0.02500,-0.02200,0.99100,0.07000,-0.10500,-0.01800,0.11400,0.45800,-0.55800,159.54000,0.72000
191125_17.15.11.088,-0.02500,-0.02100,0.99200,0.07000,-0.10500,-0.01800,0.11300,0.45900,-0.55300,159.44000,-0.10000
191125_17.15.11.144,-0.02500,-0.02200,0.99200,0.07000,-0.08700,-0.03500,0.11200,0.46000,-0.55200,159.27000,-0.17000
191125_17.15.11.200,-0.02400,-0.02100,0.99100,0.07000,-0.12300,-0.03500,0.11300,0.46100,-0.54600,159.70000,0.43000
191125_17.15.11.256,-0.02500,-0.02100,0.99100,0.07000,-0.12300,0.00000,0.11400,0.45800,-0.55900,158.97000,-0.73000
191125_17.15.11.312,-0.02500,-0.02200,0.99100,0.07000,-0.12300,-0.03500,0.11400,0.45900,-0.55300,159.50000,0.53000
191125_17.15.11.368,-0.02400,-0.02100,0.99100,0.07000,-0.08700,-0.03500,0.11100,0.46100,-0.55800,159.04000,-0.46000
191125_17.15.11.424,-0.02500,-0.02100,0.99100,0.05300,-0.10500,0.00000,0.10800,0.46200,-0.55200,159.30000,0.26000
191125_17.15.11.480,-0.02500,-0.02100,0.99200,0.07000,-0.10500,-0.03500,0.11200,0.45500,-0.54900,158.46000,-0.84000
191125_17.15.11.536,-0.02500,-0.02200,0.99200,0.05300,-0.10500,-0.01800,0.11300,0.46100,-0.55400,159.64000,1.18000
191125_17.15.11.592,-0.02500,-0.02100,0.99100,0.05300,-0.08700,-0.01800,0.11000,0.45700,-0.55400,159.45000,-0.19000
191125_17.15.11.648,-0.02400,-0.02200,0.99100,0.05300,-0.10500,-0.01800,0.10700,0.46100,-0.55600,158.94000,-0.51000
191125_17.15.11.704,-0.02500,-0.02200,0.99100,0.03500,-0.10500,-0.03500,0.11300,0.46000,-0.55000,158.63000,-0.31000
191125_17.15.11.760,-0.02500,-0.02100,0.99100,0.05300,-0.08700,0.00000,0.10900,0.46100,-0.55600,159.15000,0.52000
191125_17.15.11.816,-0.02500,-0.02200,0.99100,0.07000,-0.10500,-0.01800,0.11200,0.46300,-0.55400,159.32000,0.17000
191125_17.15.11.872,-0.02500,-0.02100,0.99200,0.07000,-0.10500,-0.01800,0.10900,0.45700,-0.55000,158.99000,-0.33000
191125_17.15.11.928,-0.02500,-0.02100,0.99200,0.07000,-0.12300,-0.03500,0.11000,0.46200,-0.55400,159.05000,0.06000
191125_17.15.11.984,-0.02500,-0.02300,0.99100,0.07000,-0.10500,-0.01800,0.11300,0.46000,-0.55400,158.48000,-0.57000
191125_17.15.12.040,-0.02400,-0.02200,0.99100,0.05300,-0.10500,-0.03500,0.11100,0.46100,-0.55400,159.67000,1.19000
191125_17.15.12.096,-0.02500,-0.02100,0.99100,0.05300,-0.10500,-0.03500,0.11600,0.46000,-0.55700,159.05000,-0.62000
191125_17.15.12.152,-0.02600,-0.02100,0.99200,0.07000,-0.10500,-0.01800,0.11200,0.45600,-0.55700,159.26000,0.21000
191125_17.15.12.208,-0.02500,-0.02200,0.99100,0.07000,-0.12300,-0.01800,0.12100,0.45800,-0.55200,159.03000,-0.23000
191125_17.15.12.264,-0.02500,-0.02200,0.99000,0.07000,-0.12300,-0.01800,0.11100,0.45900,-0.54600,160.05000,1.02000
191125_17.15.12.320,-0.02600,-0.02100,0.99100,0.07000,-0.08700,-0.03500,0.11000,0.45900,-0.55500,159.05000,-1.00000
191125_17.15.12.376,-0.02500,-0.02200,0.99200,0.07000,-0.10500,-0.05300,0.11100,0.45900,-0.55200,159.78000,0.73000
191125_17.15.12.432,-0.02600,-0.02200,0.99100,0.07000,-0.10500,-0.03500,0.10900,0.46200,-0.54900,159.54000,-0.24000
191125_17.15.12.488,-0.02500,-0.02200,0.99100,0.07000,-0.12300,-0.01800,0.10900,0.46200,-0.54500,158.94000,-0.60000
191125_17.15.12.544,-0.02400,-0.02200,0.99100,0.03500,-0.10500,-0.01800,0.11200,0.46400,-0.55000,159.50000,0.56000
191125_17.15.12.600,-0.02600,-0.02200,0.99200,0.07000,-0.10500,-0.03500,0.10700,0.46200,-0.55100,159.47000,-0.03000
191125_17.15.12.656,-0.02500,-0.02200,0.99100,0.05300,-0.10500,-0.01800,0.11500,0.45800,-0.54900,159.63000,0.16000
191125_17.15.12.712,-0.02600,-0.02100,0.99100,0.08700,-0.10500,0.00000,0.11200,0.45800,-0.55000,159.23000,-0.40000
191125_17.15.12.768,-0.02500,-0.02100,0.99200,0.07000,-0.12300,-0.03500,0.11700,0.45500,-0.55300,158.71000,-0.52000
191125_17.15.12.824,-0.02600,-0.02200,0.99000,0.10500,-0.12300,-0.03500,0.11600,0.45700,-0.54900,158.92000,0.21000
191125_17.15.12.880,-0.02500,-0.02200,0.99100,0.03500,-0.08700,-0.01800,0.11800,0.45800,-0.54500,159.15000,0.23000
191125_17.15.12.936,-0.02400,-0.02100,0.99200,0.08700,-0.10500,-0.01800,0.11500,0.45400,-0.54600,159.50000,0.35000
191125_17.15.12.992,-0.02500,-0.02100,0.99000,0.05300,-0.08700,-0.03500,0.11300,0.45600,-0.55200,159.03000,-0.47000
191125_17.15.13.048,-0.02500,-0.02200,0.99100,0.05300,-0.10500,-0.03500,0.10900,0.45700,-0.54700,158.75000,-0.28000
191125_17.15.13.104,-0.02600,-0.02200,0.99200,0.07000,-0.12300,-0.01800,0.10800,0.45800,-0.55600,159.41000,0.66000
191125_17.15.13.160,-0.02400,-0.02100,0.99100,0.05300,-0.08700,-0.03500,0.10800,0.45700,-0.55700,159.84000,0.43000
191125_17.15.13.216,-0.02600,-0.02200,0.99100,0.08700,-0.10500,-0.03500,0.11200,0.46100,-0.55000,159.50000,-0.34000
191125_17.15.13.272,-0.02600,-0.02100,0.99200,0.05300,-0.12300,-0.03500,0.11400,0.46000,-0.54800,159.25000,-0.25000
191125_17.15.13.328,-0.02400,-0.02200,0.99100,0.05300,-0.12300,-0.03500,0.11200,0.46100,-0.54800,159.15000,-0.10000
191125_17.15.13.384,-0.02500,-0.02200,0.99100,0.07000,-0.10500,-0.01800,0.10900,0.45900,-0.55000,158.96000,-0.19000
191125_17.15.13.440,-0.02400,-0.02200,0.99200,0.07000,-0.10500,-0.01800,0.10800,0.45500,-0.54900,159.78000,0.82000
191125_17.15.13.496,-0.02400,-0.02200,0.99100,0.03500,-0.10500,-0.01800,0.11100,0.45800,-0.55200,159.66000,-0.12000
191125_17.15.13.552,-0.02600,-0.02200,0.99200,0.07000,-0.10500,-0.01800,0.11500,0.45800,-0.55000,159.49000,-0.17000
191125_17.15.13.608,-0.02500,-0.02200,0.99100,0.05300,-0.10500,-0.03500,0.11000,0.46200,-0.55600,159.28000,-0.21000
191125_17.15.13.664,-0.02500,-0.02100,0.99200,0.07000,-0.08700,-0.03500,0.11000,0.46300,-0.55500,158.97000,-0.31000
191125_17.15.13.720,-0.02500,-0.02100,0.99200,0.08700,-0.10500,-0.01800,0.11600,0.46300,-0.55000,159.93000,0.96000
191125_17.15.13.776,-0.02600,-0.02100,0.99200,0.07000,-0.10500,-0.01800,0.11300,0.45700,-0.55500,159.44000,-0.49000
191125_17.15.13.832,-0.02600,-0.02300,0.99000,0.07000,-0.10500,-0.01800,0.11300,0.46500,-0.56100,159.57000,0.13000
191125_17.15.13.888,-0.02600,-0.02200,0.99300,0.08700,-0.10500,-0.01800,0.10800,0.46500,-0.55600,159.88000,0.31000
191125_17.15.13.944,-0.02500,-0.02200,0.99100,0.07000,-0.10500,-0.01800,0.11400,0.46200,-0.55900,159.00000,-0.88000
191125_17.15.14.000,-0.02500,-0.02100,0.99100,0.07000,-0.10500,-0.03500,0.11800,0.45700,-0.55900,159.49000,0.49000
191125_17.15.14.056,-0.02500,-0.02000,0.99200,0.05300,-0.10500,-0.03500,0.11300,0.46100,-0.55500,158.93000,-0.56000
191125_17.15.14.112,-0.02500,-0.02200,0.99100,0.05300,-0.10500,-0.01800,0.11000,0.45800,-0.56000,159.29000,0.36000
191125_17.15.14.168,-0.02500,-0.02100,0.99200,0.05300,-0.08700,-0.03500,0.11600,0.45900,-0.55200,159.47000,0.18000
191125_17.15.14.224,-0.02400,-0.02200,0.98200,0.01800,-0.07000,-0.01800,0.11200,0.46100,-0.55400,160.14000,0.67000
191125_17.15.14.280,-0.02000,-0.02100,0.87000,0.05300,-0.17500,-0.03500,0.11000,0.45800,-0.55700,159.47000,-0.67000
191125_17.15.14.336,-0.01600,-0.01900,1.06200,0.05300,0.03500,-0.01800,0.11000,0.46000,-0.55100,159.27000,-0.20000
191125_17.15.14.392,-0.03300,-0.02300,1.00600,0.07000,-0.19200,-0.03500,0.10900,0.46000,-0.55600,158.99000,-0.28000
191125_17.15.14.448,-0.02200,-0.02200,0.98600,0.03500,-0.03500,-0.03500,0.10800,0.45900,-0.55600,159.56000,0.57000
191125_17.15.14.504,-0.02600,-0.02200,0.99600,0.05300,-0.08700,-0.03500,0.11200,0.45800,-0.55700,160.19000,0.63000
191125_17.15.14.560,-0.02500,-0.02300,0.99200,0.07000,-0.12300,-0.01800,0.10900,0.45800,-0.55200,159.55000,-0.64000
191125_17.15.14.616,-0.02300,-0.02100,0.98400,0.05300,-0.10500,-0.01800,0.11400,0.45800,-0.55500,159.21000,-0.34000
191125_17.15.14.672,-0.02600,-0.02200,0.99500,0.07000,-0.10500,-0.03500,0.11400,0.46200,-0.54800,159.47000,0.26000
191125_17.15.14.728,-0.02500,-0.02200,0.99000,0.08700,-0.08700,-0.01800,0.11300,0.46500,-0.55200,159.61000,0.14000
191125_17.15.14.784,-0.02300,-0.02200,0.98900,0.05300,-0.14000,-0.05300,0.11200,0.45800,-0.55000,159.94000,0.33000
191125_17.15.14.840,-0.02500,-0.02300,0.99300,0.07000,-0.12300,-0.03500,0.11000,0.45900,-0.54800,159.42000,-0.52000
191125_17.15.14.896,-0.02600,-0.02200,0.99300,0.07000,-0.10500,-0.01800,0.11300,0.45900,-0.55500,159.96000,0.54000
191125_17.15.14.952,-0.02500,-0.02100,0.99100,0.07000,-0.10500,-0.03500,0.11200,0.46000,-0.55000,159.34000,-0.62000
191125_17.15.15.008,-0.02500,-0.02300,0.99100,0.05300,-0.10500,-0.01800,0.11500,0.46300,-0.55500,159.59000,0.25000
191125_17.15.15.064,-0.02500,-0.02200,0.99100,0.07000,-0.10500,-0.03500,0.11200,0.45900,-0.55600,159.50000,-0.09000
191125_17.15.15.120,-0.02600,-0.02200,0.99300,0.07000,-0.12300,-0.05300,0.11100,0.45800,-0.55500,159.76000,0.26000
191125_17.15.15.176,-0.02400,-0.02200,0.99100,0.07000,-0.10500,-0.03500,0.11100,0.46200,-0.55500,158.95000,-0.81000
191125_17.15.15.232,-0.02400,-0.02100,0.99200,0.03500,-0.10500,-0.03500,0.11100,0.45800,-0.55300,159.23000,0.28000
191125_17.15.15.288,-0.02600,-0.02300,0.99200,0.07000,-0.12300,-0.01800,0.11200,0.46300,-0.55200,159.48000,0.25000
191125_17.15.15.344,-0.02600,-0.02300,0.99200,0.05300,-0.12300,-0.01800,0.11000,0.45800,-0.55400,159.30000,-0.18000
191125_17.15.15.400,-0.02500,-0.02200,0.99200,0.07000,-0.08700,-0.03500,0.10900,0.45900,-0.55700,159.74000,0.44000
191125_17.15.15.456,-0.02500,-0.02200,0.99100,0.07000,-0.10500,-0.01800,0.11000,0.45800,-0.55500,159.67000,-0.07000
191125_17.15.15.512,-0.02400,-0.02200,0.99200,0.05300,-0.12300,-0.01800,0.11100,0.46000,-0.55700,159.49000,-0.18000
191125_17.15.15.568,-0.02500,-0.02200,0.99100,0.07000,-0.12300,-0.01800,0.10900,0.45500,-0.55000,160.05000,0.56000
191125_17.15.15.624,-0.02400,-0.02300,0.99100,0.07000,-0.12300,0.00000,0.11400,0.45800,-0.55800,159.34000,-0.71000
191125_17.15.15.680,-0.02400,-0.02100,0.99100,0.07000,-0.10500,-0.01800,0.11400,0.45900,-0.55200,159.73000,0.39000
191125_17.15.15.736,-0.02500,-0.02200,0.99100,0.05300,-0.10500,-0.01800,0.11200,0.45900,-0.55700,159.22000,-0.51000
191125_17.15.15.792,-0.02500,-0.02200,0.99100,0.05300,-0.08700,-0.01800,0.11500,0.46000,-0.54800,160.50000,1.28000
191125_17.15.15.848,-0.02500,-0.02100,0.99200,0.03500,-0.10500,-0.03500,0.11600,0.46300,-0.55500,159.17000,-1.33000
191125_17.15.15.904,-0.02500,-0.02100,0.99100,0.07000,-0.08700,-0.03500,0.11100,0.45800,-0.55700,159.40000,0.23000
191125_17.15.15.960,-0.02500,-0.02200,0.99100,0.07000,-0.10500,-0.03500,0.11300,0.45800,-0.55400,159.44000,0.04000
191125_17.15.16.016,-0.02400,-0.02200,0.99100,0.05300,-0.10500,-0.03500,0.11200,0.45800,-0.55100,160.21000,0.77000
191125_17.15.16.072,-0.02500,-0.02100,0.99200,0.05300,-0.10500,-0.03500,0.11300,0.46100,-0.55300,159.82000,-0.39000
191125_17.15.16.128,-0.02400,-0.02200,0.99000,0.07000,-0.10500,-0.03500,0.11100,0.45600,-0.55400,159.65000,-0.17000
191125_17.15.16.184,-0.02500,-0.02200,0.99200,0.05300,-0.12300,-0.03500,0.11100,0.45800,-0.55100,159.66000,0.01000
191125_17.15.16.240,-0.02500,-0.02300,0.99200,0.05300,-0.10500,-0.03500,0.11400,0.45600,-0.55100,159.56000,-0.10000
191125_17.15.16.296,-0.02500,-0.02100,0.99200,0.05300,-0.10500,-0.03500,0.11100,0.45500,-0.55800,158.90000,-0.66000
191125_17.15.16.352,-0.02400,-0.02200,0.99100,0.05300,-0.10500,-0.01800,0.11000,0.45600,-0.54900,159.02000,0.12000
191125_17.15.16.408,-0.02600,-0.02100,0.99100,0.05300,-0.08700,-0.01800,0.10900,0.46100,-0.54900,159.46000,0.44000
191125_17.15.16.464,-0.02500,-0.02200,0.99100,0.07000,-0.10500,-0.01800,0.11100,0.46300,-0.55000,159.01000,-0.45000
191125_17.15.16.520,-0.02500,-0.02000,0.99200,0.07000,-0.10500,-0.03500,0.11000,0.46200,-0.55200,159.99000,0.98000
191125_17.15.16.576,-0.02500,-0.02200,0.99000,0.07000,-0.10500,-0.03500,0.10900,0.46300,-0.55000,159.12000,-0.87000
191125_17.15.16.632,-0.02500,-0.02200,0.99100,0.05300,-0.10500,-0.01800,0.10600,0.46000,-0.55200,159.46000,0.34000
191125_17.15.16.688,-0.02400,-0.02200,0.99100,0.05300,-0.10500,-0.03500,0.10900,0.45800,-0.54800,159.44000,-0.02000
191125_17.15.16.744,-0.02500,-0.02100,0.99100,0.07000,-0.10500,-0.01800,0.11100,0.45300,-0.54800,159.72000,0.28000
191125_17.15.16.800,-0.02600,-0.02200,0.99200,0.07000,-0.08700,0.00000,0.11300,0.45700,-0.55000,159.76000,0.04000
191125_17.15.16.856,-0.02500,-0.02100,0.99200,0.07000,-0.10500,-0.01800,0.11800,0.45900,-0.55200,160.32000,0.56000
191125_17.15.16.912,-0.02500,-0.02100,0.99100,0.07000,-0.10500,-0.01800,0.11200,0.45700,-0.55700,159.24000,-1.08000
191125_17.15.16.968,-0.02400,-0.02200,0.99200,0.07000,-0.10500,-0.03500,0.11300,0.45800,-0.55200,160.03000,0.79000
191125_17.15.17.024,-0.02500,-0.02200,0.99200,0.05300,-0.10500,-0.03500,0.11500,0.45500,-0.54800,160.33000,0.30000
191125_17.15.17.080,-0.02600,-0.02200,0.99100,0.05300,-0.10500,-0.03500,0.11900,0.45900,-0.54400,159.82000,-0.51000
191125_17.15.17.136,-0.02500,-0.02200,0.99000,0.07000,-0.08700,-0.01800,0.11200,0.45700,-0.55300,159.83000,0.01000
191125_17.15.17.192,-0.02500,-0.02200,0.99100,0.08700,-0.10500,-0.01800,0.11500,0.46200,-0.55800,160.10000,0.27000
191125_17.15.17.248,-0.02500,-0.02200,0.99200,0.05300,-0.12300,-0.01800,0.11700,0.45500,-0.55100,159.08000,-1.02000
191125_17.15.17.304,-0.02500,-0.02200,0.98400,0.05300,-0.12300,-0.01800,0.11400,0.46000,-0.55200,159.95000,0.87000
191125_17.15.17.360,-0.02500,-0.02100,0.99300,0.07000,-0.08700,-0.05300,0.10700,0.45400,-0.54900,159.42000,-0.53000
191125_17.15.17.416,-0.02600,-0.02200,0.99100,0.08700,-0.10500,-0.03500,0.11400,0.45500,-0.55100,159.85000,0.43000
191125_17.15.17.472,-0.02500,-0.02200,0.99100,0.05300,-0.10500,-0.01800,0.11400,0.45600,-0.54900,159.52000,-0.33000
191125_17.15.17.528,-0.02400,-0.02200,0.99100,0.07000,-0.12300,-0.01800,0.10800,0.45600,-0.55300,159.95000,0.43000
191125_17.15.17.584,-0.02400,-0.02300,0.99000,0.08700,-0.08700,-0.03500,0.11500,0.45800,-0.55800,159.49000,-0.46000
191125_17.15.17.640,-0.02500,-0.02200,0.99100,0.07000,-0.12300,-0.03500,0.11500,0.45700,-0.54300,159.47000,-0.02000
191125_17.15.17.696,-0.02600,-0.02100,0.99100,0.07000,-0.08700,-0.03500,0.11500,0.45900,-0.54800,159.33000,-0.14000
191125_17.15.17.752,-0.02400,-0.02100,0.99000,0.05300,-0.10500,-0.03500,0.11500,0.45400,-0.55200,159.50000,0.17000
191125_17.15.17.808,-0.02500,-0.02200,0.99100,0.07000,-0.10500,-0.03500,0.11500,0.45400,-0.54800,159.91000,0.41000
191125_17.15.17.864,-0.02500,-0.02200,0.99100,0.08700,-0.12300,-0.01800,0.11300,0.45400,-0.54800,159.75000,-0.16000
191125_17.15.17.920,-0.02500,-0.02200,0.99200,0.07000,-0.10500,-0.01800,0.11000,0.46000,-0.54800,159.79000,0.04000
191125_17.15.17.976,-0.02500,-0.02200,0.99200,0.05300,-0.10500,-0.03500,0.11600,0.45700,-0.54600,159.66000,-0.13000
191125_17.15.18.032,-0.02600,-0.02100,0.99200,0.07000,-0.07000,-0.03500,0.11500,0.45900,-0.54200,159.23000,-0.43000
191125_17.15.18.088,-0.02500,-0.02200,0.99200,0.05300,-0.10500,-0.03500,0.11300,0.45700,-0.54800,159.73000,0.50000
191125_17.15.18.144,-0.02500,-0.02200,0.99200,0.05300,-0.10500,-0.01800,0.11000,0.45300,-0.54400,159.33000,-0.40000
191125_17.15.18.200,-0.02500,-0.02200,0.99200,0.07000,-0.10500,-0.01800,0.11700,0.45700,-0.55200,159.39000,0.06000
191125_17.15.18.256,-0.02500,-0.02200,0.99200,0.05300,-0.08700,-0.01800,0.11300,0.45700,-0.54200,160.32000,0.93000
191125_17.15.18.312,-0.02500,-0.02200,0.99100,0.07000,-0.12300,-0.03500,0.10800,0.45900,-0.54700,158.55000,-1.77000
191125_17.15.18.368,-0.02400,-0.02200,0.99100,0.07000,-0.12300,-0.03500,0.11200,0.45500,-0.55600,159.94000,1.39000
191125_17.15.18.424,-0.02600,-0.02100,0.99100,0.07000,-0.14000,-0.01800,0.11300,0.45800,-0.55800,159.63000,-0.31000
191125_17.15.18.480,-0.02500,-0.02100,0.99100,0.05300,-0.10500,-0.05300,0.11200,0.45800,-0.54400,159.51000,-0.12000
191125_17.15.18.536,-0.02400,-0.02200,0.99200,0.07000,-0.10500,-0.03500,0.11200,0.45800,-0.54300,159.64000,0.13000
191125_17.15.18.592,-0.02400,-0.02100,0.99100,0.07000,-0.12300,-0.01800,0.11200,0.46200,-0.54900,159.64000,0.00000
191125_17.15.18.648,-0.02500,-0.02300,0.99100,0.08700,-0.10500,-0.03500,0.11400,0.46100,-0.54900,159.43000,-0.21000
191125_17.15.18.704,-0.02600,-0.02200,0.99100,0.03500,-0.08700,-0.03500,0.11100,0.46200,-0.54900,159.47000,0.04000
191125_17.15.18.760,-0.02500,-0.02200,0.99100,0.05300,-0.10500,-0.03500,0.11300,0.46000,-0.55500,159.69000,0.22000
191125_17.15.18.816,-0.02700,-0.02200,0.99100,0.07000,-0.10500,-0.03500,0.11200,0.45700,-0.55300,159.83000,0.14000
191125_17.15.18.872,-0.02500,-0.02200,0.99200,0.07000,-0.12300,-0.03500,0.10900,0.45400,-0.55400,159.09000,-0.74000
191125_17.15.18.928,-0.02500,-0.02300,0.99200,0.05300,-0.10500,-0.03500,0.10500,0.45700,-0.55800,160.29000,1.20000
191125_17.15.18.984,-0.02600,-0.02200,0.99100,0.05300,-0.10500,-0.01800,0.10600,0.45500,-0.55100,159.80000,-0.49000
191125_17.15.19.040,-0.02600,-0.02300,0.99100,0.07000,-0.10500,-0.03500,0.11500,0.46000,-0.55900,159.89000,0.09000
191125_17.15.19.096,-0.02500,-0.02200,0.99100,0.07000,-0.12300,-0.03500,0.11200,0.45500,-0.55300,159.75000,-0.14000
191125_17.15.19.152,-0.02500,-0.02100,0.99100,0.07000,-0.10500,-0.03500,0.11200,0.45500,-0.54700,159.69000,-0.06000
191125_17.15.19.208,-0.02500,-0.02100,0.99100,0.05300,-0.10500,-0.03500,0.11000,0.45100,-0.55300,158.99000,-0.70000
191125_17.15.19.264,-0.02500,-0.02200,0.99100,0.08700,-0.10500,-0.03500,0.11000,0.45500,-0.55500,160.29000,1.30000
191125_17.15.19.320,-0.02500,-0.02200,0.99200,0.07000,-0.12300,-0.05300,0.10900,0.45300,-0.55400,159.50000,-0.79000
191125_17.15.19.376,-0.02500,-0.02100,0.99100,0.05300,-0.10500,-0.01800,0.10900,0.45100,-0.55100,159.63000,0.13000
191125_17.15.19.432,-0.02400,-0.02200,0.99100,0.07000,-0.10500,-0.03500,0.10900,0.45500,-0.55400,159.83000,0.20000
191125_17.15.19.488,-0.02500,-0.02200,0.99100,0.07000,-0.08700,-0.03500,0.10900,0.45300,-0.55000,159.59000,-0.24000
191125_17.15.19.544,-0.02400,-0.02200,0.99200,0.05300,-0.08700,-0.05300,0.10700,0.45500,-0.55300,160.28000,0.69000
191125_17.15.19.600,-0.02400,-0.02100,0.99000,0.07000,-0.10500,-0.03500,0.11300,0.45800,-0.54800,160.04000,-0.24000
191125_17.15.19.656,-0.02400,-0.02200,0.99100,0.07000,-0.10500,-0.01800,0.11200,0.45500,-0.54600,159.39000,-0.65000
191125_17.15.19.712,-0.02400,-0.02200,0.99100,0.03500,-0.10500,-0.01800,0.11500,0.45500,-0.54800,160.02000,0.63000
191125_17.15.19.768,-0.02400,-0.02200,0.99300,0.07000,-0.10500,-0.03500,0.11500,0.45900,-0.54600,160.29000,0.27000
191125_17.15.19.824,-0.02500,-0.02200,0.99100,0.07000,-0.10500,-0.03500,0.11400,0.45600,-0.55300,159.53000,-0.76000
191125_17.15.19.880,-0.02500,-0.02200,0.99100,0.05300,-0.08700,-0.03500,0.11500,0.45600,-0.55600,159.18000,-0.35000
191125_17.15.19.936,-0.02500,-0.02000,0.99100,0.08700,-0.10500,-0.01800,0.11300,0.45000,-0.55300,159.95000,0.77000
191125_17.15.19.992,-0.02500,-0.02200,0.99100,0.07000,-0.10500,-0.01800,0.11500,0.45400,-0.55000,159.64000,-0.31000
191125_17.15.20.048,-0.02500,-0.02200,0.99300,0.07000,-0.10500,-0.03500,0.11400,0.45500,-0.55100,159.65000,0.01000
191125_17.15.20.104,-0.02400,-0.02200,0.99200,0.07000,-0.12300,-0.01800,0.11300,0.45100,-0.55500,159.68000,0.03000
191125_17.15.20.160,-0.02600,-0.02200,0.99000,0.07000,-0.10500,-0.01800,0.11500,0.45500,-0.54700,159.44000,-0.24000
191125_17.15.20.216,-0.02500,-0.02300,0.99200,0.05300,-0.10500,-0.03500,0.11700,0.45500,-0.54900,160.06000,0.62000
191125_17.15.20.272,-0.02400,-0.02300,0.99000,0.05300,-0.10500,-0.05300,0.11900,0.45500,-0.54500,159.91000,-0.15000
191125_17.15.20.328,-0.02400,-0.02200,0.98800,0.07000,-0.12300,-0.03500,0.11800,0.45500,-0.54600,159.31000,-0.60000
191125_17.15.20.384,-0.02600,-0.02200,0.99300,0.08700,-0.10500,-0.01800,0.11500,0.45700,-0.54900,159.88000,0.57000
191125_17.15.20.440,-0.02500,-0.02100,0.98700,0.10500,-0.14000,0.00000,0.11600,0.45400,-0.55600,159.61000,-0.27000
191125_17.15.20.496,-0.02400,-0.02200,0.99000,0.05300,-0.12300,-0.01800,0.11600,0.45300,-0.55400,159.44000,-0.17000
191125_17.15.20.552,-0.02300,-0.02200,0.99000,0.07000,-0.10500,-0.01800,0.11800,0.45300,-0.54900,159.85000,0.41000
191125_17.15.20.608,-0.02600,-0.02200,0.99000,0.07000,-0.10500,-0.01800,0.11400,0.45700,-0.55300,160.28000,0.43000
191125_17.15.20.664,-0.02300,-0.02200,0.98400,0.03500,-0.07000,-0.03500,0.11400,0.45200,-0.55400,159.95000,-0.33000
191125_17.15.20.720,-0.02600,-0.02200,0.99400,0.08700,-0.12300,-0.01800,0.11700,0.45700,-0.55000,159.85000,-0.10000
191125_17.15.20.776,-0.02500,-0.02200,0.99500,0.10500,-0.14000,-0.01800,0.11400,0.45800,-0.55200,160.39000,0.54000
191125_17.15.20.832,-0.02300,-0.02100,0.98600,0.07000,-0.05300,-0.03500,0.11500,0.45900,-0.54900,159.88000,-0.51000
191125_17.15.20.888,-0.02500,-0.02200,0.99500,0.07000,-0.08700,-0.01800,0.11300,0.45600,-0.55300,159.58000,-0.30000
191125_17.15.20.944,-0.02500,-0.02300,0.99100,0.05300,-0.12300,-0.01800,0.11500,0.45900,-0.56200,159.71000,0.13000
191125_17.15.21.000,-0.02600,-0.02200,0.99300,0.07000,-0.10500,-0.03500,0.11500,0.45500,-0.55600,159.83000,0.12000
191125_17.15.21.056,-0.02500,-0.02100,0.99100,0.05300,-0.08700,-0.01800,0.11500,0.45500,-0.55800,159.72000,-0.11000
191125_17.15.21.112,-0.02500,-0.02100,0.99000,0.07000,-0.10500,-0.01800,0.12000,0.45700,-0.55200,159.59000,-0.13000
191125_17.15.21.168,-0.02500,-0.02200,0.99300,0.07000,-0.08700,-0.01800,0.11600,0.45800,-0.55400,159.74000,0.15000
191125_17.15.21.224,-0.02500,-0.02200,0.99100,0.05300,-0.14000,-0.01800,0.11700,0.45400,-0.55800,160.07000,0.33000
191125_17.15.21.280,-0.02500,-0.02200,0.99100,0.05300,-0.10500,-0.03500,0.12000,0.46000,-0.55700,160.36000,0.29000
191125_17.15.21.336,-0.02500,-0.02200,0.99100,0.05300,-0.08700,-0.01800,0.11800,0.46000,-0.55400,160.03000,-0.33000
191125_17.15.21.392,-0.02500,-0.02300,0.99200,0.08700,-0.08700,-0.03500,0.11400,0.45800,-0.55500,159.64000,-0.39000
191125_17.15.21.448,-0.02400,-0.02100,0.99200,0.07000,-0.10500,-0.03500,0.11400,0.45500,-0.55300,159.74000,0.10000
191125_17.15.21.504,-0.02500,-0.02200,0.99100,0.07000,-0.08700,-0.03500,0.11500,0.45600,-0.55900,159.63000,-0.11000
191125_17.15.21.560,-0.02500,-0.02200,0.99200,0.07000,-0.10500,-0.01800,0.11700,0.45600,-0.55200,160.46000,0.83000
191125_17.15.21.616,-0.02500,-0.02100,0.99000,0.07000,-0.12300,-0.03500,0.11500,0.46200,-0.55600,159.97000,-0.49000
191125_17.15.21.672,-0.02500,-0.02200,0.99100,0.08700,-0.10500,-0.03500,0.11400,0.45600,-0.55300,159.80000,-0.17000
191125_17.15.21.728,-0.02500,-0.02200,0.99100,0.05300,-0.12300,-0.01800,0.11800,0.45800,-0.55400,159.51000,-0.29000
191125_17.15.21.784,-0.02500,-0.02100,0.99100,0.07000,-0.10500,-0.05300,0.11400,0.45500,-0.55800,159.37000,-0.14000
191125_17.15.21.840,-0.02500,-0.02100,0.99000,0.07000,-0.10500,-0.01800,0.11400,0.45700,-0.54100,160.31000,0.94000
191125_17.15.21.896,-0.02500,-0.02300,0.99200,0.08700,-0.10500,-0.03500,0.11300,0.45600,-0.55400,160.31000,0.00000
191125_17.15.21.952,-0.02400,-0.02200,0.99200,0.05300,-0.08700,-0.01800,0.11300,0.45800,-0.54700,159.51000,-0.80000
191125_17.15.22.008,-0.02500,-0.02300,0.99100,0.05300,-0.08700,-0.03500,0.11300,0.45500,-0.54800,159.88000,0.37000
191125_17.15.22.064,-0.02600,-0.02200,0.99100,0.07000,-0.10500,-0.03500,0.11400,0.46000,-0.54700,159.35000,-0.53000
191125_17.15.22.120,-0.02500,-0.02200,0.99100,0.07000,-0.08700,-0.01800,0.11300,0.46300,-0.55500,159.67000,0.32000
191125_17.15.22.176,-0.02600,-0.02100,0.99100,0.05300,-0.10500,-0.03500,0.11500,0.45600,-0.54700,160.02000,0.35000
191125_17.15.22.232,-0.02500,-0.02200,0.99200,0.05300,-0.10500,-0.01800,0.11100,0.45900,-0.54700,160.54000,0.52000
191125_17.15.22.288,-0.02500,-0.02200,0.99200,0.07000,-0.10500,-0.01800,0.10900,0.45800,-0.55100,160.16000,-0.38000
191125_17.15.22.344,-0.02500,-0.02200,0.99100,0.07000,-0.10500,-0.05300,0.11200,0.46300,-0.55100,159.26000,-0.90000
191125_17.15.22.400,-0.02500,-0.02200,0.99100,0.05300,-0.12300,-0.03500,0.10800,0.46600,-0.54800,159.53000,0.27000
191125_17.15.22.456,-0.02500,-0.02300,0.99100,0.07000,-0.08700,-0.03500,0.11300,0.46400,-0.55000,159.69000,0.16000
191125_17.15.22.512,-0.02500,-0.02100,0.99200,0.05300,-0.10500,-0.03500,0.11200,0.46100,-0.55100,159.64000,-0.05000
191125_17.15.22.568,-0.02500,-0.02200,0.99100,0.07000,-0.10500,-0.03500,0.11100,0.45800,-0.55100,160.42000,0.78000
191125_17.15.22.624,-0.02500,-0.02300,0.99200,0.07000,-0.10500,-0.01800,0.11000,0.46100,-0.54900,159.73000,-0.69000
191125_17.15.22.680,-0.02500,-0.02100,0.99200,0.05300,-0.08700,-0.03500,0.10900,0.45900,-0.54900,158.91000,-0.82000
191125_17.15.22.736,-0.02400,-0.02200,0.99100,0.05300,-0.08700,-0.01800,0.11100,0.45800,-0.54800,159.45000,0.54000
191125_17.15.22.792,-0.02500,-0.02100,0.99100,0.05300,-0.10500,-0.01800,0.11000,0.46000,-0.55000,159.29000,-0.16000
191125_17.15.22.848,-0.02500,-0.02100,0.99100,0.05300,-0.12300,-0.03500,0.11200,0.45900,-0.54900,159.72000,0.43000
191125_17.15.22.904,-0.02400,-0.02200,0.99200,0.07000,-0.12300,-0.03500,0.11300,0.46500,-0.55600,159.39000,-0.33000
191125_17.15.22.960,-0.02500,-0.02100,0.99100,0.08700,-0.12300,-0.05300,0.11100,0.46200,-0.55300,159.72000,0.33000
191125_17.15.23.016,-0.02500,-0.02300,0.99200,0.07000,-0.10500,-0.01800,0.10600,0.46200,-0.55600,159.50000,-0.22000
191125_17.15.23.072,-0.02600,-0.02200,0.99200,0.05300,-0.12300,-0.03500,0.10900,0.46200,-0.55800,159.15000,-0.35000
191125_17.15.23.128,-0.02500,-0.02100,0.99100,0.07000,-0.12300,-0.01800,0.10700,0.45600,-0.55200,159.20000,0.05000
191125_17.15.23.184,-0.02500,-0.02100,0.99100,0.05300,-0.10500,-0.03500,0.10800,0.46300,-0.55700,159.35000,0.15000
191125_17.15.23.240,-0.02500,-0.02100,0.99100,0.07000,-0.08700,-0.03500,0.10900,0.45800,-0.54900,159.70000,0.35000
191125_17.15.23.296,-0.02600,-0.02200,0.99100,0.08700,-0.10500,-0.05300,0.10800,0.45900,-0.55300,159.35000,-0.35000
191125_17.15.23.352,-0.02600,-0.02100,0.99200,0.05300,-0.10500,-0.01800,0.11500,0.45900,-0.55200,159.62000,0.27000
191125_17.15.23.408,-0.02500,-0.02000,0.99100,0.07000,-0.12300,-0.03500,0.10800,0.46000,-0.55400,159.95000,0.33000
191125_17.15.23.464,-0.02400,-0.02300,0.99000,0.07000,-0.10500,-0.01800,0.11700,0.46400,-0.55900,159.96000,0.01000
191125_17.15.23.520,-0.02500,-0.02100,0.99100,0.07000,-0.10500,-0.01800,0.11300,0.46400,-0.55300,159.68000,-0.28000
191125_17.15.23.576,-0.02400,-0.02200,0.99200,0.07000,-0.10500,-0.03500,0.11700,0.46600,-0.55300,159.15000,-0.53000
191125_17.15.23.632,-0.02500,-0.02200,0.99100,0.05300,-0.08700,-0.03500,0.11500,0.46100,-0.55300,159.67000,0.52000
191125_17.15.23.688,-0.02400,-0.02200,0.99100,0.07000,-0.12300,-0.01800,0.11500,0.46500,-0.55600,159.47000,-0.20000
191125_17.15.23.744,-0.02500,-0.02200,0.99200,0.05300,-0.10500,-0.01800,0.11200,0.46300,-0.55100,159.52000,0.05000
191125_17.15.23.800,-0.02600,-0.02100,0.99100,0.05300,-0.12300,-0.03500,0.11300,0.46300,-0.56200,159.77000,0.25000
191125_17.15.23.856,-0.02500,-0.02200,0.99100,0.05300,-0.08700,-0.01800,0.11700,0.46300,-0.55400,159.00000,-0.77000
191125_17.15.23.912,-0.02500,-0.02200,0.99100,0.07000,-0.10500,-0.01800,0.11600,0.46200,-0.55300,160.03000,1.03000
191125_17.15.23.968,-0.02500,-0.02200,0.99000,0.08700,-0.12300,-0.03500,0.11300,0.46400,-0.55900,159.74000,-0.29000
191125_17.15.24.024,-0.02500,-0.02200,0.99200,0.07000,-0.08700,-0.03500,0.11400,0.46700,-0.56000,159.52000,-0.22000
191125_17.15.24.080,-0.02500,-0.02100,0.99100,0.05300,-0.10500,-0.01800,0.11400,0.46500,-0.56000,159.92000,0.40000
191125_17.15.24.136,-0.02600,-0.02100,0.99100,0.05300,-0.08700,-0.01800,0.11000,0.46600,-0.55600,159.50000,-0.42000
191125_17.15.24.192,-0.02600,-0.02100,0.98900,0.05300,-0.08700,-0.03500,0.11200,0.46400,-0.55500,159.60000,0.10000
191125_17.15.24.248,-0.02400,-0.02200,0.99100,0.05300,-0.10500,-0.01800,0.11100,0.46300,-0.55700,160.22000,0.62000
191125_17.15.24.304,-0.02400,-0.02100,0.99200,0.07000,-0.10500,-0.03500,0.11500,0.46000,-0.55700,159.93000,-0.29000
191125_17.15.24.360,-0.02500,-0.02200,0.99200,0.03500,-0.10500,-0.03500,0.11700,0.46400,-0.55300,159.04000,-0.89000
191125_17.15.24.416,-0.02500,-0.02100,0.99000,0.05300,-0.08700,-0.03500,0.11300,0.46200,-0.55600,159.78000,0.74000
191125_17.15.24.472,-0.02600,-0.02200,0.99600,0.05300,-0.08700,-0.01800,0.11200,0.46100,-0.55000,159.48000,-0.30000
191125_17.15.24.528,-0.02500,-0.02100,0.99100,0.07000,-0.12300,-0.01800,0.11100,0.46100,-0.55500,159.78000,0.30000
191125_17.15.24.584,-0.02500,-0.02200,0.98800,0.07000,-0.10500,-0.03500,0.11200,0.46200,-0.55700,159.12000,-0.66000
191125_17.15.24.640,-0.02500,-0.02200,0.99200,0.07000,-0.10500,-0.01800,0.11400,0.46300,-0.55700,159.48000,0.36000
191125_17.15.24.696,-0.02400,-0.02100,0.98900,0.07000,-0.10500,-0.01800,0.10800,0.46400,-0.55700,159.69000,0.21000
191125_17.15.24.752,-0.02500,-0.02100,0.99000,0.05300,-0.10500,-0.05300,0.10800,0.46100,-0.55400,158.88000,-0.81000
191125_17.15.24.808,-0.02500,-0.02100,0.99100,0.07000,-0.10500,-0.03500,0.10900,0.46000,-0.54900,160.09000,1.21000
191125_17.15.24.864,-0.02400,-0.02200,0.99000,0.08700,-0.14000,-0.01800,0.10800,0.45700,-0.55700,159.01000,-1.08000
191125_17.15.24.920,-0.02600,-0.02200,0.98900,0.03500,-0.10500,-0.03500,0.10800,0.46400,-0.55600,159.78000,0.77000
