t,ax,ay,az,gx,gy,gz,mx,my,mz,altitude,ral
21:47:45:398,-0.004,-0.022,0.983,0.001,-0.002,-0.001,-0.431,0.278,-0.516,192.19,0.000000
21:47:45:399,-0.002,-0.023,0.981,0.001,-0.002,-0.001,-0.431,0.281,-0.513,192.52,0.330000
21:47:45:401,-0.003,-0.024,0.982,0.000,-0.002,-0.001,-0.431,0.281,-0.513,191.65,-0.870000
21:47:45:402,-0.002,-0.023,0.984,0.000,-0.001,-0.001,-0.433,0.284,-0.513,192.28,0.630000
21:47:45:403,-0.003,-0.022,0.981,0.001,-0.001,-0.001,-0.431,0.279,-0.513,192.46,0.180000
21:47:45:404,-0.002,-0.024,0.983,0.001,-0.002,-0.001,-0.431,0.284,-0.512,192.84,0.380000
21:47:45:405,-0.003,-0.023,0.984,0.001,-0.002,-0.001,-0.430,0.281,-0.519,191.28,-1.560000
21:47:45:406,-0.002,-0.023,0.982,0.001,-0.002,-0.001,-0.433,0.282,-0.515,191.74,0.460000
21:47:45:407,-0.004,-0.024,0.980,0.001,-0.002,-0.001,-0.433,0.282,-0.514,192.62,0.880000
21:47:45:408,-0.003,-0.023,0.984,0.001,-0.002,-0.001,-0.433,0.280,-0.515,192.02,-0.600000
21:47:45:409,-0.004,-0.024,0.983,0.001,-0.001,-0.001,-0.433,0.280,-0.515,191.63,-0.390000
21:47:45:410,-0.002,-0.022,0.981,0.000,-0.001,-0.001,-0.432,0.283,-0.511,192.10,0.470000
21:47:45:411,-0.003,-0.023,0.983,0.001,-0.002,-0.001,-0.429,0.285,-0.517,191.99,-0.110000
21:47:45:412,-0.003,-0.023,0.981,0.001,-0.001,-0.001,-0.428,0.285,-0.518,191.52,-0.470000
21:47:45:413,-0.004,-0.023,0.982,0.001,-0.002,-0.001,-0.435,0.287,-0.517,191.67,0.150000
21:47:45:414,-0.002,-0.023,0.980,0.001,-0.002,-0.001,-0.433,0.284,-0.508,191.85,0.180000
21:47:45:415,-0.003,-0.024,0.983,0.001,-0.002,-0.001,-0.429,0.284,-0.513,192.05,0.200000
21:47:45:416,-0.002,-0.023,0.980,0.001,-0.002,-0.001,-0.429,0.284,-0.513,191.52,-0.530000
21:47:45:417,-0.001,-0.022,0.981,0.001,-0.002,-0.000,-0.429,0.286,-0.515,191.59,0.070000
21:47:45:418,-0.002,-0.024,0.983,0.001,-0.001,-0.001,-0.434,0.287,-0.506,192.05,0.460000
21:47:45:419,-0.003,-0.023,0.984,0.001,-0.002,-0.001,-0.432,0.286,-0.507,191.61,-0.440000
21:47:45:420,-0.001,-0.023,0.982,0.001,-0.001,-0.000,-0.429,0.284,-0.507,192.46,0.850000
21:47:45:421,-0.003,-0.024,0.983,0.001,-0.002,-0.001,-0.435,0.285,-0.514,192.41,-0.050000
21:47:45:423,-0.002,-0.023,0.981,0.001,-0.001,-0.001,-0.430,0.284,-0.512,192.22,-0.190000
21:47:45:424,-0.002,-0.024,0.981,0.001,-0.002,-0.001,-0.430,0.284,-0.512,192.11,-0.110000
21:47:45:425,-0.002,-0.024,0.982,0.000,-0.002,-0.001,-0.431,0.282,-0.513,192.30,0.190000
21:47:45:426,-0.002,-0.023,0.982,0.001,-0.002,-0.001,-0.430,0.285,-0.510,191.63,-0.670000
21:47:45:427,-0.003,-0.023,0.982,0.001,-0.002,-0.001,-0.432,0.282,-0.511,191.14,-0.490000
21:47:45:428,-0.002,-0.023,0.982,0.001,-0.002,-0.001,-0.429,0.283,-0.505,191.83,0.690000
21:47:45:429,-0.003,-0.023,0.981,0.001,-0.002,-0.001,-0.435,0.282,-0.515,192.12,0.290000
21:47:45:430,-0.002,-0.023,0.982,0.001,-0.002,-0.001,-0.438,0.280,-0.504,192.09,-0.030000
21:47:45:431,-0.003,-0.025,0.981,0.001,-0.001,-0.001,-0.438,0.280,-0.504,191.77,-0.320000
21:47:45:432,-0.002,-0.023,0.984,0.001,-0.001,-0.000,-0.430,0.283,-0.510,192.00,0.230000
21:47:45:433,-0.002,-0.023,0.982,0.001,-0.002,-0.001,-0.435,0.282,-0.512,192.13,0.130000
21:47:45:434,-0.003,-0.024,0.982,0.001,-0.001,-0.001,-0.431,0.281,-0.503,191.93,-0.200000
21:47:45:435,-0.003,-0.023,0.981,0.001,-0.002,-0.001,-0.430,0.283,-0.507,192.13,0.200000
21:47:45:436,-0.002,-0.024,0.983,0.001,-0.002,-0.001,-0.432,0.283,-0.507,192.71,0.580000
21:47:45:437,-0.003,-0.024,0.982,0.001,-0.001,-0.000,-0.432,0.281,-0.509,192.06,-0.650000
21:47:45:438,-0.003,-0.024,0.983,0.001,-0.002,-0.001,-0.432,0.281,-0.509,192.69,0.630000
21:47:45:439,-0.003,-0.023,0.982,0.001,-0.002,-0.000,-0.430,0.279,-0.509,192.06,-0.630000
21:47:45:440,-0.003,-0.023,0.982,0.001,-0.002,-0.000,-0.425,0.280,-0.511,192.27,0.210000
21:47:45:441,-0.002,-0.024,0.982,0.001,-0.002,-0.001,-0.430,0.281,-0.515,191.80,-0.470000
21:47:45:442,-0.002,-0.024,0.982,0.001,-0.001,-0.000,-0.431,0.283,-0.520,192.00,0.200000
21:47:45:443,-0.002,-0.023,0.983,0.001,-0.002,-0.000,-0.431,0.281,-0.517,192.33,0.330000
21:47:45:444,-0.002,-0.024,0.982,0.001,-0.002,-0.001,-0.435,0.283,-0.508,192.27,-0.060000
21:47:45:445,-0.003,-0.024,0.982,0.001,-0.002,-0.001,-0.435,0.283,-0.508,192.02,-0.250000
21:47:45:446,-0.002,-0.023,0.983,0.001,-0.001,-0.001,-0.434,0.282,-0.508,191.55,-0.470000
21:47:45:447,-0.002,-0.023,0.983,0.000,-0.002,-0.000,-0.430,0.282,-0.501,192.31,0.760000
21:47:45:448,-0.003,-0.024,0.982,0.000,-0.002,-0.001,-0.430,0.284,-0.504,192.15,-0.160000
21:47:45:450,-0.002,-0.023,0.982,0.000,-0.002,-0.001,-0.432,0.281,-0.507,192.67,0.520000
21:47:45:451,-0.003,-0.024,0.982,0.001,-0.002,-0.001,-0.435,0.281,-0.512,192.07,-0.600000
21:47:45:451,-0.003,-0.023,0.981,0.001,-0.001,-0.001,-0.431,0.283,-0.516,191.94,-0.130000
21:47:45:452,-0.003,-0.022,0.980,0.001,-0.001,-0.001,-0.431,0.283,-0.516,191.91,-0.030000
21:47:45:453,-0.002,-0.023,0.983,0.001,-0.001,-0.001,-0.430,0.280,-0.513,191.81,-0.100000
21:47:45:454,-0.003,-0.024,0.982,0.001,-0.002,-0.001,-0.435,0.281,-0.516,191.84,0.030000
21:47:45:455,-0.002,-0.024,0.982,0.001,-0.002,-0.001,-0.432,0.281,-0.518,192.43,0.590000
21:47:45:456,-0.003,-0.023,0.982,0.001,-0.001,-0.001,-0.435,0.285,-0.510,192.00,-0.430000
21:47:45:457,-0.003,-0.023,0.982,0.001,-0.002,-0.001,-0.431,0.280,-0.516,191.97,-0.030000
21:47:45:458,-0.003,-0.022,0.982,0.001,-0.002,-0.001,-0.430,0.279,-0.512,192.58,0.610000
21:47:45:459,-0.003,-0.024,0.983,0.001,-0.002,-0.001,-0.430,0.279,-0.512,192.38,-0.200000
21:47:45:460,-0.003,-0.023,0.982,0.001,-0.001,-0.001,-0.435,0.281,-0.505,191.64,-0.740000
21:47:45:461,-0.003,-0.023,0.982,0.001,-0.002,-0.001,-0.433,0.278,-0.515,192.11,0.470000
21:47:45:462,-0.003,-0.024,0.983,0.001,-0.002,-0.001,-0.431,0.282,-0.516,192.35,0.240000
21:47:45:463,-0.002,-0.022,0.981,0.001,-0.001,-0.000,-0.433,0.277,-0.515,191.96,-0.390000
21:47:45:464,-0.002,-0.023,0.982,0.001,-0.002,-0.000,-0.432,0.278,-0.512,191.97,0.010000
21:47:45:465,-0.003,-0.024,0.983,0.001,-0.002,-0.000,-0.434,0.275,-0.512,192.32,0.350000
21:47:45:465,-0.002,-0.024,0.983,0.001,-0.002,-0.001,-0.434,0.275,-0.518,192.11,-0.210000
21:47:45:466,-0.003,-0.023,0.983,0.001,-0.002,-0.001,-0.430,0.282,-0.518,192.16,0.050000
21:47:45:467,-0.002,-0.022,0.982,0.001,-0.001,-0.001,-0.432,0.280,-0.521,191.70,-0.460000
21:47:45:468,-0.003,-0.023,0.982,0.001,-0.002,-0.001,-0.437,0.274,-0.516,192.20,0.500000
21:47:45:469,-0.003,-0.022,0.981,0.001,-0.001,-0.001,-0.434,0.277,-0.523,192.65,0.450000
21:47:45:470,-0.003,-0.023,0.981,0.001,-0.001,-0.001,-0.435,0.278,-0.524,191.82,-0.830000
21:47:45:471,-0.003,-0.023,0.987,0.000,-0.002,-0.001,-0.435,0.279,-0.520,191.64,-0.180000
21:47:45:471,-0.002,-0.022,0.982,0.001,-0.001,-0.001,-0.435,0.278,-0.515,192.30,0.660000
21:47:45:472,-0.002,-0.023,0.981,0.001,-0.002,-0.001,-0.437,0.278,-0.515,192.20,-0.100000
21:47:45:473,-0.003,-0.023,0.982,0.001,-0.002,-0.001,-0.437,0.277,-0.517,192.11,-0.090000
21:47:45:474,-0.002,-0.023,0.984,0.000,-0.002,-0.000,-0.435,0.278,-0.515,191.02,-1.090000
21:47:45:475,-0.003,-0.024,0.980,0.001,-0.002,-0.001,-0.431,0.276,-0.514,192.17,1.150000
21:47:45:476,-0.003,-0.024,0.982,0.001,-0.001,-0.001,-0.434,0.280,-0.515,192.06,-0.110000
21:47:45:476,-0.004,-0.024,0.982,0.001,-0.002,-0.001,-0.432,0.274,-0.510,191.60,-0.460000
21:47:45:477,-0.002,-0.023,0.984,0.000,-0.002,-0.000,-0.436,0.278,-0.513,192.05,0.450000
21:47:45:478,-0.003,-0.023,0.979,0.001,-0.001,-0.001,-0.436,0.278,-0.513,191.62,-0.430000
21:47:45:479,-0.002,-0.024,0.982,0.001,-0.002,-0.001,-0.438,0.282,-0.513,192.35,0.730000
21:47:45:479,-0.003,-0.023,0.984,0.001,-0.002,-0.001,-0.437,0.272,-0.514,192.34,-0.010000
21:47:45:480,-0.003,-0.024,0.982,0.001,-0.001,-0.000,-0.436,0.275,-0.507,191.47,-0.870000
21:47:45:481,-0.003,-0.023,0.980,0.001,-0.002,-0.001,-0.437,0.277,-0.511,192.19,0.720000
21:47:45:482,-0.003,-0.023,0.983,0.000,-0.002,-0.001,-0.434,0.281,-0.512,191.56,-0.630000
21:47:45:482,-0.002,-0.025,0.983,0.001,-0.002,-0.001,-0.434,0.278,-0.511,192.00,0.440000
21:47:45:483,-0.003,-0.022,0.981,0.001,-0.002,-0.001,-0.434,0.278,-0.511,191.73,-0.270000
21:47:45:484,-0.002,-0.024,0.982,0.001,-0.001,-0.001,-0.435,0.277,-0.512,192.13,0.400000
21:47:45:485,-0.003,-0.023,0.983,0.001,-0.002,-0.001,-0.432,0.280,-0.505,191.46,-0.670000
21:47:45:485,-0.002,-0.023,0.982,0.001,-0.001,-0.001,-0.433,0.282,-0.512,192.48,1.020000
21:47:45:486,-0.003,-0.024,0.982,0.001,-0.002,-0.001,-0.433,0.278,-0.504,191.82,-0.660000
21:47:45:487,-0.002,-0.024,0.983,0.001,-0.002,-0.001,-0.433,0.279,-0.506,192.01,0.190000
21:47:45:488,-0.003,-0.023,0.983,0.001,-0.001,-0.001,-0.434,0.273,-0.504,191.86,-0.150000
21:47:45:488,-0.002,-0.023,0.982,0.001,-0.002,-0.001,-0.434,0.273,-0.504,191.94,0.080000
21:47:45:489,-0.003,-0.023,0.982,0.001,-0.002,-0.001,-0.438,0.278,-0.505,192.56,0.620000
21:47:45:490,-0.002,-0.024,0.982,0.001,-0.002,-0.001,-0.436,0.276,-0.504,192.29,-0.270000
21:47:45:491,-0.003,-0.023,0.983,0.001,-0.002,-0.001,-0.433,0.280,-0.507,192.05,-0.240000
21:47:45:491,-0.002,-0.024,0.982,0.001,-0.002,-0.000,-0.435,0.278,-0.510,192.10,0.050000
21:47:45:492,-0.003,-0.024,0.983,0.001,-0.001,-0.000,-0.433,0.280,-0.510,192.50,0.400000
21:47:45:493,-0.002,-0.024,0.983,0.001,-0.002,-0.001,-0.434,0.275,-0.510,191.88,-0.620000
21:47:45:493,-0.003,-0.024,0.982,0.001,-0.002,-0.001,-0.434,0.275,-0.510,192.27,0.390000
21:47:45:494,-0.002,-0.023,0.983,0.001,-0.002,-0.001,-0.432,0.280,-0.505,192.46,0.190000
21:47:45:495,-0.003,-0.024,0.982,0.001,-0.002,-0.001,-0.432,0.281,-0.507,191.76,-0.700000
21:47:45:496,-0.002,-0.024,0.983,0.001,-0.002,-0.001,-0.431,0.277,-0.510,191.96,0.200000
21:47:45:496,-0.003,-0.023,0.983,0.001,-0.002,-0.001,-0.434,0.280,-0.502,191.82,-0.140000
21:47:45:497,-0.002,-0.024,0.983,0.001,-0.002,-0.001,-0.432,0.276,-0.504,191.93,0.110000
21:47:45:498,-0.002,-0.024,0.982,0.001,-0.002,-0.001,-0.434,0.277,-0.502,191.76,-0.170000
21:47:45:498,-0.002,-0.024,0.982,0.000,-0.002,-0.001,-0.434,0.277,-0.502,192.08,0.320000
21:47:45:499,-0.003,-0.023,0.983,0.001,-0.002,-0.000,-0.432,0.278,-0.513,192.16,0.080000
21:47:45:500,-0.003,-0.023,0.983,0.001,-0.002,-0.001,-0.431,0.278,-0.508,192.09,-0.070000
21:47:45:500,-0.003,-0.023,0.982,0.001,-0.002,-0.001,-0.432,0.280,-0.510,192.11,0.020000
21:47:45:501,-0.003,-0.023,0.981,0.001,-0.002,-0.001,-0.433,0.278,-0.511,191.76,-0.350000
21:47:45:502,-0.002,-0.023,0.983,0.000,-0.002,-0.001,-0.436,0.284,-0.506,191.94,0.180000
21:47:45:502,-0.003,-0.024,0.988,0.001,-0.001,-0.001,-0.436,0.276,-0.507,191.75,-0.190000
21:47:45:503,-0.002,-0.023,0.980,0.001,-0.001,-0.001,-0.436,0.276,-0.507,191.58,-0.170000
21:47:45:504,-0.003,-0.023,0.980,0.001,-0.001,-0.001,-0.437,0.280,-0.511,192.36,0.780000
21:47:45:504,-0.003,-0.023,0.985,0.001,-0.002,-0.000,-0.437,0.280,-0.510,192.33,-0.030000
21:47:45:505,-0.003,-0.022,0.984,0.001,-0.001,-0.001,-0.431,0.278,-0.510,191.67,-0.660000
21:47:45:506,-0.002,-0.024,0.982,0.001,-0.002,-0.001,-0.435,0.278,-0.508,192.00,0.330000
21:47:45:506,-0.003,-0.023,0.980,0.001,-0.002,-0.001,-0.435,0.277,-0.506,191.81,-0.190000
21:47:45:507,-0.002,-0.024,0.984,0.001,-0.001,-0.001,-0.430,0.279,-0.508,191.80,-0.010000
21:47:45:508,-0.002,-0.024,0.980,0.001,-0.002,-0.001,-0.430,0.279,-0.508,191.39,-0.410000
21:47:45:508,-0.002,-0.025,0.988,0.001,-0.002,-0.001,-0.434,0.276,-0.506,191.59,0.200000
21:47:45:509,-0.002,-0.022,0.977,0.001,-0.002,-0.001,-0.435,0.279,-0.504,191.39,-0.200000
21:47:45:510,-0.003,-0.024,0.985,0.001,-0.002,-0.001,-0.433,0.279,-0.505,191.54,0.150000
21:47:45:510,-0.003,-0.023,0.982,0.001,-0.002,-0.001,-0.429,0.280,-0.506,191.54,0.000000
21:47:45:511,-0.003,-0.023,0.983,0.001,-0.002,-0.001,-0.434,0.276,-0.504,192.04,0.500000
21:47:45:512,-0.001,-0.023,0.979,0.001,-0.002,-0.001,-0.435,0.277,-0.509,191.92,-0.120000
21:47:45:512,-0.002,-0.023,0.986,0.000,-0.001,-0.001,-0.435,0.277,-0.509,192.64,0.720000
21:47:45:513,-0.003,-0.023,0.982,0.001,-0.002,-0.001,-0.433,0.278,-0.509,191.91,-0.730000
21:47:45:514,-0.003,-0.022,0.981,0.001,-0.002,-0.001,-0.431,0.277,-0.506,191.73,-0.180000
21:47:45:514,-0.003,-0.024,0.983,0.000,-0.002,-0.001,-0.435,0.282,-0.507,191.47,-0.260000
21:47:45:515,-0.002,-0.024,0.984,0.001,-0.002,-0.001,-0.434,0.280,-0.507,191.53,0.060000
21:47:45:516,-0.003,-0.023,0.981,0.001,-0.002,-0.001,-0.436,0.284,-0.502,191.61,0.080000
21:47:45:516,-0.002,-0.024,0.982,0.001,-0.002,-0.001,-0.436,0.283,-0.507,192.09,0.480000
21:47:45:517,-0.003,-0.023,0.983,0.001,-0.002,-0.000,-0.436,0.283,-0.505,192.03,-0.060000
21:47:45:518,-0.002,-0.023,0.982,0.001,-0.002,-0.000,-0.434,0.283,-0.505,192.09,0.060000
21:47:45:518,-0.003,-0.024,0.980,0.000,-0.002,-0.001,-0.436,0.284,-0.509,191.65,-0.440000
21:47:45:519,-0.002,-0.024,0.983,0.000,-0.002,-0.001,-0.432,0.283,-0.509,191.79,0.140000
21:47:45:520,-0.002,-0.024,0.984,0.000,-0.002,-0.001,-0.433,0.277,-0.506,191.63,-0.160000
21:47:45:521,-0.003,-0.024,0.983,0.001,-0.002,-0.001,-0.430,0.278,-0.501,192.24,0.610000
21:47:45:521,-0.002,-0.023,0.982,0.001,-0.002,-0.001,-0.432,0.276,-0.507,191.16,-1.080000
21:47:45:522,-0.003,-0.024,0.983,0.000,-0.002,-0.001,-0.431,0.278,-0.510,191.80,0.640000
21:47:45:523,-0.003,-0.023,0.982,0.001,-0.002,-0.001,-0.431,0.278,-0.510,191.74,-0.060000
21:47:45:523,-0.001,-0.022,0.982,0.001,-0.002,0.000,-0.431,0.281,-0.501,192.12,0.380000
21:47:45:524,-0.002,-0.023,0.982,0.001,-0.002,-0.001,-0.426,0.277,-0.507,192.39,0.270000
21:47:45:525,-0.002,-0.023,0.983,0.000,-0.002,-0.000,-0.430,0.279,-0.503,191.90,-0.490000
21:47:45:525,-0.003,-0.024,0.981,0.001,-0.002,-0.001,-0.435,0.278,-0.509,191.72,-0.180000
21:47:45:526,-0.002,-0.023,0.981,0.001,-0.002,-0.000,-0.430,0.278,-0.514,192.33,0.610000
21:47:45:527,-0.003,-0.023,0.984,0.001,-0.002,-0.001,-0.428,0.278,-0.512,190.93,-1.400000
21:47:45:527,-0.003,-0.024,0.982,0.001,-0.002,-0.001,-0.428,0.278,-0.512,192.01,1.080000
21:47:45:528,-0.002,-0.023,0.982,0.001,-0.002,-0.001,-0.430,0.281,-0.512,191.40,-0.610000
21:47:45:529,-0.002,-0.023,0.982,0.001,-0.002,-0.000,-0.434,0.281,-0.512,192.25,0.850000
21:47:45:529,-0.003,-0.023,0.982,0.001,-0.002,-0.001,-0.431,0.281,-0.511,191.27,-0.980000
21:47:45:530,-0.003,-0.024,0.982,0.001,-0.002,-0.001,-0.426,0.278,-0.515,191.93,0.660000
21:47:45:531,-0.003,-0.023,0.983,0.000,-0.002,-0.001,-0.425,0.279,-0.508,192.22,0.290000
21:47:45:531,-0.001,-0.024,0.983,0.001,-0.002,-0.001,-0.433,0.281,-0.511,191.91,-0.310000
21:47:45:532,-0.002,-0.024,0.982,0.001,-0.001,-0.001,-0.433,0.281,-0.511,191.77,-0.140000
21:47:45:533,-0.002,-0.023,0.980,0.001,-0.002,-0.001,-0.429,0.276,-0.509,191.67,-0.100000
21:47:45:533,-0.003,-0.024,0.983,0.001,-0.002,-0.001,-0.431,0.282,-0.516,191.45,-0.220000
21:47:45:534,-0.003,-0.024,0.982,0.001,-0.002,-0.001,-0.430,0.281,-0.514,191.50,0.050000
21:47:45:535,-0.003,-0.022,0.983,0.001,-0.002,-0.001,-0.429,0.279,-0.516,192.00,0.500000
21:47:45:535,-0.003,-0.023,0.982,0.001,-0.001,-0.001,-0.429,0.282,-0.515,192.25,0.250000
21:47:45:536,-0.003,-0.023,0.982,0.001,-0.001,-0.001,-0.431,0.281,-0.517,191.65,-0.600000
21:47:45:537,-0.003,-0.023,0.982,0.001,-0.002,-0.001,-0.431,0.281,-0.517,192.08,0.430000
21:47:45:537,-0.001,-0.023,0.982,0.000,-0.002,-0.001,-0.426,0.277,-0.516,192.08,0.000000
21:47:45:538,-0.003,-0.024,0.982,0.001,-0.002,-0.001,-0.425,0.282,-0.511,192.27,0.190000
21:47:45:539,-0.003,-0.023,0.983,0.001,-0.002,-0.001,-0.429,0.284,-0.508,192.14,-0.130000
21:47:45:539,-0.003,-0.022,0.983,0.001,-0.002,-0.001,-0.428,0.278,-0.513,192.34,0.200000
21:47:45:540,-0.003,-0.023,0.983,0.001,-0.002,-0.001,-0.429,0.280,-0.510,191.94,-0.400000
21:47:45:541,-0.002,-0.024,0.981,0.000,-0.002,-0.001,-0.430,0.281,-0.509,191.78,-0.160000
21:47:45:541,-0.003,-0.023,0.981,0.000,-0.001,-0.001,-0.430,0.281,-0.509,192.01,0.230000
21:47:45:542,-0.003,-0.022,0.983,0.001,-0.002,-0.001,-0.434,0.281,-0.510,191.39,-0.620000
21:47:45:543,-0.003,-0.024,0.983,0.001,-0.002,-0.001,-0.431,0.281,-0.506,191.59,0.200000
21:47:45:543,-0.002,-0.023,0.982,0.001,-0.002,-0.001,-0.431,0.281,-0.507,191.28,-0.310000
21:47:45:544,-0.002,-0.023,0.981,0.001,-0.002,-0.001,-0.430,0.279,-0.504,191.22,-0.060000
21:47:45:545,-0.002,-0.023,0.983,0.001,-0.002,-0.001,-0.429,0.277,-0.511,191.84,0.620000
21:47:45:545,-0.004,-0.024,0.982,0.001,-0.002,-0.001,-0.428,0.276,-0.506,192.45,0.610000
21:47:45:546,-0.002,-0.024,0.980,0.001,-0.002,-0.001,-0.428,0.276,-0.506,191.74,-0.710000
21:47:45:547,-0.002,-0.023,0.983,0.001,-0.002,-0.001,-0.430,0.279,-0.507,191.78,0.040000
21:47:45:547,-0.004,-0.022,0.983,0.001,-0.001,-0.001,-0.431,0.282,-0.505,191.89,0.110000
21:47:45:548,-0.001,-0.023,0.981,0.001,-0.002,-0.001,-0.429,0.286,-0.513,191.76,-0.130000
21:47:45:549,-0.003,-0.022,0.982,0.001,-0.001,-0.001,-0.432,0.283,-0.505,191.38,-0.380000
21:47:45:549,-0.002,-0.024,0.982,0.001,-0.001,-0.001,-0.431,0.282,-0.508,191.82,0.440000
21:47:45:550,-0.003,-0.024,0.982,0.001,-0.002,-0.001,-0.430,0.279,-0.503,191.72,-0.100000
21:47:45:551,-0.002,-0.023,0.981,0.001,-0.001,-0.001,-0.430,0.279,-0.503,192.10,0.380000
21:47:45:551,-0.002,-0.023,0.982,0.001,-0.001,-0.001,-0.432,0.282,-0.505,192.36,0.260000
21:47:45:552,-0.003,-0.024,0.982,0.001,-0.002,-0.001,-0.428,0.278,-0.499,191.92,-0.440000
21:47:45:553,-0.003,-0.025,0.983,0.001,-0.002,-0.001,-0.426,0.285,-0.505,192.26,0.340000
21:47:45:553,-0.002,-0.023,0.982,0.001,-0.002,-0.001,-0.429,0.281,-0.502,191.68,-0.580000
21:47:45:554,-0.002,-0.024,0.981,0.001,-0.002,-0.001,-0.434,0.281,-0.508,192.25,0.570000
21:47:45:555,-0.003,-0.023,0.981,0.001,-0.001,-0.001,-0.431,0.278,-0.519,191.76,-0.490000
21:47:45:555,-0.003,-0.022,0.982,0.001,-0.001,-0.001,-0.431,0.278,-0.503,192.15,0.390000
21:47:45:556,-0.003,-0.023,0.983,0.001,-0.001,-0.000,-0.433,0.283,-0.503,191.38,-0.770000
21:47:45:557,-0.001,-0.024,0.981,0.001,-0.002,-0.000,-0.435,0.282,-0.506,191.67,0.290000
21:47:45:558,-0.002,-0.023,0.982,0.001,-0.002,-0.001,-0.431,0.281,-0.507,191.56,-0.110000
21:47:45:558,-0.003,-0.024,0.983,0.001,-0.001,-0.001,-0.430,0.279,-0.509,192.58,1.020000
21:47:45:559,-0.002,-0.022,0.983,0.001,-0.002,-0.001,-0.429,0.287,-0.508,192.47,-0.110000
21:47:45:560,-0.003,-0.022,0.981,0.001,-0.002,-0.001,-0.427,0.282,-0.510,191.70,-0.770000
21:47:45:560,-0.003,-0.023,0.983,0.001,-0.002,-0.001,-0.427,0.282,-0.510,192.22,0.520000
21:47:45:561,-0.002,-0.024,0.983,0.001,-0.001,-0.001,-0.430,0.282,-0.510,191.84,-0.380000
21:47:45:562,-0.002,-0.024,0.981,0.001,-0.002,-0.001,-0.433,0.280,-0.506,191.46,-0.380000
21:47:45:562,-0.001,-0.023,0.982,0.001,-0.002,-0.001,-0.430,0.275,-0.503,191.63,0.170000
21:47:45:563,-0.001,-0.023,0.983,0.001,-0.002,-0.001,-0.431,0.282,-0.509,192.40,0.770000
21:47:45:564,-0.002,-0.023,0.983,0.001,-0.002,-0.001,-0.429,0.279,-0.510,191.60,-0.800000
21:47:45:564,-0.002,-0.023,0.982,0.001,-0.002,-0.001,-0.432,0.282,-0.509,191.57,-0.030000
21:47:45:565,-0.001,-0.024,0.983,0.001,-0.002,-0.001,-0.433,0.280,-0.508,191.64,0.070000
21:47:45:566,-0.003,-0.024,0.982,0.001,-0.002,-0.001,-0.433,0.280,-0.508,192.30,0.660000
21:47:45:566,-0.003,-0.023,0.983,0.001,-0.002,-0.001,-0.436,0.282,-0.511,191.49,-0.810000
21:47:45:567,-0.002,-0.023,0.982,0.001,-0.002,-0.001,-0.431,0.283,-0.514,191.73,0.240000
21:47:45:568,-0.001,-0.023,0.982,0.001,-0.001,-0.001,-0.433,0.279,-0.514,191.89,0.160000
21:47:45:568,-0.003,-0.023,0.983,0.001,-0.002,-0.001,-0.431,0.280,-0.510,191.61,-0.280000
21:47:45:569,-0.004,-0.023,0.982,0.001,-0.002,-0.001,-0.436,0.281,-0.511,191.71,0.100000
21:47:45:570,-0.003,-0.023,0.981,0.001,-0.002,-0.001,-0.428,0.278,-0.510,192.23,0.520000
21:47:45:570,-0.003,-0.022,0.983,0.001,-0.002,-0.001,-0.428,0.278,-0.510,191.60,-0.630000
21:47:45:571,-0.004,-0.023,0.981,0.000,-0.002,-0.001,-0.433,0.281,-0.510,192.59,0.990000
21:47:45:572,-0.004,-0.023,0.983,0.001,-0.001,-0.001,-0.431,0.281,-0.510,192.81,0.220000
21:47:45:572,-0.003,-0.024,0.982,0.001,-0.002,-0.001,-0.431,0.283,-0.513,191.89,-0.920000
21:47:45:573,-0.002,-0.024,0.983,0.001,-0.002,-0.001,-0.431,0.283,-0.511,191.78,-0.110000
21:47:45:574,-0.001,-0.025,0.982,0.001,-0.001,-0.001,-0.426,0.278,-0.513,191.62,-0.160000
21:47:45:574,-0.002,-0.023,0.983,0.001,-0.001,-0.001,-0.428,0.281,-0.514,192.00,0.380000
21:47:45:575,-0.002,-0.023,0.982,0.001,-0.001,-0.001,-0.428,0.281,-0.514,191.93,-0.070000
21:47:45:576,-0.003,-0.023,0.982,0.001,-0.001,-0.001,-0.427,0.282,-0.516,192.10,0.170000
21:47:45:576,-0.003,-0.023,0.983,0.001,-0.001,-0.001,-0.429,0.282,-0.507,191.95,-0.150000
21:47:45:577,-0.002,-0.023,0.982,0.001,-0.002,-0.001,-0.429,0.281,-0.513,192.56,0.610000
21:47:45:578,-0.002,-0.022,0.982,0.000,-0.002,-0.000,-0.428,0.277,-0.518,192.07,-0.490000
21:47:45:578,-0.003,-0.024,0.982,0.001,-0.001,-0.001,-0.431,0.280,-0.514,191.83,-0.240000
21:47:45:579,-0.002,-0.023,0.982,0.001,-0.002,-0.001,-0.429,0.282,-0.516,191.73,-0.100000
21:47:45:580,-0.002,-0.022,0.981,0.001,-0.002,-0.001,-0.429,0.282,-0.516,191.53,-0.200000
21:47:45:580,-0.003,-0.023,0.981,0.001,-0.001,-0.001,-0.426,0.281,-0.517,191.82,0.290000
21:47:45:581,-0.003,-0.025,0.981,0.001,-0.002,-0.001,-0.425,0.279,-0.516,191.84,0.020000
21:47:45:582,-0.002,-0.024,0.982,0.001,-0.001,-0.001,-0.429,0.282,-0.513,191.56,-0.280000
21:47:45:582,-0.003,-0.023,0.982,0.001,-0.001,-0.001,-0.436,0.281,-0.514,191.81,0.250000
21:47:45:583,-0.003,-0.024,0.981,0.001,-0.002,-0.001,-0.428,0.283,-0.510,191.94,0.130000
21:47:45:584,-0.004,-0.024,0.981,0.001,-0.002,-0.001,-0.431,0.285,-0.510,191.06,-0.880000
21:47:45:584,-0.003,-0.023,0.983,0.001,-0.002,-0.000,-0.431,0.285,-0.510,191.68,0.620000
21:47:45:585,-0.004,-0.023,0.982,0.001,-0.002,-0.001,-0.429,0.284,-0.511,191.51,-0.170000
21:47:45:586,-0.002,-0.023,0.982,0.001,-0.001,-0.001,-0.430,0.281,-0.503,192.02,0.510000
21:47:45:586,-0.002,-0.022,0.981,0.001,-0.001,-0.001,-0.425,0.281,-0.508,192.08,0.060000
21:47:45:587,-0.003,-0.024,0.983,0.001,-0.002,-0.001,-0.426,0.285,-0.508,191.92,-0.160000
21:47:45:588,-0.003,-0.024,0.982,0.001,-0.002,-0.001,-0.431,0.282,-0.510,191.69,-0.230000
21:47:45:588,-0.002,-0.024,0.983,0.001,-0.002,-0.001,-0.429,0.286,-0.508,191.82,0.130000
21:47:45:589,-0.004,-0.023,0.983,0.001,-0.002,-0.001,-0.429,0.286,-0.508,192.15,0.330000
21:47:45:590,-0.003,-0.023,0.983,0.000,-0.002,-0.001,-0.427,0.280,-0.507,191.73,-0.420000
21:47:45:590,-0.003,-0.023,0.982,0.000,-0.002,-0.001,-0.425,0.282,-0.509,191.41,-0.320000
21:47:45:591,-0.002,-0.022,0.983,0.001,-0.001,-0.001,-0.424,0.279,-0.511,192.26,0.850000
21:47:45:592,-0.002,-0.024,0.982,0.001,-0.002,-0.000,-0.424,0.277,-0.506,191.53,-0.730000
21:47:45:592,-0.003,-0.024,0.981,0.001,-0.002,-0.001,-0.424,0.278,-0.508,192.22,0.690000
21:47:45:593,-0.003,-0.022,0.981,0.001,-0.002,-0.000,-0.425,0.284,-0.507,191.85,-0.370000
21:47:45:594,-0.004,-0.023,0.983,0.001,-0.001,-0.000,-0.425,0.284,-0.507,192.26,0.410000
21:47:45:594,-0.002,-0.024,0.982,0.001,-0.002,-0.001,-0.429,0.283,-0.515,192.58,0.320000
21:47:45:595,-0.003,-0.023,0.982,0.001,-0.002,-0.001,-0.430,0.284,-0.511,192.05,-0.530000
21:47:45:596,-0.004,-0.022,0.983,0.001,-0.002,-0.000,-0.427,0.280,-0.512,191.48,-0.570000
21:47:45:596,-0.002,-0.023,0.983,0.001,-0.001,-0.001,-0.429,0.283,-0.515,192.82,1.340000
21:47:45:597,-0.003,-0.022,0.981,0.000,-0.001,-0.000,-0.425,0.284,-0.517,191.99,-0.830000
21:47:45:598,-0.003,-0.023,0.982,0.000,-0.001,-0.000,-0.423,0.280,-0.515,190.95,-1.040000
21:47:45:598,-0.003,-0.024,0.982,0.001,-0.002,-0.001,-0.423,0.280,-0.508,191.84,0.890000
21:47:45:599,-0.004,-0.023,0.983,0.001,-0.002,-0.001,-0.425,0.280,-0.508,191.76,-0.080000
21:47:45:600,-0.002,-0.022,0.982,0.001,-0.002,-0.001,-0.429,0.276,-0.510,191.19,-0.570000
21:47:45:600,-0.002,-0.024,0.983,0.000,-0.002,-0.001,-0.426,0.281,-0.511,192.06,0.870000
21:47:45:601,-0.002,-0.024,0.983,0.000,-0.002,-0.001,-0.426,0.282,-0.509,191.59,-0.470000
21:47:45:602,-0.002,-0.023,0.982,0.001,-0.002,-0.001,-0.427,0.279,-0.505,192.10,0.510000
21:47:45:602,-0.002,-0.023,0.982,0.001,-0.002,-0.001,-0.428,0.280,-0.507,191.92,-0.180000
21:47:45:603,-0.003,-0.024,0.983,0.001,-0.002,-0.001,-0.428,0.282,-0.514,191.40,-0.520000
21:47:45:604,-0.003,-0.024,0.982,0.001,-0.001,-0.001,-0.425,0.282,-0.514,192.22,0.820000
21:47:45:605,-0.004,-0.023,0.980,0.001,-0.002,-0.001,-0.431,0.285,-0.515,192.15,-0.070000
21:47:45:605,-0.002,-0.023,0.981,0.000,-0.002,-0.001,-0.426,0.283,-0.514,192.25,0.100000
21:47:45:606,-0.002,-0.024,0.982,0.000,-0.002,-0.001,-0.430,0.280,-0.507,191.48,-0.770000
21:47:45:607,-0.003,-0.023,0.983,0.001,-0.002,-0.001,-0.429,0.283,-0.509,191.87,0.390000
21:47:45:607,-0.004,-0.023,0.982,0.001,-0.001,-0.001,-0.426,0.277,-0.508,191.80,-0.070000
21:47:45:608,-0.003,-0.023,0.982,0.001,-0.002,-0.001,-0.425,0.280,-0.512,192.44,0.640000
21:47:45:609,-0.003,-0.024,0.982,0.001,-0.002,-0.001,-0.425,0.280,-0.512,192.73,0.290000
21:47:45:609,-0.002,-0.023,0.981,0.001,-0.002,-0.001,-0.425,0.279,-0.502,192.21,-0.520000
21:47:45:610,-0.003,-0.023,0.982,0.001,-0.002,-0.001,-0.428,0.279,-0.507,192.02,-0.190000
21:47:45:611,-0.003,-0.022,0.984,0.001,-0.001,-0.001,-0.428,0.277,-0.514,191.88,-0.140000
21:47:45:611,-0.003,-0.024,0.983,0.001,-0.002,-0.001,-0.429,0.279,-0.508,191.77,-0.110000
21:47:45:612,-0.003,-0.022,0.982,0.001,-0.002,-0.001,-0.425,0.283,-0.505,192.10,0.330000
21:47:45:613,-0.003,-0.023,0.982,0.001,-0.002,-0.001,-0.425,0.276,-0.510,191.53,-0.570000
21:47:45:613,-0.002,-0.023,0.983,0.001,-0.002,-0.001,-0.425,0.276,-0.510,191.92,0.390000
21:47:45:614,-0.002,-0.024,0.981,0.001,-0.002,-0.001,-0.427,0.280,-0.510,191.55,-0.370000
21:47:45:615,-0.002,-0.024,0.982,0.001,-0.002,-0.001,-0.429,0.282,-0.506,191.28,-0.270000
21:47:45:615,-0.002,-0.023,0.982,0.000,-0.002,-0.001,-0.428,0.279,-0.510,191.69,0.410000
21:47:45:616,-0.002,-0.023,0.981,0.001,-0.002,-0.001,-0.429,0.280,-0.512,191.87,0.180000
21:47:45:617,-0.003,-0.023,0.982,0.001,-0.002,-0.001,-0.430,0.278,-0.508,191.74,-0.130000
21:47:45:617,-0.003,-0.023,0.982,0.001,-0.001,-0.000,-0.429,0.279,-0.512,192.67,0.930000
21:47:45:618,-0.003,-0.023,0.982,0.001,-0.002,-0.000,-0.429,0.279,-0.512,192.01,-0.660000
21:47:45:619,-0.002,-0.023,0.981,0.001,-0.002,-0.001,-0.432,0.279,-0.515,191.17,-0.840000
21:47:45:619,-0.002,-0.024,0.983,0.001,-0.001,-0.001,-0.432,0.281,-0.518,191.45,0.280000
21:47:45:620,-0.002,-0.023,0.982,0.001,-0.002,-0.001,-0.429,0.277,-0.514,191.77,0.320000
21:47:45:621,-0.003,-0.023,0.981,0.000,-0.002,-0.001,-0.431,0.282,-0.516,191.83,0.060000
21:47:45:621,-0.003,-0.023,0.982,0.001,-0.002,-0.001,-0.431,0.282,-0.513,191.09,-0.740000
21:47:45:622,-0.002,-0.024,0.983,0.001,-0.002,-0.001,-0.431,0.286,-0.514,191.60,0.510000
21:47:45:623,-0.001,-0.024,0.982,0.001,-0.001,-0.001,-0.431,0.286,-0.514,192.40,0.800000
21:47:45:623,-0.003,-0.023,0.983,0.000,-0.002,-0.001,-0.430,0.279,-0.514,191.52,-0.880000
21:47:45:624,-0.003,-0.024,0.982,0.001,-0.002,-0.001,-0.424,0.280,-0.515,191.60,0.080000
21:47:45:625,-0.002,-0.023,0.981,0.001,-0.002,-0.001,-0.427,0.281,-0.509,191.83,0.230000
21:47:45:625,-0.002,-0.025,0.981,0.001,-0.002,-0.001,-0.430,0.283,-0.520,191.76,-0.070000
21:47:45:626,-0.002,-0.022,0.984,0.001,-0.002,-0.000,-0.429,0.282,-0.514,191.31,-0.450000
21:47:45:627,-0.002,-0.023,0.982,0.001,-0.002,-0.001,-0.425,0.282,-0.515,191.79,0.480000
21:47:45:627,-0.002,-0.023,0.983,0.001,-0.002,-0.001,-0.425,0.282,-0.515,191.28,-0.510000
21:47:45:628,-0.003,-0.023,0.980,0.001,-0.002,-0.001,-0.423,0.282,-0.510,191.72,0.440000
21:47:45:629,-0.002,-0.023,0.981,0.001,-0.001,-0.001,-0.432,0.279,-0.516,191.27,-0.450000
21:47:45:629,-0.002,-0.023,0.982,0.001,-0.002,-0.001,-0.429,0.280,-0.510,192.28,1.010000
21:47:45:630,-0.002,-0.023,0.981,0.001,-0.002,-0.000,-0.428,0.284,-0.508,192.13,-0.150000
21:47:45:631,-0.003,-0.022,0.982,0.001,-0.002,-0.000,-0.429,0.284,-0.507,191.17,-0.960000
21:47:45:631,-0.003,-0.022,0.983,0.001,-0.002,-0.001,-0.430,0.281,-0.513,192.37,1.200000
21:47:45:632,-0.003,-0.024,0.982,0.001,-0.001,-0.001,-0.430,0.281,-0.513,192.34,-0.030000
21:47:45:633,-0.002,-0.022,0.982,0.001,-0.001,-0.001,-0.430,0.280,-0.512,192.55,0.210000
21:47:45:633,-0.003,-0.022,0.983,0.001,-0.002,-0.001,-0.429,0.279,-0.515,192.25,-0.300000
21:47:45:634,-0.003,-0.024,0.984,0.001,-0.002,-0.001,-0.429,0.277,-0.514,191.76,-0.490000
21:47:45:635,-0.002,-0.024,0.982,0.001,-0.002,-0.001,-0.425,0.280,-0.514,191.43,-0.330000
21:47:45:635,-0.003,-0.024,0.981,0.001,-0.002,-0.001,-0.431,0.276,-0.508,191.63,0.200000
21:47:45:636,-0.001,-0.022,0.983,0.001,-0.002,-0.001,-0.435,0.277,-0.512,192.39,0.760000
21:47:45:637,-0.002,-0.023,0.982,0.001,-0.002,-0.000,-0.435,0.277,-0.512,192.24,-0.150000
21:47:45:637,-0.003,-0.022,0.983,0.001,-0.001,-0.001,-0.431,0.278,-0.514,191.93,-0.310000
21:47:45:638,-0.003,-0.023,0.982,0.000,-0.002,-0.001,-0.430,0.278,-0.510,191.45,-0.480000
21:47:45:639,-0.002,-0.023,0.982,0.001,-0.002,-0.001,-0.427,0.278,-0.515,191.87,0.420000
21:47:45:639,-0.001,-0.023,0.981,0.001,-0.002,-0.000,-0.436,0.283,-0.515,191.94,0.070000
21:47:45:640,-0.002,-0.023,0.983,0.001,-0.002,-0.001,-0.432,0.280,-0.508,192.07,0.130000
21:47:45:641,-0.002,-0.024,0.982,0.000,-0.002,-0.001,-0.432,0.279,-0.505,191.81,-0.260000
21:47:45:641,-0.003,-0.024,0.982,0.001,-0.002,-0.001,-0.432,0.279,-0.510,192.00,0.190000
21:47:45:642,-0.002,-0.024,0.982,0.001,-0.002,-0.001,-0.430,0.277,-0.510,191.87,-0.130000
21:47:45:643,-0.001,-0.024,0.983,0.001,-0.002,-0.001,-0.432,0.278,-0.509,191.56,-0.310000
21:47:45:643,-0.002,-0.023,0.981,0.001,-0.001,-0.001,-0.437,0.276,-0.508,191.06,-0.500000
21:47:45:644,-0.003,-0.023,0.983,0.001,-0.001,-0.001,-0.433,0.279,-0.512,190.76,-0.300000
21:47:45:645,-0.002,-0.022,0.983,0.000,-0.001,-0.001,-0.427,0.274,-0.513,191.63,0.870000
21:47:45:645,-0.003,-0.022,0.982,0.001,-0.001,-0.000,-0.432,0.279,-0.510,190.94,-0.690000
21:47:45:646,-0.002,-0.023,0.982,0.001,-0.001,-0.001,-0.433,0.281,-0.516,192.33,1.390000
21:47:45:647,-0.003,-0.024,0.982,0.001,-0.002,-0.001,-0.433,0.281,-0.516,191.82,-0.510000
21:47:45:647,-0.002,-0.023,0.982,0.001,-0.002,-0.001,-0.430,0.278,-0.510,192.28,0.460000
21:47:45:648,-0.002,-0.023,0.980,0.001,-0.002,-0.000,-0.435,0.277,-0.509,191.87,-0.410000
21:47:45:649,-0.003,-0.024,0.984,0.001,-0.001,-0.001,-0.430,0.281,-0.513,191.88,0.010000
21:47:45:649,-0.002,-0.023,0.982,0.001,-0.001,-0.001,-0.437,0.276,-0.515,191.99,0.110000
21:47:45:650,-0.002,-0.023,0.981,0.001,-0.002,-0.001,-0.428,0.280,-0.508,191.65,-0.340000
21:47:45:651,-0.003,-0.023,0.981,0.001,-0.002,-0.001,-0.434,0.282,-0.509,191.69,0.040000
21:47:45:651,-0.003,-0.023,0.983,0.000,-0.001,-0.001,-0.434,0.282,-0.509,191.24,-0.450000
21:47:45:652,-0.003,-0.023,0.981,0.001,-0.002,-0.001,-0.435,0.279,-0.511,191.78,0.540000
21:47:45:653,-0.002,-0.023,0.984,0.001,-0.001,-0.001,-0.435,0.279,-0.513,192.27,0.490000
21:47:45:653,-0.003,-0.023,0.983,0.001,-0.002,-0.001,-0.431,0.280,-0.509,191.65,-0.620000
21:47:45:654,-0.002,-0.024,0.982,0.001,-0.002,-0.001,-0.432,0.283,-0.503,191.96,0.310000
21:47:45:655,-0.002,-0.023,0.981,0.001,-0.002,-0.001,-0.432,0.282,-0.514,191.75,-0.210000
21:47:45:655,-0.002,-0.023,0.982,0.001,-0.002,-0.001,-0.431,0.277,-0.509,191.34,-0.410000
21:47:45:656,-0.003,-0.024,0.983,0.001,-0.001,-0.001,-0.431,0.277,-0.509,191.88,0.540000
21:47:45:657,-0.002,-0.022,0.981,0.001,-0.002,-0.001,-0.433,0.280,-0.514,191.97,0.090000
21:47:45:657,-0.003,-0.022,0.982,0.001,-0.002,-0.001,-0.433,0.276,-0.512,192.04,0.070000
21:47:45:658,-0.002,-0.023,0.983,0.001,-0.002,-0.000,-0.430,0.274,-0.510,191.20,-0.840000
21:47:45:659,-0.004,-0.023,0.980,0.001,-0.002,-0.001,-0.430,0.274,-0.514,191.02,-0.180000
21:47:45:660,-0.001,-0.023,0.981,0.001,-0.002,-0.001,-0.429,0.274,-0.510,191.47,0.450000
21:47:45:660,-0.004,-0.024,0.980,0.001,-0.001,-0.001,-0.433,0.278,-0.514,191.78,0.310000
21:47:45:661,-0.002,-0.023,0.981,0.001,-0.002,-0.001,-0.433,0.278,-0.514,191.63,-0.150000
21:47:45:662,-0.002,-0.023,0.981,0.001,-0.002,-0.001,-0.429,0.279,-0.502,191.43,-0.200000
21:47:45:662,-0.002,-0.023,0.983,0.000,-0.002,-0.000,-0.430,0.279,-0.510,191.76,0.330000
21:47:45:663,-0.003,-0.024,0.982,0.000,-0.002,-0.000,-0.430,0.276,-0.509,191.25,-0.510000
21:47:45:664,-0.003,-0.022,0.980,0.001,-0.002,-0.001,-0.432,0.278,-0.510,190.99,-0.260000
21:47:45:664,-0.004,-0.024,0.982,0.001,-0.001,-0.000,-0.428,0.280,-0.513,191.69,0.700000
21:47:45:665,-0.002,-0.023,0.981,0.001,-0.002,-0.001,-0.426,0.278,-0.514,191.99,0.300000
21:47:45:666,-0.003,-0.023,0.982,0.001,-0.001,-0.001,-0.426,0.278,-0.514,192.05,0.060000
21:47:45:666,-0.002,-0.023,0.981,0.001,-0.001,-0.001,-0.431,0.274,-0.505,191.88,-0.170000
21:47:45:667,-0.001,-0.022,0.981,0.001,-0.002,-0.001,-0.431,0.280,-0.511,192.01,0.130000
21:47:45:668,-0.003,-0.022,0.982,0.001,-0.002,-0.001,-0.426,0.278,-0.511,191.38,-0.630000
21:47:45:668,-0.002,-0.024,0.981,0.001,-0.001,-0.000,-0.433,0.278,-0.508,192.37,0.990000
21:47:45:669,-0.002,-0.023,0.981,0.001,-0.002,-0.001,-0.435,0.277,-0.509,192.00,-0.370000
21:47:45:670,-0.003,-0.023,0.984,0.001,-0.002,-0.001,-0.434,0.278,-0.509,192.32,0.320000
21:47:45:670,-0.002,-0.024,0.983,0.001,-0.002,-0.001,-0.434,0.278,-0.509,192.14,-0.180000
21:47:45:671,-0.001,-0.022,0.980,0.001,-0.001,-0.001,-0.434,0.278,-0.505,191.46,-0.680000
21:47:45:672,-0.001,-0.023,0.980,0.000,-0.001,-0.001,-0.431,0.274,-0.501,191.53,0.070000
21:47:45:672,-0.002,-0.023,0.984,0.000,-0.002,-0.001,-0.432,0.276,-0.507,191.33,-0.200000
21:47:45:673,-0.003,-0.024,0.988,0.001,-0.002,-0.001,-0.435,0.278,-0.507,191.86,0.530000
21:47:45:674,-0.003,-0.023,0.985,0.001,-0.002,-0.001,-0.430,0.279,-0.506,192.02,0.160000
21:47:45:674,-0.003,-0.024,0.980,0.001,-0.002,-0.000,-0.433,0.277,-0.511,191.44,-0.580000
21:47:45:675,-0.003,-0.024,0.980,0.001,-0.002,-0.000,-0.433,0.277,-0.511,192.20,0.760000
21:47:45:676,-0.002,-0.021,0.979,0.000,-0.002,-0.001,-0.433,0.277,-0.514,191.40,-0.800000
21:47:45:676,-0.001,-0.024,0.982,0.000,-0.002,-0.001,-0.436,0.276,-0.513,191.63,0.230000
21:47:45:677,-0.002,-0.025,0.989,0.000,-0.001,-0.001,-0.433,0.275,-0.511,192.07,0.440000
21:47:45:678,-0.002,-0.021,0.973,0.001,-0.002,-0.001,-0.434,0.280,-0.512,191.74,-0.330000
21:47:45:678,-0.003,-0.024,0.997,0.000,-0.001,-0.001,-0.434,0.278,-0.507,191.83,0.090000
21:47:45:679,-0.004,-0.023,0.985,0.001,-0.002,-0.001,-0.430,0.273,-0.509,191.74,-0.090000
21:47:45:680,-0.002,-0.024,0.984,0.000,-0.001,-0.001,-0.430,0.273,-0.509,191.88,0.140000
21:47:45:680,-0.004,-0.023,0.980,0.001,-0.002,-0.001,-0.431,0.280,-0.507,192.20,0.320000
21:47:45:681,-0.002,-0.024,0.986,0.001,-0.002,-0.001,-0.431,0.277,-0.510,191.33,-0.870000
21:47:45:682,-0.003,-0.023,0.981,0.001,-0.002,-0.000,-0.435,0.273,-0.508,191.69,0.360000
21:47:45:682,-0.001,-0.023,0.980,0.001,-0.002,-0.001,-0.430,0.276,-0.512,191.80,0.110000
21:47:45:683,-0.003,-0.024,0.986,0.000,-0.002,-0.001,-0.427,0.277,-0.512,191.89,0.090000
21:47:45:684,-0.003,-0.023,0.976,0.001,-0.002,-0.001,-0.428,0.277,-0.510,191.67,-0.220000
21:47:45:684,-0.003,-0.024,0.974,0.001,-0.001,-0.001,-0.428,0.277,-0.510,191.72,0.050000
21:47:45:685,-0.003,-0.023,0.985,0.000,-0.001,-0.001,-0.429,0.278,-0.510,192.64,0.920000
21:47:45:686,-0.004,-0.023,0.986,0.001,-0.002,-0.001,-0.431,0.277,-0.504,191.63,-1.010000
21:47:45:686,-0.003,-0.022,0.983,0.001,-0.002,-0.001,-0.432,0.278,-0.509,191.48,-0.150000
21:47:45:687,-0.002,-0.025,0.980,0.001,-0.001,-0.001,-0.432,0.277,-0.510,192.22,0.740000
21:47:45:688,-0.003,-0.023,0.986,0.001,-0.002,-0.001,-0.432,0.279,-0.507,192.56,0.340000
21:47:45:688,-0.004,-0.023,0.979,0.002,-0.002,-0.001,-0.433,0.277,-0.506,191.71,-0.850000
21:47:45:689,-0.001,-0.022,0.976,0.001,-0.001,-0.001,-0.431,0.275,-0.510,192.32,0.610000
21:47:45:690,-0.002,-0.023,0.982,0.001,-0.001,-0.001,-0.431,0.275,-0.510,191.66,-0.660000
21:47:45:690,-0.003,-0.023,0.985,0.001,-0.001,-0.000,-0.431,0.278,-0.501,191.82,0.160000
21:47:45:691,-0.002,-0.023,0.983,0.001,-0.001,-0.001,-0.430,0.275,-0.505,191.46,-0.360000
21:47:45:692,-0.003,-0.023,0.986,0.000,-0.001,-0.001,-0.430,0.279,-0.512,191.90,0.440000
21:47:45:692,-0.004,-0.024,0.990,0.001,-0.001,-0.000,-0.433,0.279,-0.508,192.11,0.210000
21:47:45:693,-0.002,-0.021,0.967,0.002,-0.002,-0.001,-0.431,0.280,-0.507,192.22,0.110000
21:47:45:694,-0.002,-0.023,0.984,0.000,-0.001,-0.001,-0.432,0.279,-0.506,192.31,0.090000
21:47:45:694,-0.004,-0.023,0.987,0.001,-0.001,-0.001,-0.432,0.279,-0.506,191.54,-0.770000
21:47:45:695,-0.002,-0.022,0.985,0.000,-0.001,-0.001,-0.433,0.281,-0.505,191.81,0.270000
21:47:45:696,-0.003,-0.023,0.982,0.000,-0.001,-0.001,-0.432,0.278,-0.509,191.83,0.020000
21:47:45:696,-0.003,-0.024,0.986,0.001,-0.002,-0.001,-0.431,0.277,-0.514,191.95,0.120000
21:47:45:697,-0.004,-0.023,0.980,0.001,-0.002,-0.001,-0.430,0.277,-0.507,191.61,-0.340000
21:47:45:698,-0.001,-0.022,0.978,0.001,-0.002,-0.001,-0.428,0.280,-0.513,191.96,0.350000
21:47:45:698,-0.003,-0.024,0.985,0.001,-0.001,-0.001,-0.430,0.275,-0.511,191.21,-0.750000
21:47:45:699,-0.002,-0.024,0.989,0.001,-0.001,-0.001,-0.430,0.275,-0.511,191.50,0.290000
21:47:45:700,-0.001,-0.023,0.974,0.001,-0.002,-0.001,-0.429,0.277,-0.508,192.03,0.530000
21:47:45:700,-0.001,-0.025,0.981,0.000,-0.001,-0.001,-0.425,0.279,-0.519,191.41,-0.620000
21:47:45:701,-0.003,-0.023,0.988,0.000,-0.002,-0.001,-0.431,0.279,-0.511,191.86,0.450000
21:47:45:702,-0.003,-0.023,0.982,0.001,-0.002,-0.001,-0.424,0.281,-0.516,191.64,-0.220000
21:47:45:702,-0.004,-0.023,0.981,0.001,-0.002,-0.001,-0.429,0.281,-0.508,192.39,0.750000
21:47:45:703,-0.003,-0.024,0.985,0.000,-0.002,-0.001,-0.432,0.285,-0.508,192.55,0.160000
21:47:45:704,-0.002,-0.023,0.982,0.001,-0.002,-0.001,-0.432,0.285,-0.508,191.62,-0.930000
21:47:45:704,-0.002,-0.023,0.980,0.001,-0.001,-0.001,-0.431,0.280,-0.512,191.71,0.090000
21:47:45:705,-0.003,-0.024,0.983,0.000,-0.002,-0.001,-0.432,0.277,-0.502,191.57,-0.140000
21:47:45:706,-0.001,-0.023,0.984,0.001,-0.002,-0.001,-0.430,0.282,-0.503,191.99,0.420000
21:47:45:706,-0.002,-0.024,0.984,0.001,-0.002,-0.001,-0.433,0.282,-0.514,192.02,0.030000
21:47:45:707,-0.003,-0.023,0.979,0.001,-0.002,-0.001,-0.432,0.280,-0.508,191.71,-0.310000
21:47:45:708,-0.002,-0.023,0.984,0.001,-0.001,-0.001,-0.434,0.282,-0.510,192.07,0.360000
21:47:45:708,-0.001,-0.022,0.975,0.001,-0.002,-0.001,-0.434,0.282,-0.510,192.02,-0.050000
21:47:45:709,-0.003,-0.023,0.987,-0.000,-0.001,-0.001,-0.432,0.281,-0.508,191.90,-0.120000
21:47:45:710,-0.006,-0.024,0.996,0.000,-0.002,-0.001,-0.435,0.280,-0.507,192.03,0.130000
21:47:45:710,-0.003,-0.022,0.976,0.000,-0.002,-0.000,-0.435,0.279,-0.511,192.00,-0.030000
21:47:45:711,-0.003,-0.024,0.989,0.000,-0.002,-0.001,-0.431,0.280,-0.518,192.11,0.110000
21:47:45:712,-0.002,-0.024,0.987,0.001,-0.002,-0.001,-0.432,0.282,-0.511,191.83,-0.280000
21:47:45:712,-0.003,-0.022,0.979,0.002,-0.002,-0.001,-0.431,0.283,-0.515,191.67,-0.160000
21:47:45:713,-0.001,-0.023,0.973,0.001,-0.002,-0.001,-0.431,0.283,-0.515,191.75,0.080000
21:47:45:714,-0.002,-0.024,0.988,0.000,-0.001,-0.001,-0.433,0.282,-0.511,192.02,0.270000
21:47:45:714,-0.003,-0.024,0.981,0.001,-0.002,-0.001,-0.433,0.280,-0.508,191.45,-0.570000
21:47:45:715,-0.003,-0.023,0.976,0.001,-0.002,-0.001,-0.429,0.278,-0.507,191.69,0.240000
21:47:45:716,-0.003,-0.024,0.988,0.001,-0.001,-0.000,-0.427,0.281,-0.512,191.76,0.070000
21:47:45:716,-0.003,-0.024,0.984,0.001,-0.002,-0.001,-0.435,0.279,-0.514,191.70,-0.060000
21:47:45:717,-0.002,-0.022,0.979,0.001,-0.002,-0.001,-0.432,0.279,-0.515,191.71,0.010000
21:47:45:718,-0.002,-0.023,0.980,0.001,-0.001,-0.001,-0.432,0.279,-0.515,192.65,0.940000
21:47:45:718,-0.003,-0.024,0.987,0.000,-0.001,-0.001,-0.433,0.281,-0.507,191.22,-1.430000
21:47:45:719,-0.003,-0.023,0.979,0.001,-0.002,-0.001,-0.430,0.278,-0.516,191.68,0.460000
21:47:45:720,-0.002,-0.024,0.980,0.001,-0.002,-0.001,-0.430,0.277,-0.516,191.96,0.280000
21:47:45:720,-0.003,-0.023,0.984,0.001,-0.002,-0.001,-0.431,0.278,-0.511,191.86,-0.100000
21:47:45:721,-0.002,-0.023,0.986,0.001,-0.002,-0.000,-0.434,0.282,-0.516,192.50,0.640000
21:47:45:722,-0.003,-0.024,0.981,0.001,-0.002,-0.001,-0.432,0.279,-0.514,191.87,-0.630000
21:47:45:722,-0.003,-0.023,0.984,0.000,-0.001,-0.000,-0.432,0.279,-0.514,192.11,0.240000
21:47:45:723,-0.003,-0.023,0.984,0.000,-0.002,-0.000,-0.430,0.277,-0.514,191.85,-0.260000
21:47:45:724,-0.002,-0.024,0.981,0.001,-0.002,-0.001,-0.433,0.281,-0.513,192.06,0.210000
21:47:45:724,-0.002,-0.023,0.981,0.001,-0.002,-0.001,-0.431,0.280,-0.509,191.37,-0.690000
21:47:45:725,-0.002,-0.022,0.984,0.001,-0.002,-0.001,-0.429,0.279,-0.509,192.90,1.530000
21:47:45:726,-0.003,-0.023,0.979,0.001,-0.002,-0.000,-0.431,0.278,-0.518,192.29,-0.610000
21:47:45:726,-0.001,-0.023,0.979,0.001,-0.002,-0.000,-0.433,0.273,-0.509,192.35,0.060000
21:47:45:727,-0.002,-0.024,0.984,0.000,-0.002,-0.000,-0.433,0.277,-0.512,191.92,-0.430000
21:47:45:728,-0.004,-0.024,0.984,0.001,-0.001,-0.001,-0.435,0.277,-0.512,192.50,0.580000
21:47:45:728,-0.003,-0.023,0.981,0.001,-0.001,-0.001,-0.431,0.276,-0.508,192.28,-0.220000
21:47:45:729,-0.002,-0.022,0.981,0.001,-0.001,-0.001,-0.432,0.278,-0.510,191.62,-0.660000
21:47:45:730,-0.001,-0.023,0.980,0.001,-0.002,-0.001,-0.433,0.279,-0.503,191.85,0.230000
21:47:45:730,-0.003,-0.024,0.983,0.001,-0.002,-0.001,-0.433,0.276,-0.511,192.00,0.150000
21:47:45:731,-0.004,-0.023,0.982,0.001,-0.002,-0.001,-0.434,0.274,-0.514,191.94,-0.060000
21:47:45:732,-0.003,-0.023,0.979,0.001,-0.002,-0.001,-0.434,0.280,-0.502,192.29,0.350000
21:47:45:732,-0.003,-0.023,0.982,0.001,-0.001,-0.001,-0.434,0.280,-0.502,191.47,-0.820000
21:47:45:733,-0.002,-0.023,0.981,0.001,-0.002,-0.001,-0.435,0.279,-0.505,191.52,0.050000
21:47:45:734,-0.002,-0.023,0.977,0.001,-0.002,-0.001,-0.430,0.276,-0.506,192.44,0.920000
21:47:45:734,-0.003,-0.023,0.983,0.001,-0.002,-0.001,-0.436,0.277,-0.504,192.28,-0.160000
21:47:45:735,-0.002,-0.024,0.985,0.001,-0.001,-0.001,-0.435,0.283,-0.504,192.27,-0.010000
21:47:45:736,-0.003,-0.023,0.981,0.001,-0.001,-0.001,-0.435,0.278,-0.506,191.82,-0.450000
21:47:45:736,-0.002,-0.024,0.982,0.001,-0.002,-0.001,-0.431,0.280,-0.506,192.10,0.280000
21:47:45:737,-0.003,-0.022,0.978,0.001,-0.002,-0.001,-0.431,0.280,-0.506,191.94,-0.160000
21:47:45:738,-0.002,-0.022,0.981,0.001,-0.001,-0.001,-0.431,0.284,-0.509,192.48,0.540000
21:47:45:738,-0.003,-0.024,0.981,0.001,-0.002,-0.001,-0.435,0.280,-0.508,192.17,-0.310000
21:47:45:739,-0.003,-0.023,0.982,0.001,-0.002,-0.001,-0.434,0.279,-0.517,191.40,-0.770000
21:47:45:740,-0.001,-0.023,0.982,0.001,-0.001,-0.001,-0.431,0.279,-0.508,191.28,-0.120000
21:47:45:740,-0.003,-0.023,0.984,0.001,-0.002,-0.001,-0.435,0.276,-0.514,192.43,1.150000
21:47:45:741,-0.002,-0.023,0.982,0.000,-0.002,-0.000,-0.435,0.280,-0.510,192.46,0.030000
21:47:45:742,-0.001,-0.022,0.983,0.000,-0.002,-0.000,-0.435,0.280,-0.510,191.48,-0.980000
21:47:45:742,-0.002,-0.024,0.983,0.001,-0.002,-0.000,-0.433,0.280,-0.517,191.90,0.420000
21:47:45:743,-0.003,-0.023,0.981,0.001,-0.002,-0.001,-0.432,0.279,-0.516,192.00,0.100000
21:47:45:744,-0.003,-0.023,0.982,0.001,-0.002,-0.001,-0.431,0.279,-0.508,191.21,-0.790000
21:47:45:744,-0.002,-0.023,0.983,0.001,-0.002,-0.001,-0.430,0.274,-0.510,191.75,0.540000
21:47:45:745,-0.002,-0.023,0.982,0.001,-0.001,-0.001,-0.430,0.277,-0.510,192.15,0.400000
21:47:45:746,-0.002,-0.024,0.982,0.001,-0.001,-0.001,-0.436,0.272,-0.514,191.77,-0.380000
21:47:45:746,-0.002,-0.023,0.981,0.001,-0.002,-0.001,-0.436,0.272,-0.514,191.60,-0.170000
21:47:45:747,-0.002,-0.023,0.982,0.001,-0.001,-0.001,-0.432,0.276,-0.520,191.14,-0.460000
21:47:45:748,-0.002,-0.023,0.983,0.001,-0.002,-0.000,-0.435,0.275,-0.515,191.86,0.720000
21:47:45:748,-0.003,-0.023,0.983,0.001,-0.002,-0.001,-0.432,0.276,-0.519,191.96,0.100000
21:47:45:749,-0.002,-0.023,0.982,0.000,-0.002,-0.001,-0.434,0.277,-0.510,191.71,-0.250000
21:47:45:750,-0.003,-0.024,0.981,0.000,-0.002,-0.001,-0.431,0.273,-0.513,191.12,-0.590000
21:47:45:751,-0.002,-0.023,0.981,0.001,-0.002,-0.001,-0.429,0.274,-0.517,191.93,0.810000
21:47:45:751,-0.003,-0.023,0.981,0.001,-0.002,-0.001,-0.429,0.274,-0.517,192.10,0.170000
21:47:45:752,-0.003,-0.023,0.983,0.001,-0.002,-0.001,-0.428,0.276,-0.506,191.73,-0.370000
21:47:45:752,-0.003,-0.023,0.982,0.001,-0.001,-0.000,-0.431,0.279,-0.511,192.26,0.530000
21:47:45:753,-0.003,-0.023,0.982,0.001,-0.002,-0.000,-0.432,0.278,-0.514,191.87,-0.390000
21:47:45:754,-0.004,-0.024,0.982,0.001,-0.001,-0.001,-0.430,0.277,-0.503,191.92,0.050000
21:47:45:754,-0.003,-0.023,0.982,0.001,-0.001,-0.001,-0.427,0.273,-0.512,191.87,-0.050000
21:47:45:755,-0.003,-0.023,0.983,0.001,-0.001,-0.001,-0.425,0.279,-0.511,192.30,0.430000
21:47:45:756,-0.002,-0.023,0.983,0.001,-0.002,-0.000,-0.425,0.279,-0.511,191.57,-0.730000
21:47:45:756,-0.004,-0.024,0.982,0.001,-0.002,-0.001,-0.424,0.272,-0.509,191.95,0.380000
21:47:45:757,-0.003,-0.023,0.983,0.001,-0.002,-0.001,-0.429,0.274,-0.511,191.68,-0.270000
21:47:45:758,-0.002,-0.024,0.982,0.001,-0.002,-0.001,-0.431,0.277,-0.515,192.12,0.440000
21:47:45:759,-0.003,-0.023,0.980,0.001,-0.001,-0.001,-0.427,0.274,-0.508,191.99,-0.130000
21:47:45:759,-0.003,-0.023,0.981,0.001,-0.001,-0.001,-0.430,0.274,-0.514,191.84,-0.150000
21:47:45:760,-0.003,-0.022,0.981,0.001,-0.002,-0.001,-0.426,0.274,-0.507,191.71,-0.130000
21:47:45:761,-0.002,-0.024,0.983,0.001,-0.002,-0.001,-0.426,0.274,-0.507,192.17,0.460000
21:47:45:761,-0.002,-0.023,0.981,0.001,-0.001,-0.001,-0.425,0.274,-0.514,192.68,0.510000
21:47:45:762,-0.002,-0.023,0.981,0.001,-0.002,-0.001,-0.425,0.277,-0.508,191.65,-1.030000
21:47:45:763,-0.004,-0.024,0.982,0.001,-0.002,-0.001,-0.431,0.276,-0.510,191.93,0.280000
21:47:45:763,-0.002,-0.023,0.983,0.001,-0.002,-0.001,-0.433,0.277,-0.515,192.28,0.350000
21:47:45:764,-0.003,-0.024,0.981,0.001,-0.001,-0.001,-0.433,0.280,-0.514,191.61,-0.670000
21:47:45:765,-0.003,-0.024,0.982,0.000,-0.002,-0.001,-0.431,0.275,-0.511,191.87,0.260000
21:47:45:765,-0.003,-0.024,0.981,0.000,-0.002,-0.001,-0.431,0.275,-0.513,191.77,-0.100000
21:47:45:766,-0.003,-0.024,0.981,0.000,-0.001,-0.001,-0.430,0.274,-0.513,191.49,-0.280000
21:47:45:767,-0.002,-0.024,0.982,0.001,-0.002,-0.001,-0.431,0.276,-0.511,192.02,0.530000
21:47:45:767,-0.003,-0.023,0.984,0.001,-0.002,-0.000,-0.428,0.276,-0.515,191.82,-0.200000
21:47:45:768,-0.002,-0.022,0.982,0.000,-0.002,-0.001,-0.430,0.275,-0.511,192.25,0.430000
21:47:45:769,-0.002,-0.023,0.982,0.000,-0.002,-0.001,-0.433,0.276,-0.510,192.27,0.020000
21:47:45:769,-0.003,-0.024,0.984,0.001,-0.001,-0.000,-0.432,0.281,-0.513,191.94,-0.330000
21:47:45:770,-0.003,-0.023,0.983,0.001,-0.002,-0.001,-0.432,0.280,-0.520,192.18,0.240000
21:47:45:771,-0.004,-0.022,0.981,0.001,-0.002,-0.001,-0.431,0.280,-0.520,191.92,-0.260000
21:47:45:771,-0.002,-0.022,0.980,0.001,-0.001,-0.001,-0.429,0.278,-0.514,191.38,-0.540000
21:47:45:772,-0.002,-0.023,0.982,0.001,-0.001,-0.001,-0.427,0.274,-0.513,192.24,0.860000
21:47:45:773,-0.001,-0.022,0.980,0.001,-0.001,-0.001,-0.425,0.276,-0.510,191.74,-0.500000
21:47:45:773,-0.002,-0.024,0.982,0.001,-0.002,-0.001,-0.421,0.279,-0.512,191.65,-0.090000
21:47:45:774,-0.001,-0.024,0.984,0.001,-0.002,-0.001,-0.425,0.281,-0.514,192.12,0.470000
21:47:45:775,-0.003,-0.024,0.984,0.000,-0.002,-0.001,-0.426,0.277,-0.512,191.96,-0.160000
21:47:45:775,-0.003,-0.022,0.983,0.001,-0.002,-0.001,-0.426,0.277,-0.512,191.68,-0.280000
21:47:45:776,-0.002,-0.021,0.980,0.001,-0.001,-0.001,-0.431,0.277,-0.508,191.24,-0.440000
21:47:45:777,-0.001,-0.023,0.982,0.001,-0.002,-0.001,-0.430,0.274,-0.510,191.85,0.610000
21:47:45:777,-0.002,-0.022,0.982,0.001,-0.002,-0.001,-0.427,0.280,-0.506,191.84,-0.010000
21:47:45:778,-0.003,-0.023,0.982,0.001,-0.001,-0.000,-0.428,0.279,-0.503,191.99,0.150000
21:47:45:779,-0.003,-0.023,0.983,0.001,-0.001,-0.001,-0.432,0.277,-0.510,192.01,0.020000
21:47:45:779,-0.001,-0.023,0.983,0.001,-0.002,-0.001,-0.428,0.273,-0.504,191.10,-0.910000
21:47:45:780,-0.003,-0.023,0.982,0.001,-0.002,-0.001,-0.428,0.273,-0.504,192.25,1.150000
21:47:45:781,-0.003,-0.023,0.981,0.001,-0.001,-0.001,-0.431,0.274,-0.512,191.82,-0.430000
21:47:45:781,-0.003,-0.023,0.981,0.001,-0.002,-0.001,-0.432,0.277,-0.513,191.79,-0.030000
21:47:45:782,-0.004,-0.023,0.981,0.000,-0.001,-0.001,-0.429,0.277,-0.512,191.94,0.150000
21:47:45:783,-0.003,-0.024,0.984,0.000,-0.002,-0.001,-0.427,0.277,-0.511,191.17,-0.770000
21:47:45:783,-0.002,-0.022,0.983,0.001,-0.002,-0.001,-0.426,0.275,-0.512,191.75,0.580000
21:47:45:784,-0.002,-0.023,0.981,0.000,-0.001,-0.001,-0.426,0.280,-0.508,191.61,-0.140000
21:47:45:785,-0.002,-0.023,0.982,0.001,-0.002,-0.001,-0.426,0.280,-0.508,191.84,0.230000
21:47:45:785,-0.003,-0.023,0.982,0.001,-0.002,-0.001,-0.425,0.277,-0.506,191.78,-0.060000
21:47:45:786,-0.003,-0.024,0.983,0.001,-0.001,-0.001,-0.425,0.272,-0.509,191.41,-0.370000
21:47:45:787,-0.003,-0.024,0.983,0.001,-0.002,-0.001,-0.428,0.274,-0.512,192.32,0.910000
21:47:45:787,-0.004,-0.022,0.983,0.001,-0.002,-0.001,-0.430,0.279,-0.508,192.01,-0.310000
21:47:45:788,-0.003,-0.024,0.983,0.001,-0.002,-0.001,-0.428,0.279,-0.512,192.14,0.130000
21:47:45:789,-0.002,-0.024,0.982,0.001,-0.002,-0.001,-0.429,0.281,-0.509,192.44,0.300000
21:47:45:789,-0.003,-0.021,0.981,0.001,-0.002,-0.001,-0.429,0.281,-0.509,191.68,-0.760000
21:47:45:790,-0.003,-0.022,0.983,0.001,-0.001,-0.001,-0.425,0.283,-0.511,191.62,-0.060000
21:47:45:791,-0.003,-0.024,0.982,0.001,-0.002,-0.001,-0.426,0.278,-0.501,192.00,0.380000
21:47:45:791,-0.003,-0.023,0.980,0.000,-0.002,-0.001,-0.428,0.281,-0.510,191.57,-0.430000
21:47:45:792,-0.002,-0.023,0.966,-0.000,-0.001,-0.001,-0.429,0.283,-0.508,191.96,0.390000
21:47:45:793,-0.004,-0.026,1.016,-0.001,-0.001,-0.001,-0.427,0.280,-0.511,191.62,-0.340000
21:47:45:793,-0.005,-0.024,0.993,0.003,-0.002,-0.001,-0.431,0.282,-0.504,191.81,0.190000
21:47:45:794,-0.000,-0.021,0.946,0.004,-0.003,-0.001,-0.431,0.282,-0.504,191.52,-0.290000
21:47:45:795,-0.002,-0.023,0.973,-0.001,-0.001,-0.001,-0.428,0.282,-0.512,191.77,0.250000
21:47:45:796,-0.003,-0.025,0.991,0.002,-0.002,-0.001,-0.428,0.282,-0.523,192.01,0.240000
21:47:45:796,-0.003,-0.022,0.966,0.002,-0.002,-0.001,-0.425,0.285,-0.513,191.20,-0.810000
21:47:45:797,-0.002,-0.023,0.970,0.000,-0.001,-0.001,-0.423,0.284,-0.506,191.74,0.540000
21:47:45:798,-0.004,-0.026,1.000,-0.001,-0.001,-0.000,-0.423,0.280,-0.517,191.69,-0.050000
21:47:45:798,-0.003,-0.025,0.991,0.002,-0.002,-0.001,-0.427,0.280,-0.512,191.41,-0.280000
21:47:45:799,-0.002,-0.023,0.964,0.000,-0.001,-0.001,-0.427,0.280,-0.512,191.99,0.580000
21:47:45:800,-0.003,-0.024,0.992,-0.000,-0.001,-0.001,-0.428,0.275,-0.513,192.13,0.140000
21:47:45:800,-0.003,-0.024,0.991,0.001,-0.002,-0.001,-0.426,0.278,-0.515,192.12,-0.010000
21:47:45:801,-0.001,-0.022,0.971,0.002,-0.002,-0.000,-0.424,0.279,-0.509,191.91,-0.210000
21:47:45:802,-0.002,-0.022,0.972,0.000,-0.002,-0.000,-0.421,0.280,-0.508,191.69,-0.220000
21:47:45:802,-0.004,-0.025,0.991,-0.001,-0.001,-0.001,-0.424,0.281,-0.506,191.89,0.200000
21:47:45:803,-0.004,-0.024,0.990,0.002,-0.002,-0.001,-0.420,0.280,-0.509,192.59,0.700000
21:47:45:804,-0.002,-0.023,0.972,0.001,-0.001,-0.001,-0.420,0.280,-0.509,191.40,-1.190000
21:47:45:804,-0.003,-0.023,0.987,0.000,-0.001,-0.001,-0.427,0.276,-0.505,191.30,-0.100000
21:47:45:805,-0.005,-0.023,0.990,0.001,-0.002,-0.001,-0.428,0.278,-0.511,191.58,0.280000
21:47:45:806,-0.003,-0.024,0.976,0.001,-0.002,-0.001,-0.428,0.279,-0.511,192.44,0.860000
21:47:45:806,-0.002,-0.024,0.974,0.001,-0.002,-0.001,-0.426,0.271,-0.508,192.09,-0.350000
21:47:45:807,-0.002,-0.024,0.990,0.001,-0.002,-0.001,-0.429,0.277,-0.503,192.21,0.120000
21:47:45:808,-0.002,-0.023,0.979,0.001,-0.002,-0.001,-0.431,0.277,-0.512,191.43,-0.780000
21:47:45:808,-0.002,-0.022,0.974,0.001,-0.002,-0.000,-0.431,0.277,-0.511,192.27,0.840000
21:47:45:809,-0.003,-0.024,0.984,0.000,-0.001,-0.001,-0.435,0.279,-0.511,191.79,-0.480000
21:47:45:810,-0.003,-0.024,0.987,0.001,-0.002,-0.001,-0.433,0.282,-0.507,191.34,-0.450000
21:47:45:810,-0.002,-0.024,0.980,0.001,-0.002,-0.001,-0.426,0.283,-0.503,191.96,0.620000
21:47:45:811,-0.002,-0.023,0.983,0.000,-0.001,-0.000,-0.429,0.281,-0.508,192.57,0.610000
21:47:45:812,-0.002,-0.023,0.988,0.001,-0.002,-0.001,-0.427,0.280,-0.510,192.04,-0.530000
21:47:45:812,-0.002,-0.023,0.982,0.001,-0.002,-0.001,-0.430,0.280,-0.508,192.32,0.280000
21:47:45:813,-0.002,-0.023,0.978,0.001,-0.002,-0.001,-0.430,0.280,-0.507,192.05,-0.270000
21:47:45:814,-0.003,-0.023,0.982,0.000,-0.002,-0.001,-0.429,0.280,-0.507,192.23,0.180000
21:47:45:814,-0.001,-0.024,0.977,0.000,-0.001,-0.000,-0.428,0.278,-0.508,191.54,-0.690000
21:47:45:815,-0.002,-0.023,0.976,0.001,-0.002,-0.001,-0.424,0.278,-0.509,192.08,0.540000
21:47:45:816,-0.002,-0.023,0.977,0.000,-0.002,-0.001,-0.427,0.277,-0.509,191.76,-0.320000
21:47:45:816,-0.002,-0.024,0.985,0.000,-0.001,-0.001,-0.423,0.279,-0.506,191.65,-0.110000
21:47:45:817,-0.003,-0.024,0.984,0.001,-0.002,-0.001,-0.424,0.278,-0.512,192.34,0.690000
21:47:45:818,-0.004,-0.024,0.983,0.001,-0.002,-0.001,-0.426,0.282,-0.510,191.86,-0.480000
21:47:45:818,-0.002,-0.023,0.977,0.001,-0.001,-0.001,-0.426,0.282,-0.510,191.65,-0.210000
21:47:45:819,-0.003,-0.024,0.986,0.001,-0.001,-0.001,-0.425,0.279,-0.508,191.63,-0.020000
21:47:45:820,-0.002,-0.023,0.981,0.000,-0.001,-0.001,-0.427,0.282,-0.504,191.25,-0.380000
21:47:45:820,-0.001,-0.024,0.980,0.001,-0.001,-0.001,-0.425,0.280,-0.512,192.36,1.110000
21:47:45:821,-0.003,-0.025,0.981,0.001,-0.001,-0.001,-0.428,0.282,-0.507,191.61,-0.750000
21:47:45:822,-0.003,-0.024,0.986,0.001,-0.002,-0.001,-0.425,0.280,-0.507,191.86,0.250000
21:47:45:822,-0.003,-0.023,0.988,0.000,-0.001,-0.001,-0.427,0.278,-0.507,191.87,0.010000
21:47:45:823,-0.002,-0.023,0.975,0.001,-0.002,-0.001,-0.427,0.278,-0.507,191.29,-0.580000
21:47:45:824,-0.001,-0.024,0.982,0.000,-0.002,-0.001,-0.426,0.278,-0.509,191.78,0.490000
21:47:45:824,-0.003,-0.024,0.987,0.000,-0.002,-0.001,-0.423,0.276,-0.507,191.69,-0.090000
21:47:45:825,-0.002,-0.022,0.981,0.001,-0.002,-0.001,-0.426,0.275,-0.512,191.89,0.200000
21:47:45:826,-0.004,-0.024,0.981,0.001,-0.002,-0.001,-0.423,0.279,-0.506,192.15,0.260000
21:47:45:826,-0.003,-0.023,0.985,0.001,-0.002,-0.001,-0.429,0.276,-0.511,191.55,-0.600000
21:47:45:827,-0.003,-0.023,0.983,0.001,-0.002,-0.001,-0.426,0.276,-0.510,192.12,0.570000
21:47:45:828,-0.003,-0.022,0.981,0.001,-0.002,-0.001,-0.426,0.276,-0.510,192.14,0.020000
21:47:45:828,-0.003,-0.024,0.979,0.000,-0.002,-0.001,-0.429,0.275,-0.509,191.94,-0.200000
21:47:45:829,-0.003,-0.024,0.984,0.000,-0.002,-0.001,-0.429,0.275,-0.511,191.49,-0.450000
21:47:45:830,-0.002,-0.023,0.985,0.001,-0.002,-0.001,-0.429,0.276,-0.509,191.55,0.060000
21:47:45:830,-0.002,-0.022,0.977,0.001,-0.001,-0.001,-0.431,0.278,-0.516,191.79,0.240000
21:47:45:831,-0.001,-0.024,0.977,0.000,-0.001,-0.001,-0.426,0.275,-0.512,192.00,0.210000
21:47:45:832,-0.003,-0.025,0.997,0.000,-0.001,-0.000,-0.423,0.271,-0.511,191.61,-0.390000
21:47:45:832,-0.003,-0.023,0.979,0.002,-0.002,-0.001,-0.423,0.271,-0.511,191.90,0.290000
21:47:45:833,-0.003,-0.023,0.977,0.001,-0.002,-0.001,-0.432,0.273,-0.513,192.13,0.230000
21:47:45:834,-0.003,-0.023,0.984,0.001,-0.002,-0.001,-0.426,0.274,-0.506,191.54,-0.590000
21:47:45:834,-0.002,-0.023,0.983,0.001,-0.001,-0.001,-0.424,0.275,-0.512,191.37,-0.170000
21:47:45:835,-0.003,-0.022,0.975,0.001,-0.002,-0.001,-0.426,0.274,-0.507,191.75,0.380000
21:47:45:836,-0.002,-0.022,0.984,0.000,-0.002,-0.001,-0.425,0.271,-0.508,192.03,0.280000
21:47:45:836,-0.003,-0.023,0.984,0.001,-0.001,-0.000,-0.429,0.277,-0.509,191.78,-0.250000
21:47:45:837,-0.003,-0.022,0.982,0.001,-0.002,-0.000,-0.429,0.277,-0.509,191.75,-0.030000
21:47:45:838,-0.003,-0.023,0.985,0.001,-0.002,-0.001,-0.430,0.274,-0.513,192.22,0.470000
21:47:45:838,-0.002,-0.022,0.980,0.001,-0.002,-0.001,-0.429,0.275,-0.513,192.40,0.180000
21:47:45:839,-0.003,-0.023,0.983,0.001,-0.001,-0.001,-0.428,0.277,-0.507,191.56,-0.840000
21:47:45:840,-0.003,-0.023,0.982,0.001,-0.002,-0.000,-0.433,0.278,-0.511,191.88,0.320000
21:47:45:840,-0.003,-0.023,0.981,0.001,-0.001,-0.001,-0.426,0.275,-0.511,192.08,0.200000
21:47:45:841,-0.004,-0.024,0.984,0.001,-0.002,-0.001,-0.430,0.272,-0.509,191.55,-0.530000
21:47:45:842,-0.003,-0.023,0.982,0.001,-0.002,-0.001,-0.430,0.272,-0.509,191.60,0.050000
21:47:45:842,-0.001,-0.023,0.982,0.001,-0.001,-0.001,-0.428,0.273,-0.510,192.28,0.680000
21:47:45:843,-0.002,-0.023,0.983,0.000,-0.001,-0.001,-0.427,0.277,-0.510,192.23,-0.050000
21:47:45:844,-0.003,-0.024,0.982,0.001,-0.002,-0.001,-0.427,0.274,-0.505,191.93,-0.300000
21:47:45:844,-0.002,-0.024,0.980,0.001,-0.002,-0.001,-0.427,0.273,-0.501,192.59,0.660000
21:47:45:845,-0.003,-0.024,0.982,0.001,-0.001,-0.001,-0.426,0.276,-0.511,191.50,-1.090000
21:47:45:845,-0.003,-0.023,0.982,0.001,-0.001,-0.001,-0.427,0.281,-0.511,192.03,0.530000
21:47:45:846,-0.001,-0.024,0.982,0.001,-0.002,-0.001,-0.427,0.281,-0.511,191.88,-0.150000
21:47:45:847,-0.002,-0.023,0.982,0.001,-0.001,-0.001,-0.428,0.281,-0.510,192.27,0.390000
21:47:45:847,-0.001,-0.024,0.983,0.001,-0.002,-0.001,-0.423,0.280,-0.510,191.79,-0.480000
21:47:45:848,-0.002,-0.024,0.982,0.001,-0.002,-0.001,-0.428,0.279,-0.510,192.15,0.360000
21:47:45:848,-0.002,-0.022,0.981,0.001,-0.002,-0.001,-0.424,0.276,-0.513,191.75,-0.400000
21:47:45:849,-0.001,-0.024,0.978,0.001,-0.002,-0.001,-0.430,0.276,-0.516,191.54,-0.210000
21:47:45:849,-0.002,-0.023,0.978,0.000,-0.002,-0.001,-0.425,0.277,-0.509,191.64,0.100000
21:47:45:850,-0.003,-0.023,0.989,0.000,-0.001,-0.001,-0.425,0.277,-0.506,192.06,0.420000
21:47:45:850,-0.002,-0.024,0.983,0.001,-0.002,-0.001,-0.427,0.277,-0.506,191.82,-0.240000
21:47:45:851,-0.001,-0.022,0.978,0.001,-0.002,-0.001,-0.428,0.279,-0.512,192.29,0.470000
21:47:45:852,-0.002,-0.023,0.986,0.001,-0.002,-0.001,-0.432,0.278,-0.512,191.67,-0.620000
21:47:45:852,-0.002,-0.024,0.983,0.001,-0.002,-0.001,-0.432,0.276,-0.516,192.26,0.590000
21:47:45:853,-0.002,-0.022,0.979,0.001,-0.002,-0.001,-0.425,0.275,-0.506,192.44,0.180000
21:47:45:853,-0.003,-0.025,0.982,0.001,-0.002,-0.001,-0.429,0.276,-0.506,191.54,-0.900000
21:47:45:854,-0.002,-0.023,0.985,0.000,-0.001,-0.001,-0.429,0.276,-0.505,192.28,0.740000
21:47:45:854,-0.003,-0.023,0.981,0.001,-0.002,-0.001,-0.432,0.276,-0.505,191.83,-0.450000
21:47:45:855,-0.003,-0.024,0.987,0.001,-0.002,-0.001,-0.429,0.279,-0.504,192.62,0.790000
21:47:45:856,-0.002,-0.023,0.981,0.001,-0.002,-0.001,-0.425,0.277,-0.506,192.27,-0.350000
21:47:45:856,-0.003,-0.023,0.982,0.001,-0.001,-0.001,-0.424,0.272,-0.500,192.24,-0.030000
21:47:45:857,-0.004,-0.024,0.983,0.001,-0.002,-0.001,-0.427,0.276,-0.502,191.65,-0.590000
21:47:45:857,-0.003,-0.024,0.982,0.001,-0.002,-0.001,-0.424,0.278,-0.509,191.94,0.290000
21:47:45:858,-0.003,-0.023,0.980,0.001,-0.001,-0.001,-0.428,0.278,-0.503,192.02,0.080000
21:47:45:858,-0.002,-0.023,0.983,0.000,-0.001,-0.000,-0.428,0.278,-0.503,191.52,-0.500000
21:47:45:859,-0.002,-0.023,0.983,0.001,-0.001,-0.001,-0.431,0.281,-0.500,192.53,1.010000
21:47:45:859,-0.003,-0.023,0.983,0.001,-0.001,-0.000,-0.430,0.282,-0.510,191.48,-1.050000
21:47:45:860,-0.003,-0.023,0.984,0.001,-0.002,-0.001,-0.424,0.280,-0.508,192.22,0.740000
21:47:45:861,-0.001,-0.024,0.982,0.001,-0.002,-0.001,-0.428,0.283,-0.515,192.28,0.060000
21:47:45:861,-0.003,-0.024,0.982,0.001,-0.002,-0.001,-0.426,0.281,-0.506,192.07,-0.210000
21:47:45:862,-0.003,-0.023,0.981,0.001,-0.002,-0.001,-0.427,0.283,-0.504,192.36,0.290000
21:47:45:862,-0.003,-0.023,0.981,0.001,-0.001,-0.001,-0.427,0.283,-0.504,191.91,-0.450000
21:47:45:863,-0.003,-0.023,0.984,0.001,-0.002,-0.001,-0.428,0.284,-0.504,191.70,-0.210000
21:47:45:864,-0.002,-0.023,0.984,0.001,-0.002,-0.000,-0.431,0.280,-0.501,191.79,0.090000
21:47:45:864,-0.003,-0.023,0.981,0.001,-0.002,-0.001,-0.429,0.280,-0.502,191.93,0.140000
21:47:45:865,-0.002,-0.024,0.982,0.001,-0.002,-0.001,-0.435,0.277,-0.502,191.81,-0.120000
21:47:45:865,-0.002,-0.023,0.981,0.001,-0.002,-0.000,-0.431,0.279,-0.509,191.69,-0.120000
21:47:45:866,-0.003,-0.023,0.982,0.001,-0.001,-0.001,-0.430,0.280,-0.511,191.63,-0.060000
21:47:45:866,-0.003,-0.023,0.981,0.001,-0.001,-0.001,-0.430,0.280,-0.511,192.16,0.530000
21:47:45:867,-0.002,-0.022,0.984,0.001,-0.002,-0.000,-0.433,0.277,-0.514,191.89,-0.270000
21:47:45:867,-0.002,-0.023,0.982,0.001,-0.002,-0.000,-0.425,0.280,-0.505,192.33,0.440000
21:47:45:868,-0.002,-0.023,0.982,0.001,-0.002,-0.001,-0.427,0.278,-0.507,192.41,0.080000
21:47:45:869,-0.002,-0.023,0.981,0.001,-0.002,-0.001,-0.428,0.278,-0.509,192.37,-0.040000
21:47:45:869,-0.003,-0.023,0.983,0.001,-0.002,-0.001,-0.431,0.279,-0.507,191.55,-0.820000
21:47:45:870,-0.003,-0.022,0.982,0.001,-0.002,-0.001,-0.431,0.277,-0.504,192.09,0.540000
21:47:45:870,-0.002,-0.023,0.982,0.001,-0.002,-0.001,-0.431,0.277,-0.504,192.00,-0.090000
21:47:45:871,-0.003,-0.023,0.981,0.001,-0.002,-0.000,-0.429,0.277,-0.507,191.83,-0.170000
21:47:45:871,-0.003,-0.023,0.981,0.001,-0.002,-0.001,-0.430,0.280,-0.506,191.56,-0.270000
21:47:45:872,-0.003,-0.022,0.982,0.001,-0.002,-0.001,-0.428,0.279,-0.501,191.91,0.350000
21:47:45:873,-0.002,-0.024,0.983,0.001,-0.002,-0.001,-0.429,0.280,-0.503,191.99,0.080000
21:47:45:873,-0.002,-0.024,0.983,0.001,-0.002,-0.001,-0.430,0.277,-0.505,191.73,-0.260000
21:47:45:874,-0.002,-0.023,0.983,0.001,-0.001,-0.001,-0.427,0.282,-0.508,190.93,-0.800000
21:47:45:874,-0.002,-0.024,0.982,0.001,-0.001,-0.001,-0.427,0.282,-0.508,192.09,1.160000
21:47:45:882,-0.002,-0.023,0.981,0.001,-0.002,-0.000,-0.429,0.282,-0.511,192.19,0.100000
21:47:45:893,-0.003,-0.024,0.981,0.001,-0.001,-0.001,-0.428,0.278,-0.508,191.77,-0.420000
21:47:45:904,-0.002,-0.024,0.981,0.001,-0.001,-0.001,-0.433,0.280,-0.507,191.98,0.210000
21:47:45:915,-0.003,-0.023,0.982,0.001,-0.001,-0.000,-0.431,0.283,-0.514,191.53,-0.450000
21:47:45:926,-0.003,-0.023,0.983,0.000,-0.002,-0.001,-0.426,0.280,-0.510,191.68,0.150000
21:47:45:937,-0.003,-0.023,0.982,0.001,-0.002,-0.000,-0.431,0.283,-0.510,191.93,0.250000
21:47:45:948,-0.002,-0.023,0.982,0.001,-0.002,-0.001,-0.431,0.283,-0.510,191.37,-0.560000
21:47:45:959,-0.003,-0.023,0.982,0.001,-0.002,-0.001,-0.430,0.280,-0.511,192.41,1.040000
21:47:45:970,-0.003,-0.024,0.982,0.001,-0.002,-0.001,-0.432,0.280,-0.513,191.63,-0.780000
21:47:45:981,-0.003,-0.023,0.983,0.001,-0.002,-0.001,-0.433,0.277,-0.508,192.19,0.560000
21:47:45:992,-0.003,-0.023,0.981,0.001,-0.002,-0.001,-0.431,0.280,-0.511,191.86,-0.330000
21:47:46:003,-0.002,-0.024,0.982,0.001,-0.002,-0.001,-0.437,0.281,-0.509,192.07,0.210000
21:47:46:014,-0.001,-0.023,0.981,0.001,-0.002,-0.001,-0.434,0.281,-0.509,192.10,0.030000
21:47:46:025,-0.002,-0.022,0.982,0.000,-0.002,-0.001,-0.434,0.281,-0.509,191.34,-0.760000
21:47:46:036,-0.003,-0.023,0.984,0.000,-0.001,-0.001,-0.431,0.281,-0.509,191.99,0.650000
21:47:46:047,-0.001,-0.024,0.982,0.000,-0.002,-0.001,-0.432,0.276,-0.508,192.00,0.010000
21:47:46:058,-0.002,-0.023,0.980,0.001,-0.002,-0.001,-0.430,0.283,-0.509,192.60,0.600000
21:47:46:069,-0.002,-0.022,0.984,0.001,-0.002,-0.000,-0.429,0.278,-0.511,192.17,-0.430000
21:47:46:080,-0.003,-0.022,0.982,0.001,-0.002,-0.001,-0.428,0.276,-0.509,192.13,-0.040000
21:47:46:091,-0.003,-0.023,0.981,0.000,-0.002,-0.001,-0.426,0.279,-0.507,192.37,0.240000
21:47:46:102,-0.003,-0.023,0.982,0.000,-0.001,-0.001,-0.426,0.279,-0.514,192.05,-0.320000
21:47:46:113,-0.002,-0.023,0.984,0.000,-0.002,-0.001,-0.431,0.280,-0.514,192.44,0.390000
21:47:46:124,-0.002,-0.023,0.982,0.001,-0.002,-0.001,-0.430,0.283,-0.510,192.33,-0.110000
21:47:46:135,-0.003,-0.023,0.981,0.001,-0.002,-0.001,-0.430,0.281,-0.511,191.82,-0.510000
21:47:46:146,-0.003,-0.025,0.983,0.001,-0.002,-0.001,-0.432,0.283,-0.515,191.56,-0.260000
21:47:46:157,-0.003,-0.023,0.983,0.001,-0.002,-0.000,-0.431,0.274,-0.515,191.85,0.290000
21:47:46:168,-0.003,-0.023,0.982,0.001,-0.002,-0.001,-0.430,0.281,-0.502,191.80,-0.050000
21:47:46:179,-0.003,-0.023,0.983,0.001,-0.002,-0.001,-0.430,0.279,-0.518,191.99,0.190000
21:47:46:190,-0.002,-0.023,0.983,0.001,-0.002,-0.001,-0.427,0.279,-0.518,191.38,-0.610000
21:47:46:201,-0.002,-0.023,0.983,0.001,-0.001,-0.000,-0.431,0.282,-0.515,191.66,0.280000
21:47:46:212,-0.003,-0.023,0.982,0.001,-0.001,-0.001,-0.433,0.283,-0.512,191.78,0.120000
21:47:46:223,-0.001,-0.024,0.982,0.000,-0.001,-0.001,-0.430,0.280,-0.515,192.36,0.580000
21:47:46:234,-0.002,-0.023,0.982,0.001,-0.001,-0.001,-0.429,0.279,-0.514,191.64,-0.720000
21:47:46:245,-0.003,-0.023,0.983,0.001,-0.001,-0.001,-0.436,0.282,-0.515,191.60,-0.040000
21:47:46:256,-0.002,-0.023,0.981,0.001,-0.002,-0.001,-0.428,0.278,-0.513,191.83,0.230000
21:47:46:267,-0.002,-0.023,0.982,0.001,-0.002,-0.001,-0.428,0.278,-0.513,192.09,0.260000
21:47:46:278,-0.003,-0.024,0.982,0.000,-0.001,-0.001,-0.434,0.281,-0.515,192.81,0.720000
21:47:46:289,-0.003,-0.023,0.982,0.001,-0.002,-0.001,-0.430,0.279,-0.516,192.37,-0.440000
21:47:46:300,-0.003,-0.022,0.982,0.000,-0.002,-0.001,-0.433,0.277,-0.515,192.11,-0.260000
21:47:46:311,-0.003,-0.024,0.982,0.001,-0.002,-0.001,-0.431,0.276,-0.514,191.60,-0.510000
21:47:46:322,-0.003,-0.023,0.981,0.001,-0.002,-0.001,-0.429,0.277,-0.518,191.48,-0.120000
21:47:46:333,-0.003,-0.023,0.980,0.001,-0.002,-0.001,-0.434,0.278,-0.513,192.11,0.630000
21:47:46:344,-0.002,-0.024,0.982,0.001,-0.002,-0.001,-0.434,0.278,-0.513,192.00,-0.110000
21:47:46:355,-0.002,-0.023,0.983,0.001,-0.002,-0.001,-0.428,0.277,-0.511,192.51,0.510000
21:47:46:366,-0.003,-0.023,0.983,0.001,-0.001,-0.000,-0.429,0.281,-0.510,191.74,-0.770000
21:47:46:377,-0.003,-0.023,0.982,0.001,-0.001,-0.001,-0.435,0.277,-0.510,192.21,0.470000
21:47:46:388,-0.003,-0.022,0.981,0.001,-0.001,-0.001,-0.432,0.277,-0.512,191.97,-0.240000
21:47:46:399,-0.003,-0.024,0.982,0.001,-0.001,-0.001,-0.432,0.277,-0.515,192.50,0.530000
21:47:46:410,-0.002,-0.024,0.983,0.001,-0.001,-0.001,-0.435,0.277,-0.509,192.03,-0.470000
21:47:46:421,-0.002,-0.023,0.982,0.001,-0.001,-0.001,-0.435,0.277,-0.509,191.81,-0.220000
21:47:46:432,-0.003,-0.023,0.982,0.001,-0.001,-0.001,-0.433,0.277,-0.517,191.29,-0.520000
21:47:46:443,-0.002,-0.023,0.982,0.001,-0.002,-0.001,-0.432,0.277,-0.518,191.93,0.640000
21:47:46:454,-0.003,-0.022,0.981,0.001,-0.002,-0.001,-0.434,0.279,-0.511,191.52,-0.410000
21:47:46:465,-0.003,-0.024,0.980,0.001,-0.002,-0.001,-0.433,0.282,-0.510,191.95,0.430000
21:47:46:476,-0.004,-0.024,0.983,0.001,-0.002,-0.001,-0.435,0.280,-0.517,191.97,0.020000
21:47:46:487,-0.002,-0.023,0.983,0.001,-0.002,-0.000,-0.435,0.279,-0.516,191.79,-0.180000
21:47:46:498,-0.002,-0.022,0.981,0.001,-0.002,-0.001,-0.435,0.279,-0.516,192.03,0.240000
21:47:46:509,-0.002,-0.024,0.982,0.000,-0.002,-0.000,-0.430,0.281,-0.519,191.41,-0.620000
21:47:46:520,-0.003,-0.024,0.982,0.000,-0.002,-0.001,-0.434,0.283,-0.510,192.08,0.670000
21:47:46:531,-0.002,-0.023,0.981,0.001,-0.002,-0.001,-0.434,0.288,-0.510,192.36,0.280000
21:47:46:542,-0.002,-0.023,0.982,0.001,-0.002,-0.001,-0.434,0.285,-0.510,192.25,-0.110000
21:47:46:553,-0.002,-0.023,0.982,0.001,-0.001,-0.001,-0.434,0.281,-0.513,191.98,-0.270000
21:47:46:564,-0.003,-0.024,0.984,0.000,-0.002,-0.001,-0.431,0.280,-0.511,191.96,-0.020000
21:47:46:575,-0.001,-0.023,0.981,0.001,-0.002,-0.001,-0.431,0.280,-0.511,191.65,-0.310000
21:47:46:586,-0.002,-0.023,0.981,0.001,-0.001,-0.001,-0.435,0.279,-0.508,192.74,1.090000
21:47:46:597,-0.003,-0.023,0.984,0.001,-0.002,-0.001,-0.434,0.282,-0.514,191.96,-0.780000
21:47:46:608,-0.003,-0.024,0.981,0.001,-0.002,-0.001,-0.431,0.281,-0.514,192.07,0.110000
21:47:46:619,-0.002,-0.024,0.982,0.001,-0.002,-0.001,-0.433,0.279,-0.513,192.29,0.220000
21:47:46:630,-0.003,-0.023,0.982,0.001,-0.002,-0.001,-0.436,0.282,-0.511,191.90,-0.390000
21:47:46:641,-0.002,-0.023,0.982,0.001,-0.002,-0.001,-0.431,0.283,-0.516,192.14,0.240000
21:47:46:652,-0.002,-0.022,0.980,0.001,-0.001,-0.001,-0.431,0.283,-0.516,191.98,-0.160000
21:47:46:663,-0.003,-0.023,0.982,0.001,-0.001,-0.001,-0.430,0.281,-0.517,192.41,0.430000
21:47:46:674,-0.002,-0.023,0.982,0.001,-0.001,-0.001,-0.431,0.278,-0.515,191.55,-0.860000
21:47:46:685,-0.003,-0.024,0.983,0.001,-0.001,-0.001,-0.433,0.283,-0.510,192.23,0.680000
21:47:46:696,-0.002,-0.024,0.981,0.001,-0.002,-0.000,-0.433,0.279,-0.515,192.66,0.430000
21:47:46:707,-0.003,-0.024,0.983,0.001,-0.002,-0.000,-0.430,0.279,-0.507,191.73,-0.930000
21:47:46:718,-0.003,-0.024,0.983,0.001,-0.001,-0.001,-0.435,0.278,-0.513,192.18,0.450000
21:47:46:729,-0.003,-0.024,0.981,0.001,-0.002,-0.001,-0.435,0.278,-0.513,191.78,-0.400000
21:47:46:740,-0.002,-0.023,0.981,0.001,-0.002,-0.001,-0.434,0.279,-0.507,191.63,-0.150000
21:47:46:751,-0.003,-0.023,0.982,0.001,-0.002,-0.001,-0.436,0.283,-0.508,192.43,0.800000
21:47:46:762,-0.003,-0.024,0.982,0.001,-0.002,-0.001,-0.432,0.276,-0.518,191.67,-0.760000
21:47:46:773,-0.003,-0.023,0.981,0.000,-0.002,-0.001,-0.436,0.284,-0.521,192.59,0.920000
21:47:46:784,-0.002,-0.024,0.984,0.000,-0.001,-0.001,-0.434,0.279,-0.516,192.71,0.120000
21:47:46:795,-0.002,-0.023,0.982,0.001,-0.002,-0.001,-0.436,0.277,-0.512,192.17,-0.540000
21:47:46:806,-0.003,-0.022,0.983,0.001,-0.001,-0.001,-0.436,0.277,-0.514,192.71,0.540000
21:47:46:817,-0.003,-0.023,0.980,0.001,-0.002,-0.001,-0.433,0.278,-0.514,192.13,-0.580000
21:47:46:828,-0.002,-0.023,0.982,0.001,-0.002,-0.001,-0.435,0.280,-0.511,191.56,-0.570000
21:47:46:839,-0.003,-0.023,0.981,0.001,-0.002,-0.001,-0.432,0.282,-0.515,192.29,0.730000
21:47:46:850,-0.003,-0.023,0.982,0.001,-0.002,-0.001,-0.433,0.278,-0.517,191.92,-0.370000
21:47:46:861,-0.001,-0.023,0.982,0.001,-0.002,-0.001,-0.431,0.280,-0.515,192.18,0.260000
21:47:46:872,-0.002,-0.023,0.980,0.001,-0.002,-0.001,-0.437,0.279,-0.511,192.09,-0.090000
21:47:46:883,-0.004,-0.024,0.983,0.001,-0.002,-0.000,-0.437,0.279,-0.513,191.98,-0.110000
21:47:46:894,-0.003,-0.023,0.983,0.001,-0.001,-0.001,-0.440,0.279,-0.513,191.71,-0.270000
21:47:46:905,-0.004,-0.024,0.981,0.001,-0.002,-0.001,-0.429,0.277,-0.511,192.01,0.300000
21:47:46:916,-0.003,-0.025,0.983,0.001,-0.001,-0.001,-0.430,0.279,-0.505,192.14,0.130000
21:47:46:927,-0.003,-0.023,0.981,0.001,-0.001,-0.001,-0.434,0.279,-0.512,192.05,-0.090000
21:47:46:938,-0.002,-0.024,0.983,0.001,-0.002,-0.001,-0.432,0.274,-0.514,192.20,0.150000
21:47:46:949,-0.002,-0.023,0.981,0.001,-0.002,-0.000,-0.431,0.280,-0.511,192.14,-0.060000
21:47:46:960,-0.001,-0.023,0.983,0.001,-0.002,-0.001,-0.431,0.278,-0.508,192.49,0.350000
21:47:46:971,-0.004,-0.024,0.981,0.001,-0.002,-0.001,-0.431,0.278,-0.508,191.83,-0.660000
21:47:46:982,-0.003,-0.023,0.983,0.001,-0.002,-0.001,-0.433,0.280,-0.504,191.60,-0.230000
21:47:46:993,-0.003,-0.023,0.982,0.001,-0.002,-0.001,-0.432,0.281,-0.511,192.22,0.620000
21:47:47:004,-0.003,-0.023,0.983,0.001,-0.002,-0.000,-0.430,0.279,-0.503,192.27,0.050000
21:47:47:015,-0.003,-0.022,0.982,0.000,-0.002,-0.000,-0.433,0.279,-0.507,191.93,-0.340000
21:47:47:026,-0.002,-0.024,0.981,0.000,-0.001,-0.001,-0.432,0.280,-0.509,191.76,-0.170000
21:47:47:037,-0.003,-0.023,0.982,0.001,-0.002,-0.001,-0.433,0.275,-0.510,191.85,0.090000
21:47:47:048,-0.002,-0.024,0.981,0.001,-0.002,-0.001,-0.433,0.275,-0.510,192.16,0.310000
21:47:47:059,-0.002,-0.022,0.981,0.001,-0.002,-0.001,-0.433,0.282,-0.512,191.90,-0.260000
21:47:47:070,-0.003,-0.023,0.984,0.001,-0.002,-0.000,-0.435,0.283,-0.514,191.64,-0.260000
21:47:47:081,-0.001,-0.023,0.982,0.001,-0.001,-0.000,-0.430,0.277,-0.508,192.42,0.780000
21:47:47:092,-0.003,-0.022,0.982,0.001,-0.001,-0.001,-0.426,0.281,-0.508,192.13,-0.290000
21:47:47:103,-0.002,-0.023,0.982,0.001,-0.002,-0.001,-0.424,0.279,-0.515,192.22,0.090000
21:47:47:114,-0.003,-0.025,0.983,0.001,-0.002,-0.001,-0.426,0.280,-0.517,191.76,-0.460000
21:47:47:125,-0.003,-0.022,0.983,0.001,-0.002,-0.000,-0.426,0.280,-0.517,191.89,0.130000
21:47:47:136,-0.002,-0.023,0.982,0.000,-0.001,-0.000,-0.429,0.278,-0.515,191.97,0.080000
21:47:47:147,-0.003,-0.024,0.982,0.000,-0.001,-0.001,-0.425,0.282,-0.512,192.05,0.080000
21:47:47:158,-0.003,-0.024,0.982,0.001,-0.002,-0.001,-0.431,0.280,-0.514,191.64,-0.410000
21:47:47:169,-0.003,-0.025,0.982,0.001,-0.002,-0.001,-0.431,0.282,-0.510,191.72,0.080000
21:47:47:180,-0.003,-0.024,0.981,0.001,-0.002,-0.000,-0.428,0.277,-0.514,192.17,0.450000
21:47:47:191,-0.003,-0.023,0.981,0.001,-0.002,-0.000,-0.426,0.278,-0.512,191.75,-0.420000
21:47:47:202,-0.002,-0.024,0.983,0.000,-0.001,-0.001,-0.426,0.278,-0.512,191.90,0.150000
21:47:47:213,-0.002,-0.025,0.982,0.001,-0.002,-0.000,-0.433,0.276,-0.516,192.56,0.660000
21:47:47:224,-0.002,-0.023,0.981,0.001,-0.001,-0.001,-0.427,0.277,-0.513,191.99,-0.570000
21:47:47:235,-0.003,-0.024,0.983,0.001,-0.002,-0.001,-0.434,0.280,-0.514,191.80,-0.190000
21:47:47:246,-0.004,-0.024,0.981,0.001,-0.002,-0.001,-0.431,0.281,-0.514,192.08,0.280000
21:47:47:257,-0.003,-0.023,0.981,0.001,-0.002,-0.001,-0.432,0.275,-0.508,192.42,0.340000
21:47:47:268,-0.003,-0.023,0.982,0.001,-0.001,-0.001,-0.429,0.280,-0.512,191.77,-0.650000
21:47:47:279,-0.002,-0.023,0.983,0.001,-0.002,-0.001,-0.429,0.280,-0.512,191.48,-0.290000
21:47:47:290,-0.002,-0.024,0.983,0.001,-0.002,-0.001,-0.429,0.279,-0.504,191.92,0.440000
21:47:47:301,-0.003,-0.024,0.981,0.001,-0.002,-0.001,-0.432,0.279,-0.511,191.64,-0.280000
21:47:47:312,-0.003,-0.023,0.982,0.001,-0.002,-0.001,-0.431,0.280,-0.508,191.83,0.190000
21:47:47:323,-0.004,-0.024,0.983,0.001,-0.002,-0.000,-0.432,0.282,-0.508,192.03,0.200000
21:47:47:334,-0.003,-0.024,0.982,0.001,-0.002,-0.001,-0.435,0.280,-0.515,191.92,-0.110000
21:47:47:345,-0.003,-0.023,0.982,0.001,-0.002,-0.001,-0.429,0.281,-0.508,192.04,0.120000
21:47:47:356,-0.003,-0.024,0.983,0.001,-0.002,-0.001,-0.429,0.281,-0.508,192.15,0.110000
21:47:47:367,-0.002,-0.023,0.982,0.000,-0.001,-0.001,-0.433,0.279,-0.509,192.03,-0.120000
21:47:47:378,-0.002,-0.024,0.981,0.000,-0.001,-0.001,-0.432,0.284,-0.512,191.80,-0.230000
21:47:47:389,-0.003,-0.023,0.982,0.001,-0.001,-0.001,-0.427,0.282,-0.509,191.74,-0.060000
21:47:47:400,-0.003,-0.023,0.983,0.000,-0.002,-0.001,-0.432,0.285,-0.512,192.06,0.320000
21:47:47:411,-0.002,-0.022,0.982,0.001,-0.002,-0.001,-0.430,0.285,-0.502,192.35,0.290000
21:47:47:422,-0.004,-0.023,0.982,0.001,-0.001,-0.001,-0.429,0.284,-0.504,192.21,-0.140000
21:47:47:433,-0.004,-0.024,0.984,0.001,-0.001,-0.000,-0.429,0.284,-0.504,191.49,-0.720000
21:47:47:444,-0.002,-0.024,0.983,0.001,-0.001,-0.001,-0.431,0.283,-0.508,192.52,1.030000
21:47:47:455,-0.004,-0.024,0.981,0.001,-0.002,-0.001,-0.431,0.281,-0.511,192.00,-0.520000
21:47:47:466,-0.003,-0.023,0.984,0.001,-0.002,-0.001,-0.431,0.280,-0.509,191.71,-0.290000
21:47:47:477,-0.003,-0.023,0.982,0.001,-0.001,-0.001,-0.432,0.281,-0.510,192.51,0.800000
21:47:47:488,-0.003,-0.023,0.982,0.001,-0.002,-0.000,-0.434,0.281,-0.513,191.87,-0.640000
21:47:47:499,-0.002,-0.022,0.981,0.001,-0.002,-0.000,-0.432,0.284,-0.512,191.95,0.080000
21:47:47:510,-0.003,-0.022,0.982,0.000,-0.002,-0.000,-0.432,0.281,-0.509,191.66,-0.290000
21:47:47:521,-0.002,-0.024,0.982,0.001,-0.002,-0.001,-0.433,0.281,-0.509,192.49,0.830000
21:47:47:532,-0.002,-0.022,0.981,0.000,-0.002,-0.001,-0.430,0.285,-0.513,191.88,-0.610000
21:47:47:543,-0.002,-0.024,0.983,0.001,-0.001,-0.001,-0.429,0.284,-0.519,192.16,0.280000
21:47:47:554,-0.003,-0.023,0.981,0.001,-0.001,-0.001,-0.431,0.280,-0.509,192.41,0.250000
21:47:47:565,-0.003,-0.024,0.982,0.001,-0.001,-0.001,-0.435,0.282,-0.512,192.07,-0.340000
21:47:47:576,-0.004,-0.022,0.982,0.001,-0.001,-0.001,-0.428,0.281,-0.511,191.64,-0.430000
21:47:47:587,-0.003,-0.024,0.982,0.001,-0.002,-0.001,-0.432,0.279,-0.515,192.05,0.410000
21:47:47:598,-0.003,-0.022,0.981,0.001,-0.002,-0.000,-0.432,0.279,-0.515,191.90,-0.150000
21:47:47:609,-0.003,-0.023,0.981,0.001,-0.002,-0.001,-0.435,0.278,-0.511,192.42,0.520000
21:47:47:620,-0.003,-0.023,0.982,0.001,-0.002,-0.001,-0.432,0.279,-0.513,191.95,-0.470000
21:47:47:631,-0.002,-0.023,0.982,0.001,-0.002,-0.000,-0.431,0.276,-0.510,191.59,-0.360000
21:47:47:642,-0.002,-0.023,0.981,0.001,-0.002,-0.001,-0.430,0.275,-0.508,192.34,0.750000
21:47:47:653,-0.002,-0.022,0.982,0.001,-0.002,-0.001,-0.432,0.280,-0.515,191.69,-0.650000
21:47:47:664,-0.003,-0.024,0.983,0.001,-0.002,-0.001,-0.432,0.279,-0.513,191.71,0.020000
21:47:47:675,-0.003,-0.024,0.981,0.001,-0.002,-0.000,-0.432,0.279,-0.513,192.07,0.360000
21:47:47:686,-0.004,-0.024,0.981,0.001,-0.002,-0.001,-0.428,0.280,-0.514,191.99,-0.080000
21:47:47:697,-0.003,-0.023,0.982,0.001,-0.002,-0.001,-0.432,0.277,-0.520,192.64,0.650000
21:47:47:708,-0.003,-0.024,0.981,0.001,-0.002,-0.001,-0.432,0.275,-0.511,192.13,-0.510000
21:47:47:719,-0.002,-0.024,0.982,0.000,-0.001,-0.001,-0.434,0.279,-0.515,192.62,0.490000
21:47:47:730,-0.003,-0.023,0.982,0.000,-0.002,-0.001,-0.433,0.275,-0.511,191.58,-1.040000
21:47:47:741,-0.002,-0.023,0.982,0.001,-0.001,-0.001,-0.428,0.280,-0.508,191.79,0.210000
21:47:47:752,-0.002,-0.023,0.981,0.001,-0.002,-0.001,-0.428,0.280,-0.508,192.20,0.410000
21:47:47:763,-0.003,-0.022,0.981,0.001,-0.002,-0.000,-0.430,0.275,-0.506,191.93,-0.270000
21:47:47:774,-0.003,-0.024,0.981,0.001,-0.001,-0.001,-0.430,0.277,-0.510,192.00,0.070000
21:47:47:785,-0.003,-0.023,0.983,0.001,-0.002,-0.001,-0.429,0.282,-0.506,191.97,-0.030000
21:47:47:796,-0.003,-0.023,0.982,0.001,-0.002,-0.001,-0.428,0.277,-0.508,191.33,-0.640000
21:47:47:807,-0.002,-0.024,0.982,0.001,-0.002,-0.001,-0.433,0.279,-0.513,192.31,0.980000
21:47:47:818,-0.002,-0.024,0.982,0.001,-0.002,-0.001,-0.431,0.280,-0.513,191.82,-0.490000
21:47:47:829,-0.002,-0.024,0.982,0.001,-0.002,-0.001,-0.431,0.280,-0.513,192.20,0.380000
21:47:47:840,-0.002,-0.024,0.982,0.001,-0.001,-0.000,-0.427,0.280,-0.512,192.42,0.220000
21:47:47:851,-0.004,-0.023,0.983,0.000,-0.002,-0.001,-0.427,0.276,-0.518,191.85,-0.570000
21:47:47:862,-0.003,-0.023,0.983,0.001,-0.002,-0.001,-0.428,0.273,-0.512,192.37,0.520000
21:47:47:873,-0.003,-0.023,0.981,0.001,-0.001,-0.001,-0.425,0.276,-0.512,191.95,-0.420000
21:47:47:884,-0.003,-0.023,0.982,0.001,-0.002,-0.001,-0.430,0.279,-0.508,192.05,0.100000
21:47:47:895,-0.002,-0.022,0.982,0.001,-0.002,-0.001,-0.428,0.277,-0.514,191.87,-0.180000
21:47:47:906,-0.003,-0.023,0.982,0.001,-0.001,-0.001,-0.428,0.277,-0.514,191.59,-0.280000
21:47:47:917,-0.002,-0.024,0.981,0.001,-0.002,-0.001,-0.429,0.279,-0.512,192.35,0.760000
21:47:47:928,-0.002,-0.024,0.983,0.001,-0.001,-0.001,-0.432,0.279,-0.509,191.74,-0.610000
21:47:47:939,-0.002,-0.024,0.981,0.001,-0.002,-0.001,-0.434,0.277,-0.512,191.97,0.230000
21:47:47:950,-0.002,-0.023,0.981,0.001,-0.002,-0.001,-0.432,0.280,-0.511,191.80,-0.170000
21:47:47:961,-0.003,-0.023,0.981,0.001,-0.002,-0.001,-0.432,0.282,-0.515,192.48,0.680000
21:47:47:972,-0.002,-0.023,0.982,0.001,-0.002,-0.000,-0.433,0.280,-0.515,192.10,-0.380000
21:47:47:983,-0.002,-0.023,0.982,0.001,-0.002,-0.001,-0.433,0.280,-0.515,191.17,-0.930000
21:47:47:994,-0.003,-0.024,0.982,0.001,-0.001,-0.000,-0.432,0.281,-0.521,191.90,0.730000
21:47:48:005,-0.003,-0.022,0.983,0.001,-0.001,-0.001,-0.428,0.283,-0.515,192.23,0.330000
21:47:48:016,-0.003,-0.024,0.983,0.001,-0.002,-0.001,-0.431,0.280,-0.510,192.02,-0.210000
21:47:48:027,-0.003,-0.024,0.981,0.001,-0.002,-0.000,-0.430,0.278,-0.515,191.82,-0.200000
21:47:48:038,-0.003,-0.023,0.983,0.001,-0.002,-0.001,-0.429,0.278,-0.516,191.62,-0.200000
21:47:48:049,-0.003,-0.024,0.982,0.001,-0.001,-0.001,-0.430,0.283,-0.512,192.16,0.540000
21:47:48:060,-0.003,-0.023,0.982,0.000,-0.001,-0.001,-0.430,0.283,-0.512,192.53,0.370000
21:47:48:071,-0.002,-0.024,0.982,0.001,-0.001,-0.001,-0.431,0.280,-0.520,192.01,-0.520000
21:47:48:082,-0.002,-0.023,0.982,0.001,-0.001,-0.000,-0.429,0.280,-0.512,192.12,0.110000
21:47:48:093,-0.002,-0.024,0.981,0.001,-0.002,-0.001,-0.433,0.280,-0.507,192.08,-0.040000
21:47:48:104,-0.002,-0.024,0.982,0.001,-0.002,-0.001,-0.427,0.282,-0.514,192.34,0.260000
21:47:48:115,-0.003,-0.023,0.982,0.001,-0.002,-0.001,-0.429,0.280,-0.513,192.53,0.190000
21:47:48:126,-0.003,-0.023,0.981,0.001,-0.002,-0.001,-0.435,0.280,-0.511,192.03,-0.500000
21:47:48:137,-0.003,-0.023,0.981,0.001,-0.002,-0.000,-0.435,0.280,-0.510,191.86,-0.170000
21:47:48:148,-0.002,-0.023,0.982,0.001,-0.002,-0.001,-0.426,0.286,-0.510,191.60,-0.260000
21:47:48:159,-0.003,-0.023,0.982,0.001,-0.002,-0.001,-0.430,0.282,-0.513,192.05,0.450000
21:47:48:170,-0.003,-0.023,0.980,0.001,-0.001,-0.001,-0.429,0.284,-0.511,191.95,-0.100000
21:47:48:181,-0.002,-0.023,0.981,0.001,-0.002,-0.000,-0.427,0.279,-0.514,192.26,0.310000
21:47:48:192,-0.002,-0.023,0.982,0.000,-0.002,-0.000,-0.433,0.281,-0.513,191.45,-0.810000
21:47:48:203,-0.002,-0.022,0.983,0.000,-0.002,-0.001,-0.429,0.280,-0.509,191.87,0.420000
21:47:48:214,-0.002,-0.023,0.981,0.001,-0.001,-0.001,-0.429,0.281,-0.511,191.77,-0.100000
21:47:48:225,-0.002,-0.023,0.982,0.001,-0.002,-0.001,-0.429,0.281,-0.511,191.56,-0.210000
21:47:48:236,-0.003,-0.023,0.983,0.001,-0.002,-0.001,-0.431,0.281,-0.513,191.98,0.420000
21:47:48:247,-0.001,-0.022,0.982,0.000,-0.001,-0.000,-0.430,0.280,-0.511,192.01,0.030000
21:47:48:258,-0.002,-0.024,0.981,0.001,-0.002,-0.001,-0.428,0.282,-0.511,191.59,-0.420000
21:47:48:269,-0.003,-0.023,0.981,0.001,-0.002,-0.001,-0.427,0.283,-0.510,192.27,0.680000
21:47:48:280,-0.003,-0.023,0.982,0.001,-0.002,-0.000,-0.431,0.279,-0.518,192.17,-0.100000
21:47:48:291,-0.003,-0.024,0.982,0.001,-0.002,-0.000,-0.430,0.283,-0.518,191.98,-0.190000
21:47:48:302,-0.002,-0.023,0.983,0.001,-0.001,-0.001,-0.430,0.283,-0.518,191.22,-0.760000
21:47:48:313,-0.002,-0.022,0.982,0.001,-0.002,-0.001,-0.428,0.277,-0.511,191.97,0.750000
21:47:48:324,-0.002,-0.022,0.981,0.001,-0.002,-0.001,-0.430,0.276,-0.513,191.43,-0.540000
21:47:48:335,-0.003,-0.023,0.981,0.001,-0.002,-0.001,-0.427,0.283,-0.511,191.78,0.350000
21:47:48:346,-0.004,-0.024,0.983,0.001,-0.002,-0.001,-0.426,0.281,-0.505,191.75,-0.030000
21:47:48:357,-0.002,-0.023,0.982,0.001,-0.002,-0.001,-0.427,0.280,-0.505,191.97,0.220000
21:47:48:368,-0.001,-0.024,0.980,0.000,-0.002,-0.001,-0.426,0.283,-0.510,192.59,0.620000
21:47:48:379,-0.003,-0.023,0.982,0.001,-0.002,-0.001,-0.426,0.283,-0.510,192.14,-0.450000
21:47:48:390,-0.003,-0.023,0.983,0.001,-0.001,-0.001,-0.431,0.281,-0.504,191.87,-0.270000
21:47:48:401,-0.002,-0.023,0.982,0.001,-0.001,-0.001,-0.428,0.282,-0.512,192.73,0.860000
21:47:48:412,-0.001,-0.022,0.983,0.001,-0.001,-0.001,-0.428,0.281,-0.506,192.22,-0.510000
21:47:48:423,-0.003,-0.022,0.984,0.001,-0.002,-0.001,-0.429,0.284,-0.509,191.09,-1.130000
21:47:48:434,-0.002,-0.022,0.982,0.001,-0.001,-0.001,-0.430,0.280,-0.506,192.75,1.660000
21:47:48:445,-0.002,-0.023,0.981,0.000,-0.002,-0.001,-0.430,0.282,-0.503,191.82,-0.930000
21:47:48:456,-0.003,-0.023,0.981,0.001,-0.002,-0.001,-0.430,0.282,-0.503,191.91,0.090000
21:47:48:467,-0.003,-0.023,0.982,0.001,-0.002,-0.001,-0.432,0.283,-0.507,192.30,0.390000
21:47:48:478,-0.003,-0.023,0.983,0.001,-0.002,-0.001,-0.431,0.279,-0.509,192.39,0.090000
21:47:48:489,-0.001,-0.024,0.982,0.001,-0.002,-0.001,-0.436,0.278,-0.509,192.08,-0.310000
21:47:48:500,-0.003,-0.023,0.983,0.001,-0.002,-0.001,-0.431,0.283,-0.513,192.26,0.180000
21:47:48:511,-0.003,-0.024,0.981,0.001,-0.002,-0.001,-0.433,0.279,-0.504,191.87,-0.390000
21:47:48:522,-0.002,-0.023,0.982,0.001,-0.001,-0.001,-0.430,0.283,-0.513,192.03,0.160000
21:47:48:533,-0.003,-0.024,0.982,0.000,-0.002,-0.001,-0.430,0.283,-0.513,191.47,-0.560000
21:47:48:544,-0.003,-0.024,0.982,0.001,-0.002,-0.001,-0.431,0.283,-0.506,191.84,0.370000
21:47:48:555,-0.002,-0.023,0.983,0.001,-0.002,-0.001,-0.434,0.279,-0.506,191.92,0.080000
21:47:48:566,-0.003,-0.023,0.983,0.000,-0.002,-0.001,-0.432,0.281,-0.509,192.01,0.090000
21:47:48:577,-0.002,-0.023,0.982,0.001,-0.002,-0.000,-0.431,0.277,-0.505,191.96,-0.050000
21:47:48:588,-0.003,-0.023,0.983,0.001,-0.002,-0.001,-0.433,0.276,-0.510,191.80,-0.160000
21:47:48:599,-0.003,-0.023,0.982,0.001,-0.002,-0.001,-0.434,0.279,-0.515,192.39,0.590000
21:47:48:610,-0.003,-0.023,0.982,0.001,-0.002,-0.001,-0.434,0.279,-0.515,192.53,0.140000
21:47:48:621,-0.002,-0.022,0.982,0.001,-0.001,-0.001,-0.435,0.277,-0.516,191.92,-0.610000
21:47:48:632,-0.002,-0.023,0.981,0.001,-0.001,-0.001,-0.432,0.276,-0.515,192.73,0.810000
21:47:48:643,-0.004,-0.023,0.983,0.001,-0.001,-0.001,-0.434,0.278,-0.513,192.24,-0.490000
21:47:48:654,-0.003,-0.024,0.982,0.001,-0.002,-0.001,-0.432,0.277,-0.514,191.54,-0.700000
21:47:48:665,-0.003,-0.024,0.982,0.001,-0.002,-0.001,-0.430,0.282,-0.511,192.36,0.820000
21:47:48:676,-0.003,-0.023,0.983,0.001,-0.002,-0.000,-0.433,0.276,-0.507,191.84,-0.520000
21:47:48:687,-0.003,-0.023,0.982,0.001,-0.002,-0.001,-0.433,0.276,-0.507,191.91,0.070000
21:47:48:698,-0.002,-0.022,0.981,0.001,-0.002,-0.001,-0.431,0.277,-0.512,192.18,0.270000
21:47:48:709,-0.002,-0.023,0.982,0.001,-0.002,-0.001,-0.434,0.278,-0.513,192.63,0.450000
21:47:48:720,-0.003,-0.023,0.983,0.001,-0.002,-0.000,-0.433,0.276,-0.513,192.43,-0.200000
21:47:48:731,-0.003,-0.024,0.981,0.001,-0.001,-0.001,-0.433,0.276,-0.510,191.61,-0.820000
21:47:48:742,-0.003,-0.024,0.982,0.001,-0.001,-0.001,-0.432,0.274,-0.506,192.00,0.390000
21:47:48:753,-0.002,-0.023,0.983,0.001,-0.001,-0.001,-0.429,0.275,-0.513,192.55,0.550000
21:47:48:764,-0.003,-0.024,0.982,0.000,-0.002,-0.001,-0.429,0.275,-0.513,192.70,0.150000
21:47:48:775,-0.003,-0.023,0.982,0.000,-0.002,-0.001,-0.430,0.275,-0.513,192.23,-0.470000
21:47:48:786,-0.003,-0.023,0.981,0.001,-0.002,-0.000,-0.431,0.277,-0.515,192.34,0.110000
21:47:48:797,-0.002,-0.024,0.982,0.001,-0.002,-0.001,-0.434,0.273,-0.512,192.29,-0.050000
21:47:48:808,-0.002,-0.023,0.981,0.001,-0.001,-0.001,-0.429,0.273,-0.511,192.18,-0.110000
21:47:48:819,-0.003,-0.023,0.981,0.001,-0.001,-0.001,-0.431,0.276,-0.505,192.04,-0.140000
21:47:48:830,-0.002,-0.023,0.982,0.001,-0.002,-0.001,-0.429,0.276,-0.513,192.35,0.310000
21:47:48:841,-0.003,-0.024,0.982,0.001,-0.002,-0.001,-0.429,0.278,-0.511,192.09,-0.260000
21:47:48:852,-0.003,-0.023,0.982,0.000,-0.002,-0.001,-0.432,0.278,-0.511,192.00,-0.090000
21:47:48:863,-0.002,-0.024,0.982,0.001,-0.001,-0.001,-0.431,0.278,-0.515,192.21,0.210000
21:47:48:874,-0.003,-0.023,0.983,0.001,-0.002,-0.001,-0.429,0.277,-0.515,192.30,0.090000
21:47:48:885,-0.001,-0.023,0.982,0.001,-0.002,-0.000,-0.431,0.283,-0.517,192.15,-0.150000
21:47:48:896,-0.002,-0.024,0.981,0.001,-0.002,-0.001,-0.426,0.277,-0.512,192.52,0.370000
21:47:48:907,-0.002,-0.023,0.982,0.000,-0.001,-0.001,-0.427,0.277,-0.511,191.89,-0.630000
21:47:48:918,-0.003,-0.024,0.983,0.001,-0.002,-0.001,-0.430,0.279,-0.507,192.62,0.730000
21:47:48:929,-0.002,-0.024,0.982,0.001,-0.002,-0.001,-0.430,0.279,-0.507,191.94,-0.680000
21:47:48:940,-0.002,-0.023,0.982,0.001,-0.002,-0.001,-0.432,0.281,-0.507,192.22,0.280000
21:47:48:951,-0.002,-0.024,0.982,0.001,-0.002,-0.001,-0.426,0.277,-0.511,191.98,-0.240000
21:47:48:962,-0.002,-0.024,0.982,0.001,-0.001,-0.001,-0.431,0.278,-0.515,192.15,0.170000
21:47:48:973,-0.003,-0.023,0.981,0.001,-0.002,-0.001,-0.432,0.279,-0.513,191.44,-0.710000
21:47:48:984,-0.003,-0.023,0.983,0.001,-0.002,-0.001,-0.433,0.278,-0.516,192.32,0.880000
21:47:48:996,-0.003,-0.023,0.981,0.001,-0.002,-0.001,-0.430,0.278,-0.514,192.31,-0.010000
21:47:49:006,-0.002,-0.023,0.981,0.001,-0.001,-0.001,-0.430,0.278,-0.514,191.94,-0.370000
21:47:49:017,-0.003,-0.024,0.983,0.001,-0.001,-0.001,-0.431,0.281,-0.510,191.55,-0.390000
21:47:49:028,-0.002,-0.023,0.983,0.001,-0.002,-0.001,-0.428,0.279,-0.510,192.53,0.980000
21:47:49:039,-0.003,-0.023,0.982,0.001,-0.002,-0.001,-0.430,0.281,-0.517,192.36,-0.170000
21:47:49:050,-0.002,-0.023,0.982,0.001,-0.002,-0.001,-0.426,0.279,-0.515,192.71,0.350000
21:47:49:061,-0.002,-0.024,0.982,0.001,-0.002,-0.001,-0.430,0.281,-0.519,192.32,-0.390000
21:47:49:072,-0.002,-0.023,0.982,0.001,-0.002,-0.001,-0.431,0.280,-0.516,191.91,-0.410000
21:47:49:083,-0.003,-0.022,0.981,0.000,-0.002,-0.001,-0.431,0.280,-0.516,191.98,0.070000
21:47:49:094,-0.003,-0.024,0.982,0.001,-0.002,-0.001,-0.431,0.279,-0.516,192.46,0.480000
21:47:49:105,-0.003,-0.023,0.982,0.000,-0.002,-0.001,-0.431,0.282,-0.515,192.11,-0.350000
21:47:49:116,-0.002,-0.023,0.981,0.001,-0.002,-0.001,-0.429,0.281,-0.518,191.95,-0.160000
21:47:49:127,-0.003,-0.023,0.982,0.001,-0.001,-0.001,-0.431,0.279,-0.511,191.65,-0.300000
21:47:49:138,-0.003,-0.023,0.983,0.001,-0.002,-0.001,-0.433,0.279,-0.504,192.23,0.580000
21:47:49:149,-0.002,-0.022,0.983,0.001,-0.002,-0.001,-0.428,0.276,-0.507,192.07,-0.160000
21:47:49:160,-0.003,-0.023,0.982,0.001,-0.002,-0.001,-0.428,0.276,-0.507,192.25,0.180000
21:47:49:171,-0.002,-0.023,0.982,0.001,-0.002,-0.001,-0.433,0.283,-0.512,192.02,-0.230000
21:47:49:182,-0.003,-0.023,0.982,0.001,-0.002,-0.001,-0.431,0.281,-0.510,191.68,-0.340000
21:47:49:193,-0.002,-0.022,0.982,0.001,-0.002,-0.001,-0.432,0.281,-0.511,191.27,-0.410000
21:47:49:204,-0.003,-0.025,0.981,0.001,-0.001,-0.001,-0.432,0.280,-0.515,192.41,1.140000
21:47:49:215,-0.003,-0.022,0.983,0.001,-0.002,-0.001,-0.432,0.281,-0.509,191.90,-0.510000
21:47:49:226,-0.003,-0.024,0.982,0.001,-0.001,-0.001,-0.435,0.281,-0.513,192.06,0.160000
21:47:49:237,-0.002,-0.022,0.982,0.000,-0.001,-0.001,-0.435,0.281,-0.513,191.76,-0.300000
21:47:49:248,-0.002,-0.023,0.983,0.001,-0.001,-0.000,-0.433,0.282,-0.511,191.78,0.020000
21:47:49:259,-0.002,-0.023,0.982,0.001,-0.001,-0.001,-0.429,0.279,-0.507,191.83,0.050000
21:47:49:270,-0.003,-0.023,0.983,0.001,-0.002,-0.001,-0.434,0.279,-0.506,192.12,0.290000
21:47:49:281,-0.002,-0.023,0.982,0.001,-0.002,-0.001,-0.435,0.277,-0.508,191.64,-0.480000
21:47:49:292,-0.002,-0.023,0.981,0.001,-0.002,-0.001,-0.438,0.278,-0.513,192.22,0.580000
21:47:49:303,-0.003,-0.024,0.982,0.000,-0.002,-0.001,-0.435,0.276,-0.503,191.92,-0.300000
21:47:49:314,-0.003,-0.025,0.981,0.001,-0.002,-0.001,-0.435,0.276,-0.503,192.62,0.700000
21:47:49:325,-0.003,-0.023,0.982,0.001,-0.002,-0.001,-0.432,0.277,-0.503,192.04,-0.580000
21:47:49:336,-0.003,-0.023,0.982,0.001,-0.001,-0.001,-0.436,0.281,-0.507,192.73,0.690000
21:47:49:347,-0.003,-0.023,0.984,0.001,-0.001,-0.001,-0.432,0.279,-0.509,192.16,-0.570000
21:47:49:358,-0.003,-0.022,0.981,0.001,-0.002,-0.000,-0.432,0.277,-0.504,192.52,0.360000
21:47:49:369,-0.003,-0.024,0.981,0.001,-0.002,-0.000,-0.431,0.278,-0.507,192.31,-0.210000
21:47:49:380,-0.002,-0.024,0.981,0.001,-0.002,-0.001,-0.428,0.276,-0.509,192.41,0.100000
21:47:49:391,-0.003,-0.022,0.981,0.001,-0.001,-0.000,-0.428,0.276,-0.507,191.90,-0.510000
21:47:49:402,-0.002,-0.022,0.980,0.001,-0.002,-0.001,-0.437,0.282,-0.507,192.07,0.170000
21:47:49:413,-0.003,-0.023,0.981,0.001,-0.001,-0.001,-0.428,0.281,-0.505,192.13,0.060000
21:47:49:424,-0.002,-0.024,0.982,0.001,-0.002,-0.001,-0.430,0.278,-0.506,191.67,-0.460000
21:47:49:436,-0.003,-0.023,0.983,0.001,-0.002,-0.001,-0.431,0.279,-0.510,192.00,0.330000
21:47:49:446,-0.002,-0.024,0.982,0.001,-0.002,-0.001,-0.435,0.277,-0.509,191.75,-0.250000
21:47:49:457,-0.003,-0.024,0.981,0.001,-0.002,-0.000,-0.434,0.278,-0.512,192.21,0.460000
21:47:49:468,-0.002,-0.023,0.982,0.001,-0.001,-0.001,-0.434,0.282,-0.510,191.84,-0.370000
21:47:49:479,-0.002,-0.024,0.980,0.001,-0.001,-0.000,-0.435,0.282,-0.510,192.10,0.260000
21:47:49:490,-0.004,-0.023,0.985,0.001,-0.001,-0.001,-0.433,0.278,-0.517,191.94,-0.160000
21:47:49:501,-0.003,-0.025,0.980,0.001,-0.002,-0.001,-0.432,0.279,-0.508,192.53,0.590000
21:47:49:512,-0.002,-0.024,0.978,0.001,-0.002,-0.001,-0.432,0.281,-0.508,192.27,-0.260000
21:47:49:523,-0.003,-0.024,0.983,0.001,-0.001,-0.001,-0.434,0.280,-0.513,192.01,-0.260000
21:47:49:534,-0.003,-0.024,0.983,0.001,-0.001,-0.001,-0.433,0.279,-0.509,192.00,-0.010000
21:47:49:545,-0.002,-0.023,0.981,0.001,-0.002,-0.001,-0.429,0.278,-0.511,192.13,0.130000
21:47:49:556,-0.003,-0.023,0.981,0.001,-0.002,-0.001,-0.429,0.278,-0.511,192.17,0.040000
21:47:49:567,-0.002,-0.023,0.980,0.001,-0.002,-0.001,-0.435,0.279,-0.510,192.18,0.010000
21:47:49:578,-0.002,-0.023,0.983,0.001,-0.002,-0.001,-0.431,0.277,-0.510,191.86,-0.320000
21:47:49:589,-0.002,-0.023,0.981,0.001,-0.002,-0.000,-0.429,0.281,-0.508,191.38,-0.480000
21:47:49:600,-0.003,-0.022,0.982,0.001,-0.002,-0.000,-0.432,0.278,-0.510,192.10,0.720000
21:47:49:611,-0.003,-0.024,0.982,0.000,-0.002,-0.001,-0.432,0.281,-0.513,191.79,-0.310000
21:47:49:622,-0.003,-0.024,0.984,0.001,-0.002,-0.001,-0.435,0.279,-0.511,192.09,0.300000
21:47:49:633,-0.003,-0.024,0.983,0.001,-0.002,-0.001,-0.435,0.279,-0.511,191.68,-0.410000
21:47:49:644,-0.003,-0.024,0.981,0.001,-0.002,-0.000,-0.433,0.280,-0.503,192.22,0.540000
21:47:49:655,-0.002,-0.023,0.981,0.001,-0.001,-0.001,-0.436,0.279,-0.500,192.19,-0.030000
21:47:49:666,-0.003,-0.023,0.984,0.000,-0.001,-0.001,-0.432,0.278,-0.508,192.27,0.080000
21:47:49:677,-0.003,-0.023,0.981,0.001,-0.001,-0.001,-0.431,0.280,-0.504,192.15,-0.120000
21:47:49:688,-0.003,-0.022,0.980,0.001,-0.002,-0.001,-0.431,0.279,-0.501,192.33,0.180000
21:47:49:699,-0.001,-0.023,0.985,0.000,-0.001,-0.001,-0.437,0.277,-0.513,191.99,-0.340000
21:47:49:710,-0.003,-0.023,0.983,0.001,-0.002,-0.001,-0.437,0.277,-0.513,192.27,0.280000
21:47:49:721,-0.002,-0.024,0.982,0.001,-0.002,-0.001,-0.434,0.278,-0.514,192.04,-0.230000
21:47:49:732,-0.002,-0.022,0.981,0.001,-0.002,-0.001,-0.429,0.278,-0.501,191.76,-0.280000
21:47:49:743,-0.002,-0.023,0.983,0.001,-0.002,-0.001,-0.431,0.281,-0.505,191.85,0.090000
21:47:49:754,-0.003,-0.023,0.981,0.001,-0.002,-0.001,-0.433,0.277,-0.502,191.41,-0.440000
21:47:49:765,-0.002,-0.023,0.982,0.000,-0.002,-0.001,-0.434,0.277,-0.504,192.16,0.750000
21:47:49:776,-0.003,-0.022,0.983,0.000,-0.002,-0.001,-0.433,0.278,-0.509,192.38,0.220000
21:47:49:787,-0.002,-0.024,0.982,0.001,-0.002,-0.001,-0.433,0.278,-0.509,191.91,-0.470000
21:47:49:798,-0.004,-0.023,0.982,0.001,-0.002,-0.000,-0.430,0.276,-0.505,191.80,-0.110000
21:47:49:809,-0.003,-0.023,0.982,0.001,-0.002,-0.001,-0.428,0.283,-0.510,192.06,0.260000
21:47:49:820,-0.003,-0.025,0.983,0.001,-0.002,-0.001,-0.433,0.280,-0.513,192.01,-0.050000
21:47:49:831,-0.003,-0.022,0.981,0.001,-0.002,-0.001,-0.427,0.279,-0.510,191.82,-0.190000
21:47:49:842,-0.002,-0.024,0.983,0.001,-0.001,-0.001,-0.433,0.279,-0.516,191.77,-0.050000
21:47:49:853,-0.003,-0.024,0.982,0.001,-0.001,-0.001,-0.426,0.280,-0.512,191.49,-0.280000
21:47:49:864,-0.003,-0.023,0.983,0.001,-0.001,-0.001,-0.426,0.280,-0.512,192.18,0.690000
21:47:49:875,-0.003,-0.023,0.981,0.000,-0.001,-0.001,-0.427,0.278,-0.510,191.63,-0.550000
21:47:49:886,-0.003,-0.024,0.983,0.001,-0.001,-0.001,-0.428,0.279,-0.510,191.96,0.330000
21:47:49:897,-0.002,-0.023,0.983,0.001,-0.001,-0.001,-0.427,0.283,-0.509,192.08,0.120000
21:47:49:908,-0.003,-0.024,0.982,0.001,-0.001,-0.001,-0.433,0.278,-0.509,192.26,0.180000
21:47:49:919,-0.003,-0.023,0.981,0.001,-0.001,-0.001,-0.432,0.284,-0.513,191.54,-0.720000
21:47:49:930,-0.002,-0.023,0.983,0.001,-0.001,-0.000,-0.430,0.284,-0.504,192.19,0.650000
21:47:49:941,-0.002,-0.023,0.981,0.001,-0.002,-0.001,-0.430,0.284,-0.504,191.83,-0.360000
21:47:49:952,-0.002,-0.023,0.981,0.001,-0.002,-0.001,-0.430,0.283,-0.508,191.49,-0.340000
21:47:49:963,-0.004,-0.022,0.981,0.001,-0.002,-0.001,-0.426,0.280,-0.506,191.70,0.210000
21:47:49:974,-0.002,-0.024,0.984,0.001,-0.002,-0.001,-0.430,0.278,-0.503,192.53,0.830000
21:47:49:985,-0.003,-0.022,0.982,0.001,-0.002,-0.001,-0.433,0.280,-0.507,191.86,-0.670000
21:47:49:997,-0.003,-0.023,0.982,0.001,-0.002,-0.001,-0.434,0.280,-0.513,191.84,-0.020000
21:47:50:007,-0.003,-0.024,0.982,0.001,-0.002,-0.001,-0.432,0.280,-0.509,192.01,0.170000
21:47:50:018,-0.003,-0.023,0.983,0.000,-0.002,-0.001,-0.432,0.278,-0.512,191.93,-0.080000
21:47:50:029,-0.004,-0.024,0.982,0.000,-0.001,-0.001,-0.432,0.278,-0.512,192.40,0.470000
21:47:50:040,-0.003,-0.023,0.982,0.000,-0.002,-0.001,-0.430,0.276,-0.511,191.95,-0.450000
21:47:50:051,-0.003,-0.024,0.982,0.001,-0.002,-0.001,-0.429,0.279,-0.515,192.04,0.090000
21:47:50:062,-0.002,-0.022,0.981,0.001,-0.001,-0.001,-0.430,0.276,-0.508,192.18,0.140000
21:47:50:073,-0.002,-0.023,0.980,0.001,-0.002,-0.001,-0.431,0.279,-0.513,192.11,-0.070000
21:47:50:084,-0.003,-0.024,0.981,0.001,-0.002,-0.001,-0.428,0.281,-0.516,191.55,-0.560000
21:47:50:095,-0.003,-0.024,0.982,0.001,-0.002,-0.001,-0.436,0.280,-0.517,192.03,0.480000
21:47:50:106,-0.004,-0.024,0.983,0.001,-0.002,-0.001,-0.436,0.280,-0.517,191.93,-0.100000
21:47:50:117,-0.003,-0.023,0.982,0.001,-0.001,-0.001,-0.433,0.279,-0.512,191.88,-0.050000
21:47:50:128,-0.002,-0.024,0.983,0.001,-0.001,-0.000,-0.431,0.277,-0.517,191.80,-0.080000
21:47:50:139,-0.004,-0.024,0.981,0.001,-0.001,-0.001,-0.431,0.280,-0.514,191.89,0.090000
21:47:50:150,-0.002,-0.023,0.982,0.001,-0.001,-0.001,-0.431,0.282,-0.516,191.59,-0.300000
21:47:50:161,-0.003,-0.023,0.983,0.000,-0.002,-0.001,-0.429,0.276,-0.512,192.10,0.510000
21:47:50:172,-0.002,-0.023,0.983,0.001,-0.002,-0.000,-0.431,0.274,-0.515,191.62,-0.480000
21:47:50:183,-0.002,-0.023,0.982,0.001,-0.001,-0.000,-0.431,0.274,-0.515,191.96,0.340000
21:47:50:194,-0.003,-0.024,0.981,0.000,-0.001,-0.001,-0.435,0.278,-0.521,191.42,-0.540000
21:47:50:205,-0.003,-0.025,0.982,0.001,-0.001,-0.001,-0.433,0.279,-0.514,191.50,0.080000
21:47:50:216,-0.003,-0.023,0.982,0.001,-0.002,-0.000,-0.431,0.284,-0.518,192.09,0.590000
21:47:50:227,-0.003,-0.023,0.983,0.000,-0.002,-0.001,-0.429,0.281,-0.511,192.21,0.120000
21:47:50:238,-0.002,-0.022,0.983,0.000,-0.001,-0.000,-0.430,0.276,-0.512,191.83,-0.380000
21:47:50:249,-0.002,-0.023,0.982,0.001,-0.002,-0.001,-0.433,0.277,-0.518,192.11,0.280000
21:47:50:260,-0.003,-0.023,0.980,0.001,-0.002,-0.001,-0.433,0.277,-0.518,191.82,-0.290000
21:47:50:271,-0.004,-0.023,0.982,0.001,-0.002,-0.000,-0.431,0.276,-0.515,191.80,-0.020000
21:47:50:282,-0.003,-0.023,0.982,0.001,-0.002,-0.001,-0.429,0.279,-0.508,191.55,-0.250000
21:47:50:293,-0.001,-0.023,0.982,0.001,-0.002,-0.001,-0.426,0.277,-0.504,191.88,0.330000
21:47:50:304,-0.003,-0.023,0.983,0.001,-0.002,-0.001,-0.426,0.278,-0.515,191.76,-0.120000
21:47:50:315,-0.002,-0.023,0.982,0.001,-0.001,-0.001,-0.427,0.279,-0.520,192.35,0.590000
21:47:50:326,-0.003,-0.024,0.981,0.001,-0.002,-0.001,-0.429,0.278,-0.514,192.18,-0.170000
21:47:50:337,-0.002,-0.023,0.982,0.001,-0.002,-0.001,-0.429,0.278,-0.514,191.65,-0.530000
21:47:50:348,-0.003,-0.025,0.982,0.001,-0.002,-0.000,-0.429,0.283,-0.518,191.71,0.060000
21:47:50:359,-0.004,-0.022,0.984,0.001,-0.002,-0.001,-0.427,0.280,-0.510,192.00,0.290000
21:47:50:370,-0.003,-0.023,0.982,0.001,-0.002,-0.000,-0.426,0.279,-0.513,191.73,-0.270000
21:47:50:381,-0.002,-0.023,0.982,0.001,-0.002,-0.001,-0.432,0.277,-0.518,192.21,0.480000
21:47:50:392,-0.002,-0.024,0.981,0.001,-0.001,-0.001,-0.428,0.277,-0.518,191.46,-0.750000
21:47:50:403,-0.003,-0.023,0.982,0.001,-0.001,-0.001,-0.427,0.278,-0.512,192.02,0.560000
21:47:50:414,-0.003,-0.023,0.981,0.001,-0.002,-0.001,-0.427,0.278,-0.512,192.58,0.560000
21:47:50:425,-0.003,-0.023,0.982,0.001,-0.001,-0.001,-0.427,0.277,-0.514,191.26,-1.320000
21:47:50:436,-0.002,-0.023,0.982,0.001,-0.001,-0.001,-0.427,0.282,-0.512,192.10,0.840000
21:47:50:447,-0.003,-0.023,0.981,0.001,-0.002,-0.001,-0.428,0.276,-0.514,191.73,-0.370000
21:47:50:458,-0.003,-0.023,0.982,0.001,-0.001,-0.000,-0.432,0.276,-0.515,191.80,0.070000
21:47:50:469,-0.002,-0.023,0.982,0.001,-0.001,-0.001,-0.431,0.276,-0.513,192.05,0.250000
21:47:50:480,-0.003,-0.023,0.982,0.001,-0.001,-0.001,-0.430,0.279,-0.511,191.45,-0.600000
21:47:50:491,-0.002,-0.023,0.982,0.001,-0.001,-0.001,-0.430,0.279,-0.511,192.08,0.630000
21:47:50:502,-0.003,-0.023,0.983,0.001,-0.002,-0.001,-0.432,0.279,-0.512,191.93,-0.150000
21:47:50:513,-0.002,-0.024,0.982,0.000,-0.002,-0.001,-0.429,0.276,-0.516,192.60,0.670000
21:47:50:524,-0.003,-0.024,0.982,0.001,-0.002,-0.000,-0.434,0.279,-0.515,192.10,-0.500000
21:47:50:535,-0.003,-0.023,0.982,0.000,-0.002,-0.001,-0.433,0.277,-0.516,191.98,-0.120000
21:47:50:546,-0.002,-0.023,0.984,0.001,-0.002,-0.001,-0.431,0.280,-0.511,191.96,-0.020000
21:47:50:557,-0.004,-0.023,0.982,0.001,-0.002,-0.001,-0.430,0.277,-0.517,191.51,-0.450000
21:47:50:568,-0.003,-0.024,0.983,0.001,-0.002,-0.000,-0.430,0.277,-0.517,191.76,0.250000
21:47:50:579,-0.003,-0.023,0.983,0.001,-0.002,-0.001,-0.430,0.277,-0.516,191.85,0.090000
21:47:50:590,-0.003,-0.023,0.982,0.001,-0.002,-0.001,-0.430,0.278,-0.512,191.36,-0.490000
21:47:50:601,-0.002,-0.023,0.982,0.001,-0.002,-0.001,-0.427,0.279,-0.514,191.05,-0.310000
21:47:50:612,-0.002,-0.023,0.982,0.001,-0.001,-0.001,-0.430,0.276,-0.515,191.63,0.580000
21:47:50:623,-0.002,-0.024,0.982,0.000,-0.002,-0.001,-0.430,0.278,-0.513,191.87,0.240000
21:47:50:634,-0.002,-0.023,0.981,0.001,-0.002,-0.001,-0.426,0.278,-0.512,191.85,-0.020000
21:47:50:645,-0.002,-0.024,0.981,0.001,-0.002,-0.001,-0.426,0.280,-0.515,191.63,-0.220000
21:47:50:656,-0.003,-0.024,0.981,0.001,-0.001,-0.001,-0.429,0.280,-0.515,192.03,0.400000
21:47:50:667,-0.003,-0.023,0.983,0.001,-0.001,-0.001,-0.426,0.278,-0.517,191.94,-0.090000
21:47:50:678,-0.003,-0.023,0.981,0.001,-0.001,-0.001,-0.426,0.279,-0.515,192.04,0.100000
21:47:50:689,-0.002,-0.022,0.982,0.001,-0.002,-0.001,-0.430,0.283,-0.515,191.90,-0.140000
21:47:50:700,-0.002,-0.023,0.981,0.001,-0.001,-0.001,-0.431,0.280,-0.514,191.82,-0.080000
21:47:50:711,-0.003,-0.023,0.982,0.001,-0.001,-0.001,-0.431,0.279,-0.515,192.12,0.300000
21:47:50:722,-0.004,-0.022,0.981,0.000,-0.002,-0.001,-0.432,0.279,-0.514,191.96,-0.160000
21:47:50:733,-0.003,-0.022,0.982,0.001,-0.002,-0.001,-0.432,0.279,-0.514,192.06,0.100000
21:47:50:744,-0.003,-0.023,0.982,0.001,-0.002,-0.001,-0.432,0.279,-0.515,191.66,-0.400000
21:47:50:755,-0.002,-0.023,0.983,0.001,-0.002,-0.001,-0.432,0.280,-0.523,191.16,-0.500000
21:47:50:766,-0.002,-0.023,0.982,0.001,-0.002,-0.001,-0.435,0.279,-0.518,191.90,0.740000
21:47:50:777,-0.001,-0.024,0.981,0.002,-0.002,-0.001,-0.431,0.281,-0.519,192.05,0.150000
21:47:50:788,-0.003,-0.023,0.983,0.001,-0.002,-0.000,-0.432,0.280,-0.517,192.17,0.120000
21:47:50:799,-0.004,-0.023,0.982,0.000,-0.002,-0.001,-0.433,0.280,-0.517,191.90,-0.270000
21:47:50:810,-0.002,-0.023,0.982,0.001,-0.002,-0.001,-0.433,0.280,-0.517,191.47,-0.430000
21:47:50:821,-0.003,-0.023,0.982,0.001,-0.001,-0.001,-0.430,0.277,-0.513,191.45,-0.020000
21:47:50:832,-0.003,-0.023,0.982,0.001,-0.002,-0.001,-0.431,0.281,-0.511,191.21,-0.240000
21:47:50:843,-0.003,-0.024,0.983,0.001,-0.002,-0.001,-0.433,0.277,-0.510,192.22,1.010000
21:47:50:854,-0.003,-0.023,0.982,0.001,-0.002,-0.000,-0.427,0.278,-0.514,191.74,-0.480000
21:47:50:865,-0.003,-0.024,0.981,0.001,-0.002,-0.001,-0.429,0.276,-0.518,191.52,-0.220000
21:47:50:876,-0.003,-0.023,0.982,0.001,-0.001,-0.001,-0.428,0.284,-0.515,192.07,0.550000
21:47:50:887,-0.002,-0.024,0.981,0.000,-0.002,-0.001,-0.428,0.284,-0.515,191.08,-0.990000
21:47:50:898,-0.002,-0.024,0.982,0.000,-0.002,-0.000,-0.428,0.278,-0.512,191.75,0.670000
21:47:50:909,-0.004,-0.024,0.982,0.001,-0.001,-0.001,-0.432,0.279,-0.517,192.11,0.360000
21:47:50:920,-0.002,-0.025,0.983,0.001,-0.002,-0.001,-0.431,0.280,-0.518,191.51,-0.600000
21:47:50:931,-0.002,-0.023,0.982,0.001,-0.002,-0.001,-0.427,0.281,-0.515,192.05,0.540000
21:47:50:942,-0.004,-0.022,0.982,0.001,-0.002,-0.001,-0.433,0.278,-0.528,192.20,0.150000
21:47:50:953,-0.002,-0.023,0.983,0.001,-0.001,-0.000,-0.431,0.281,-0.516,191.39,-0.810000
21:47:50:964,-0.002,-0.023,0.983,0.001,-0.002,-0.001,-0.431,0.281,-0.516,192.18,0.790000
21:47:50:975,-0.003,-0.024,0.981,0.001,-0.001,-0.001,-0.427,0.283,-0.514,191.13,-1.050000
21:47:50:986,-0.002,-0.024,0.982,0.001,-0.002,-0.001,-0.428,0.280,-0.509,191.23,0.100000
21:47:50:997,-0.003,-0.023,0.982,0.001,-0.002,-0.001,-0.428,0.274,-0.515,191.65,0.420000
21:47:51:008,-0.003,-0.023,0.982,0.001,-0.002,-0.001,-0.429,0.279,-0.513,192.37,0.720000
21:47:51:019,-0.003,-0.023,0.984,0.000,-0.001,-0.001,-0.432,0.278,-0.512,191.82,-0.550000
21:47:51:030,-0.003,-0.022,0.984,0.001,-0.001,-0.001,-0.431,0.281,-0.511,191.94,0.120000
21:47:51:041,-0.003,-0.022,0.981,0.001,-0.002,-0.001,-0.431,0.281,-0.511,191.67,-0.270000
21:47:51:052,-0.004,-0.022,0.983,0.001,-0.002,-0.001,-0.433,0.280,-0.511,192.23,0.560000
21:47:51:063,-0.003,-0.024,0.982,0.001,-0.002,-0.001,-0.425,0.282,-0.510,191.51,-0.720000
21:47:51:074,-0.002,-0.023,0.982,0.001,-0.002,-0.001,-0.430,0.283,-0.512,192.65,1.140000
21:47:51:085,-0.002,-0.024,0.982,0.001,-0.002,-0.001,-0.429,0.282,-0.510,191.73,-0.920000
21:47:51:096,-0.003,-0.022,0.982,0.001,-0.002,-0.001,-0.430,0.282,-0.517,191.49,-0.240000
21:47:51:107,-0.003,-0.024,0.983,0.001,-0.002,-0.001,-0.429,0.286,-0.517,192.13,0.640000
21:47:51:118,-0.003,-0.024,0.984,0.001,-0.002,-0.001,-0.429,0.286,-0.517,191.74,-0.390000
21:47:51:129,-0.003,-0.023,0.982,0.001,-0.002,-0.001,-0.429,0.277,-0.510,192.63,0.890000
21:47:51:140,-0.001,-0.023,0.983,0.001,-0.002,-0.001,-0.431,0.282,-0.513,191.87,-0.760000
21:47:51:151,-0.002,-0.023,0.982,0.001,-0.002,-0.001,-0.431,0.280,-0.510,191.98,0.110000
21:47:51:162,-0.003,-0.023,0.982,0.001,-0.001,-0.001,-0.429,0.278,-0.515,192.23,0.250000
21:47:51:173,-0.002,-0.022,0.983,0.000,-0.001,-0.001,-0.428,0.278,-0.510,191.70,-0.530000
21:47:51:184,-0.002,-0.022,0.983,0.000,-0.002,-0.001,-0.431,0.279,-0.507,192.46,0.760000
21:47:51:195,-0.002,-0.022,0.982,0.001,-0.001,-0.001,-0.431,0.279,-0.507,191.52,-0.940000
21:47:51:206,-0.002,-0.023,0.981,0.001,-0.002,-0.001,-0.427,0.275,-0.505,192.04,0.520000
21:47:51:217,-0.002,-0.024,0.983,0.000,-0.002,-0.001,-0.427,0.280,-0.506,191.96,-0.080000
21:47:51:228,-0.002,-0.023,0.982,0.001,-0.002,-0.001,-0.433,0.282,-0.509,191.40,-0.560000
21:47:51:239,-0.002,-0.023,0.981,0.001,-0.002,-0.001,-0.425,0.280,-0.513,192.46,1.060000
21:47:51:250,-0.002,-0.023,0.983,0.001,-0.002,-0.001,-0.428,0.280,-0.511,191.75,-0.710000
21:47:51:261,-0.002,-0.023,0.981,0.000,-0.002,-0.001,-0.431,0.282,-0.507,191.79,0.040000
21:47:51:272,-0.002,-0.022,0.981,0.000,-0.002,-0.001,-0.431,0.281,-0.507,192.03,0.240000
21:47:51:283,-0.002,-0.024,0.983,0.001,-0.001,-0.001,-0.431,0.281,-0.507,191.68,-0.350000
21:47:51:294,-0.004,-0.023,0.982,0.001,-0.002,-0.001,-0.433,0.281,-0.512,191.78,0.100000
21:47:51:305,-0.003,-0.025,0.982,0.001,-0.002,-0.001,-0.429,0.278,-0.511,191.78,0.000000
21:47:51:316,-0.002,-0.023,0.981,0.001,-0.002,-0.001,-0.428,0.278,-0.515,191.74,-0.040000
21:47:51:327,-0.001,-0.023,0.982,0.001,-0.002,-0.001,-0.433,0.282,-0.512,192.30,0.560000
21:47:51:338,-0.002,-0.024,0.983,0.001,-0.002,-0.000,-0.432,0.279,-0.513,191.85,-0.450000
21:47:51:349,-0.003,-0.023,0.981,0.001,-0.002,-0.001,-0.430,0.277,-0.521,191.60,-0.250000
21:47:51:360,-0.003,-0.023,0.982,0.001,-0.002,-0.001,-0.430,0.277,-0.521,192.31,0.710000
21:47:51:371,-0.003,-0.024,0.983,0.000,-0.002,-0.001,-0.431,0.274,-0.518,191.93,-0.380000
21:47:51:382,-0.002,-0.024,0.981,0.001,-0.002,-0.001,-0.428,0.277,-0.513,192.11,0.180000
21:47:51:393,-0.002,-0.024,0.981,0.001,-0.002,-0.001,-0.432,0.277,-0.515,191.98,-0.130000
21:47:51:404,-0.003,-0.023,0.983,0.001,-0.002,-0.000,-0.427,0.278,-0.509,191.62,-0.360000
21:47:51:415,-0.003,-0.022,0.985,0.001,-0.002,-0.001,-0.435,0.279,-0.506,191.72,0.100000
21:47:51:426,-0.003,-0.024,0.983,0.000,-0.001,-0.001,-0.437,0.279,-0.515,191.50,-0.220000
21:47:51:437,-0.002,-0.023,0.981,0.001,-0.001,-0.001,-0.437,0.279,-0.515,192.25,0.750000
21:47:51:448,-0.002,-0.023,0.981,0.001,-0.002,-0.001,-0.435,0.279,-0.514,192.04,-0.210000
21:47:51:459,-0.003,-0.023,0.982,0.001,-0.002,-0.001,-0.433,0.281,-0.509,191.59,-0.450000
21:47:51:470,-0.002,-0.023,0.981,0.001,-0.002,-0.000,-0.434,0.279,-0.511,191.84,0.250000
21:47:51:481,-0.003,-0.022,0.983,0.001,-0.002,-0.001,-0.428,0.282,-0.516,191.11,-0.730000
21:47:51:492,-0.003,-0.023,0.982,0.001,-0.002,-0.001,-0.428,0.278,-0.510,191.86,0.750000
21:47:51:503,-0.003,-0.023,0.982,0.001,-0.001,-0.001,-0.432,0.280,-0.515,191.76,-0.100000
21:47:51:514,-0.003,-0.024,0.982,0.000,-0.001,-0.001,-0.432,0.280,-0.515,191.99,0.230000
21:47:51:525,-0.003,-0.023,0.982,0.001,-0.001,-0.001,-0.434,0.281,-0.513,191.56,-0.430000
21:47:51:536,-0.002,-0.024,0.982,0.001,-0.002,-0.001,-0.431,0.277,-0.515,192.44,0.880000
21:47:51:547,-0.003,-0.024,0.983,0.000,-0.001,-0.001,-0.436,0.279,-0.514,192.07,-0.370000
21:47:51:558,-0.003,-0.023,0.982,0.001,-0.002,-0.001,-0.431,0.278,-0.519,192.13,0.060000
21:47:51:569,-0.003,-0.024,0.983,0.001,-0.002,-0.001,-0.433,0.279,-0.516,191.68,-0.450000
21:47:51:580,-0.002,-0.022,0.983,0.001,-0.002,-0.001,-0.434,0.276,-0.516,191.54,-0.140000
21:47:51:591,-0.003,-0.023,0.983,0.001,-0.001,-0.001,-0.434,0.276,-0.516,191.60,0.060000
21:47:51:602,-0.002,-0.023,0.982,0.001,-0.002,-0.001,-0.435,0.279,-0.512,190.80,-0.800000
21:47:51:613,-0.002,-0.023,0.981,0.001,-0.002,-0.001,-0.427,0.277,-0.517,191.41,0.610000
21:47:51:624,-0.003,-0.024,0.983,0.001,-0.001,-0.000,-0.429,0.281,-0.519,191.96,0.550000
21:47:51:635,-0.002,-0.023,0.983,0.001,-0.002,-0.001,-0.426,0.277,-0.512,191.92,-0.040000
21:47:51:646,-0.002,-0.022,0.981,0.001,-0.001,-0.001,-0.433,0.275,-0.512,192.33,0.410000
21:47:51:657,-0.002,-0.022,0.981,0.001,-0.002,-0.001,-0.438,0.277,-0.513,191.52,-0.810000
21:47:51:668,-0.004,-0.023,0.984,0.001,-0.002,-0.001,-0.438,0.277,-0.513,192.05,0.530000
21:47:51:679,-0.003,-0.023,0.983,0.001,-0.002,-0.001,-0.432,0.278,-0.515,191.94,-0.110000
21:47:51:690,-0.003,-0.024,0.982,0.001,-0.002,-0.001,-0.431,0.276,-0.516,190.97,-0.970000
21:47:51:701,-0.002,-0.023,0.982,0.002,-0.002,-0.001,-0.433,0.275,-0.517,191.65,0.680000
21:47:51:712,-0.003,-0.023,0.982,0.001,-0.001,-0.001,-0.435,0.278,-0.515,191.60,-0.050000
21:47:51:723,-0.003,-0.023,0.982,0.001,-0.001,-0.001,-0.431,0.277,-0.511,192.02,0.420000
21:47:51:734,-0.002,-0.023,0.981,0.001,-0.002,-0.001,-0.431,0.280,-0.515,192.20,0.180000
21:47:51:745,-0.003,-0.023,0.981,0.001,-0.002,-0.001,-0.431,0.280,-0.515,191.15,-1.050000
21:47:51:756,-0.003,-0.023,0.981,0.001,-0.001,-0.001,-0.427,0.275,-0.514,192.16,1.010000
21:47:51:767,-0.002,-0.022,0.982,0.001,-0.002,-0.001,-0.432,0.278,-0.512,191.81,-0.350000
21:47:51:778,-0.004,-0.024,0.980,0.001,-0.002,-0.001,-0.428,0.275,-0.514,191.52,-0.290000
21:47:51:789,-0.003,-0.024,0.982,0.001,-0.002,-0.001,-0.432,0.277,-0.511,191.18,-0.340000
21:47:51:800,-0.003,-0.024,0.983,0.001,-0.002,-0.000,-0.430,0.280,-0.512,191.82,0.640000
21:47:51:811,-0.001,-0.025,0.982,0.001,-0.002,-0.001,-0.430,0.280,-0.505,191.61,-0.210000
21:47:51:822,-0.002,-0.024,0.981,0.001,-0.001,-0.001,-0.430,0.280,-0.505,191.79,0.180000
21:47:51:833,-0.002,-0.022,0.982,0.001,-0.002,-0.000,-0.437,0.275,-0.512,192.15,0.360000
21:47:51:844,-0.002,-0.024,0.981,0.001,-0.002,-0.001,-0.428,0.272,-0.509,191.70,-0.450000
21:47:51:855,-0.003,-0.024,0.983,0.001,-0.002,-0.001,-0.428,0.278,-0.512,191.36,-0.340000
21:47:51:866,-0.003,-0.023,0.982,0.000,-0.002,-0.001,-0.427,0.277,-0.513,191.42,0.060000
21:47:51:877,-0.002,-0.024,0.983,0.001,-0.001,-0.001,-0.435,0.277,-0.510,191.65,0.230000
21:47:51:888,-0.004,-0.024,0.980,0.000,-0.002,-0.001,-0.436,0.272,-0.505,191.70,0.050000
21:47:51:899,-0.003,-0.022,0.983,0.001,-0.002,-0.001,-0.436,0.278,-0.505,191.51,-0.190000
21:47:51:910,-0.002,-0.024,0.982,0.001,-0.002,-0.001,-0.433,0.278,-0.505,191.63,0.120000
21:47:51:921,-0.002,-0.024,0.982,0.001,-0.002,-0.001,-0.433,0.276,-0.510,192.29,0.660000
21:47:51:932,-0.002,-0.024,0.982,0.000,-0.002,-0.001,-0.433,0.281,-0.512,191.71,-0.580000
21:47:51:943,-0.003,-0.023,0.981,0.001,-0.002,-0.001,-0.430,0.280,-0.508,191.11,-0.600000
21:47:51:954,-0.001,-0.024,0.982,0.001,-0.002,-0.001,-0.431,0.280,-0.515,191.81,0.700000
21:47:51:965,-0.003,-0.023,0.983,0.001,-0.001,-0.001,-0.436,0.277,-0.506,191.52,-0.290000
21:47:51:976,-0.003,-0.023,0.982,0.001,-0.002,-0.001,-0.431,0.277,-0.514,192.16,0.640000
21:47:51:987,-0.003,-0.024,0.982,0.001,-0.002,-0.001,-0.431,0.277,-0.514,192.52,0.360000
21:47:51:998,-0.003,-0.024,0.983,0.001,-0.002,-0.001,-0.436,0.278,-0.515,192.00,-0.520000
21:47:52:009,-0.002,-0.023,0.982,0.001,-0.001,-0.001,-0.434,0.275,-0.511,192.55,0.550000
21:47:52:020,-0.003,-0.024,0.983,0.001,-0.001,-0.001,-0.435,0.275,-0.512,191.82,-0.730000
21:47:52:031,-0.003,-0.022,0.981,0.001,-0.002,-0.001,-0.436,0.275,-0.524,192.51,0.690000
21:47:52:042,-0.004,-0.023,0.982,0.001,-0.001,-0.001,-0.434,0.276,-0.513,191.77,-0.740000
21:47:52:053,-0.002,-0.023,0.983,0.001,-0.002,-0.001,-0.434,0.277,-0.507,191.50,-0.270000
21:47:52:064,-0.001,-0.024,0.983,0.001,-0.002,-0.001,-0.434,0.277,-0.507,191.37,-0.130000
21:47:52:075,-0.002,-0.023,0.982,0.001,-0.002,-0.001,-0.436,0.277,-0.520,191.36,-0.010000
21:47:52:086,-0.002,-0.023,0.983,0.000,-0.002,-0.001,-0.434,0.276,-0.519,191.72,0.360000
21:47:52:097,-0.003,-0.024,0.982,0.001,-0.002,-0.001,-0.430,0.282,-0.515,191.84,0.120000
21:47:52:108,-0.002,-0.023,0.983,0.001,-0.002,-0.001,-0.433,0.279,-0.511,192.10,0.260000
21:47:52:119,-0.002,-0.024,0.982,0.001,-0.002,-0.001,-0.431,0.281,-0.516,192.21,0.110000
21:47:52:130,-0.001,-0.023,0.983,0.001,-0.002,-0.001,-0.428,0.276,-0.513,191.67,-0.540000
21:47:52:141,-0.002,-0.023,0.982,0.001,-0.002,-0.000,-0.428,0.276,-0.513,191.69,0.020000
21:47:52:152,-0.001,-0.023,0.983,0.001,-0.002,-0.001,-0.429,0.278,-0.511,191.31,-0.380000
21:47:52:163,-0.002,-0.023,0.983,0.001,-0.002,-0.001,-0.435,0.276,-0.514,191.79,0.480000
21:47:52:174,-0.003,-0.023,0.983,0.001,-0.002,-0.001,-0.431,0.273,-0.510,191.51,-0.280000
21:47:52:185,-0.002,-0.023,0.981,0.001,-0.001,-0.001,-0.432,0.278,-0.507,191.88,0.370000
21:47:52:196,-0.002,-0.023,0.982,0.001,-0.001,-0.001,-0.437,0.278,-0.505,191.93,0.050000
21:47:52:207,-0.002,-0.023,0.981,0.001,-0.002,-0.001,-0.435,0.275,-0.510,191.12,-0.810000
21:47:52:218,-0.001,-0.023,0.982,0.001,-0.002,-0.001,-0.435,0.275,-0.510,191.72,0.600000
21:47:52:229,-0.002,-0.022,0.982,0.001,-0.002,-0.001,-0.432,0.276,-0.510,192.08,0.360000
21:47:52:240,-0.003,-0.024,0.983,0.001,-0.002,-0.001,-0.434,0.276,-0.511,191.95,-0.130000
21:47:52:251,-0.003,-0.024,0.982,0.001,-0.002,-0.001,-0.431,0.279,-0.508,191.41,-0.540000
21:47:52:262,-0.003,-0.022,0.981,0.001,-0.002,-0.001,-0.429,0.280,-0.507,191.93,0.520000
21:47:52:273,-0.004,-0.024,0.983,0.001,-0.002,-0.001,-0.432,0.280,-0.513,191.33,-0.600000
21:47:52:284,-0.003,-0.024,0.982,0.001,-0.002,-0.001,-0.431,0.277,-0.510,192.22,0.890000
21:47:52:295,-0.002,-0.024,0.983,0.001,-0.002,-0.000,-0.431,0.277,-0.510,191.49,-0.730000
21:47:52:306,-0.002,-0.024,0.982,0.001,-0.002,-0.000,-0.434,0.279,-0.502,191.61,0.120000
21:47:52:317,-0.003,-0.024,0.982,0.001,-0.002,-0.000,-0.434,0.275,-0.507,191.65,0.040000
21:47:52:328,-0.004,-0.024,0.982,0.001,-0.002,-0.000,-0.434,0.277,-0.508,192.08,0.430000
21:47:52:339,-0.003,-0.023,0.981,0.001,-0.002,-0.001,-0.430,0.277,-0.513,191.55,-0.530000
21:47:52:350,-0.003,-0.023,0.982,0.000,-0.002,-0.001,-0.433,0.281,-0.505,191.30,-0.250000
21:47:52:361,-0.003,-0.022,0.984,0.001,-0.001,-0.000,-0.435,0.284,-0.507,192.19,0.890000
21:47:52:372,-0.002,-0.025,0.982,0.001,-0.002,-0.001,-0.435,0.284,-0.507,192.28,0.090000
21:47:52:383,-0.001,-0.023,0.982,0.001,-0.002,-0.001,-0.437,0.278,-0.514,192.40,0.120000
21:47:52:394,-0.002,-0.023,0.982,0.001,-0.002,-0.001,-0.435,0.280,-0.515,192.20,-0.200000
21:47:52:405,-0.001,-0.024,0.981,0.001,-0.001,-0.000,-0.437,0.281,-0.512,191.79,-0.410000
21:47:52:416,-0.002,-0.025,0.982,0.001,-0.001,-0.001,-0.431,0.279,-0.512,191.83,0.040000
21:47:52:427,-0.003,-0.023,0.982,0.000,-0.001,-0.001,-0.432,0.277,-0.513,191.80,-0.030000
21:47:52:438,-0.002,-0.024,0.983,0.001,-0.002,-0.000,-0.432,0.280,-0.518,191.54,-0.260000
21:47:52:449,-0.002,-0.023,0.982,0.001,-0.002,-0.001,-0.432,0.280,-0.518,191.57,0.030000
21:47:52:460,-0.003,-0.023,0.982,0.001,-0.002,-0.001,-0.434,0.280,-0.520,192.48,0.910000
21:47:52:471,-0.003,-0.022,0.982,0.001,-0.001,-0.001,-0.432,0.279,-0.516,191.63,-0.850000
21:47:52:482,-0.003,-0.024,0.981,0.001,-0.002,-0.001,-0.429,0.282,-0.515,191.99,0.360000
21:47:52:493,-0.003,-0.023,0.981,0.001,-0.002,-0.001,-0.430,0.281,-0.511,191.73,-0.260000
21:47:52:504,-0.002,-0.023,0.982,0.001,-0.002,-0.001,-0.432,0.278,-0.514,191.56,-0.170000
21:47:52:515,-0.003,-0.023,0.982,0.001,-0.001,-0.001,-0.434,0.276,-0.513,192.30,0.740000
21:47:52:526,-0.002,-0.023,0.980,0.001,-0.002,-0.001,-0.434,0.276,-0.514,191.59,-0.710000
21:47:52:537,-0.002,-0.024,0.982,0.001,-0.002,-0.001,-0.430,0.276,-0.514,191.87,0.280000
21:47:52:548,-0.002,-0.023,0.982,0.001,-0.001,-0.001,-0.432,0.281,-0.512,191.46,-0.410000
21:47:52:559,-0.003,-0.023,0.983,0.001,-0.002,-0.001,-0.432,0.277,-0.513,191.86,0.400000
21:47:52:570,-0.002,-0.022,0.981,0.001,-0.002,-0.001,-0.433,0.283,-0.516,191.35,-0.510000
21:47:52:581,-0.003,-0.022,0.982,0.001,-0.002,-0.001,-0.433,0.278,-0.509,191.62,0.270000
21:47:52:592,-0.002,-0.023,0.981,0.001,-0.001,-0.001,-0.438,0.279,-0.508,191.98,0.360000
21:47:52:603,-0.002,-0.024,0.981,0.001,-0.001,-0.001,-0.438,0.280,-0.514,191.86,-0.120000
21:47:52:614,-0.003,-0.023,0.981,0.001,-0.001,-0.001,-0.433,0.280,-0.514,192.42,0.560000
21:47:52:625,-0.002,-0.022,0.982,0.001,-0.002,-0.001,-0.438,0.275,-0.512,191.71,-0.710000
21:47:52:636,-0.002,-0.023,0.982,0.001,-0.002,-0.001,-0.436,0.276,-0.511,190.97,-0.740000
21:47:52:647,-0.002,-0.023,0.982,0.001,-0.002,-0.001,-0.435,0.276,-0.508,191.93,0.960000
21:47:52:658,-0.001,-0.022,0.982,0.001,-0.002,-0.001,-0.438,0.277,-0.520,191.95,0.020000
21:47:52:669,-0.003,-0.023,0.983,0.000,-0.002,-0.001,-0.433,0.279,-0.521,190.90,-1.050000
21:47:52:680,-0.002,-0.024,0.982,0.001,-0.001,-0.001,-0.433,0.275,-0.514,191.86,0.960000
21:47:52:691,-0.002,-0.024,0.981,0.001,-0.002,-0.001,-0.433,0.275,-0.514,191.15,-0.710000
21:47:52:702,-0.003,-0.024,0.983,0.001,-0.002,-0.001,-0.436,0.277,-0.515,191.37,0.220000
21:47:52:713,-0.001,-0.023,0.982,0.001,-0.002,-0.001,-0.432,0.276,-0.514,191.90,0.530000
21:47:52:724,-0.002,-0.024,0.982,0.001,-0.002,-0.001,-0.436,0.280,-0.512,191.67,-0.230000
21:47:52:735,-0.003,-0.024,0.982,0.001,-0.002,-0.001,-0.435,0.279,-0.512,191.67,0.000000
21:47:52:746,-0.003,-0.024,0.982,0.001,-0.002,-0.001,-0.433,0.281,-0.512,191.44,-0.230000
21:47:52:757,-0.003,-0.023,0.981,0.001,-0.001,-0.001,-0.436,0.281,-0.511,191.60,0.160000
21:47:52:768,-0.004,-0.023,0.983,0.001,-0.001,-0.001,-0.436,0.281,-0.511,191.39,-0.210000
21:47:52:779,-0.003,-0.023,0.983,0.000,-0.001,-0.001,-0.431,0.278,-0.512,191.80,0.410000
21:47:52:791,-0.002,-0.023,0.982,0.001,-0.001,-0.001,-0.435,0.277,-0.511,191.25,-0.550000
21:47:52:801,-0.003,-0.023,0.983,0.000,-0.002,-0.001,-0.432,0.279,-0.512,191.74,0.490000
21:47:52:812,-0.003,-0.024,0.982,0.001,-0.002,-0.001,-0.431,0.280,-0.512,192.62,0.880000
21:47:52:823,-0.003,-0.022,0.982,0.001,-0.002,-0.001,-0.434,0.281,-0.511,192.23,-0.390000
21:47:52:834,-0.003,-0.022,0.981,0.001,-0.002,-0.001,-0.435,0.280,-0.509,191.98,-0.250000
21:47:52:845,-0.003,-0.023,0.982,0.001,-0.001,-0.001,-0.435,0.280,-0.509,191.38,-0.600000
21:47:52:856,-0.003,-0.023,0.982,0.001,-0.001,-0.001,-0.431,0.280,-0.507,191.63,0.250000
21:47:52:867,-0.003,-0.024,0.983,0.001,-0.002,-0.001,-0.429,0.283,-0.511,191.20,-0.430000
21:47:52:878,-0.003,-0.023,0.982,0.001,-0.002,-0.001,-0.432,0.282,-0.510,191.75,0.550000
21:47:52:889,-0.002,-0.022,0.982,0.001,-0.002,-0.001,-0.429,0.282,-0.520,191.22,-0.530000
21:47:52:900,-0.002,-0.023,0.983,0.001,-0.002,-0.001,-0.434,0.283,-0.520,191.30,0.080000
21:47:52:911,-0.002,-0.024,0.983,0.001,-0.002,-0.001,-0.434,0.281,-0.515,190.86,-0.440000
21:47:52:922,-0.003,-0.023,0.983,0.001,-0.002,-0.001,-0.434,0.281,-0.515,191.93,1.070000
21:47:52:933,-0.003,-0.022,0.982,0.000,-0.001,-0.000,-0.437,0.282,-0.519,191.41,-0.520000
21:47:52:944,-0.003,-0.024,0.983,0.001,-0.002,-0.001,-0.431,0.278,-0.518,191.40,-0.010000
21:47:52:955,-0.002,-0.024,0.981,0.000,-0.002,-0.001,-0.429,0.280,-0.514,191.90,0.500000
21:47:52:966,-0.001,-0.023,0.982,0.001,-0.002,-0.000,-0.435,0.279,-0.509,190.82,-1.080000
21:47:52:977,-0.002,-0.023,0.982,0.001,-0.002,-0.000,-0.437,0.277,-0.516,191.95,1.130000
21:47:52:988,-0.003,-0.024,0.981,0.001,-0.002,-0.001,-0.435,0.277,-0.518,191.99,0.040000
21:47:52:999,-0.003,-0.024,0.982,0.001,-0.002,-0.001,-0.435,0.277,-0.518,191.68,-0.310000
21:47:53:010,-0.002,-0.024,0.982,0.001,-0.002,-0.001,-0.431,0.278,-0.512,191.58,-0.100000
21:47:53:021,-0.004,-0.022,0.981,0.001,-0.002,-0.001,-0.430,0.278,-0.509,192.18,0.600000
21:47:53:032,-0.002,-0.023,0.982,0.001,-0.002,-0.001,-0.431,0.279,-0.512,191.47,-0.710000
21:47:53:043,-0.003,-0.023,0.982,0.001,-0.002,-0.000,-0.429,0.280,-0.509,190.97,-0.500000
21:47:53:054,-0.003,-0.023,0.981,0.001,-0.002,-0.001,-0.427,0.279,-0.512,191.62,0.650000
21:47:53:065,-0.002,-0.024,0.981,0.001,-0.002,-0.001,-0.426,0.280,-0.512,192.17,0.550000
21:47:53:076,-0.003,-0.023,0.983,0.001,-0.001,-0.001,-0.426,0.280,-0.512,192.09,-0.080000
21:47:53:087,-0.002,-0.023,0.984,0.000,-0.002,-0.001,-0.431,0.278,-0.515,191.40,-0.690000
21:47:53:098,-0.001,-0.023,0.982,0.001,-0.001,-0.001,-0.430,0.275,-0.519,191.03,-0.370000
21:47:53:109,-0.003,-0.023,0.982,0.001,-0.001,-0.001,-0.430,0.280,-0.518,191.47,0.440000
21:47:53:120,-0.002,-0.024,0.983,0.001,-0.002,-0.000,-0.429,0.280,-0.518,191.79,0.320000
21:47:53:131,-0.002,-0.023,0.981,0.001,-0.002,-0.001,-0.432,0.277,-0.515,191.33,-0.460000
21:47:53:142,-0.001,-0.024,0.981,0.001,-0.002,-0.001,-0.431,0.280,-0.515,191.89,0.560000
