t,ax,ay,az,gx,gy,gz,mx,my,mz,altitude,ral
21:25:40:380,-0.000,-0.022,0.981,0.001,-0.001,-0.000,-0.431,0.282,-0.509,192.00,0.000000
21:25:40:382,-0.001,-0.023,0.980,0.001,-0.002,-0.001,-0.432,0.279,-0.507,192.60,0.600000
21:25:40:383,-0.001,-0.023,0.979,0.000,-0.001,-0.001,-0.434,0.286,-0.507,192.15,-0.450000
21:25:40:384,-0.001,-0.022,0.980,0.001,-0.001,-0.001,-0.434,0.284,-0.509,192.19,0.040000
21:25:40:385,-0.001,-0.022,0.982,0.001,-0.002,-0.001,-0.431,0.287,-0.511,191.63,-0.560000
21:25:40:386,-0.001,-0.022,0.980,0.001,-0.002,-0.001,-0.430,0.287,-0.505,191.43,-0.200000
21:25:40:387,-0.000,-0.022,0.981,0.001,-0.002,-0.001,-0.438,0.282,-0.509,192.17,0.740000
21:25:40:388,-0.001,-0.023,0.982,0.000,-0.002,-0.001,-0.438,0.282,-0.509,192.19,0.020000
21:25:40:389,-0.000,-0.021,0.981,0.001,-0.002,-0.001,-0.433,0.286,-0.509,191.87,-0.320000
21:25:40:390,-0.002,-0.021,0.980,0.001,-0.002,-0.001,-0.431,0.287,-0.505,192.12,0.250000
21:25:40:391,-0.001,-0.023,0.982,0.001,-0.001,-0.001,-0.432,0.287,-0.506,191.98,-0.140000
21:25:40:392,0.000,-0.023,0.981,0.001,-0.002,-0.001,-0.434,0.284,-0.502,191.63,-0.350000
21:25:40:393,-0.000,-0.021,0.981,0.001,-0.002,-0.001,-0.431,0.288,-0.504,191.13,-0.500000
21:25:40:395,-0.001,-0.022,0.980,0.000,-0.002,-0.001,-0.428,0.291,-0.507,191.82,0.690000
21:25:40:396,-0.001,-0.022,0.982,0.001,-0.002,-0.001,-0.428,0.291,-0.507,191.76,-0.060000
21:25:40:397,-0.002,-0.022,0.981,0.001,-0.002,-0.001,-0.431,0.288,-0.505,191.97,0.210000
21:25:40:398,0.000,-0.023,0.980,0.001,-0.001,-0.001,-0.429,0.289,-0.506,192.01,0.040000
21:25:40:399,-0.002,-0.021,0.981,0.001,-0.001,-0.001,-0.430,0.283,-0.513,191.64,-0.370000
21:25:40:400,-0.001,-0.021,0.981,0.001,-0.002,-0.001,-0.432,0.282,-0.509,191.52,-0.120000
21:25:40:401,-0.001,-0.022,0.980,0.001,-0.001,-0.001,-0.429,0.284,-0.506,191.66,0.140000
21:25:40:402,-0.000,-0.022,0.980,0.001,-0.002,-0.001,-0.435,0.280,-0.507,192.07,0.410000
21:25:40:403,-0.000,-0.023,0.982,0.001,-0.002,-0.001,-0.435,0.280,-0.507,191.63,-0.440000
21:25:40:404,-0.000,-0.022,0.981,0.001,-0.002,-0.001,-0.434,0.285,-0.502,192.15,0.520000
21:25:40:405,-0.000,-0.023,0.979,0.001,-0.002,-0.001,-0.430,0.282,-0.504,192.03,-0.120000
21:25:40:406,-0.001,-0.022,0.981,0.001,-0.001,-0.001,-0.428,0.278,-0.507,191.51,-0.520000
21:25:40:407,-0.001,-0.021,0.982,0.001,-0.002,-0.001,-0.433,0.283,-0.505,192.45,0.940000
21:25:40:408,-0.001,-0.023,0.978,0.001,-0.001,-0.001,-0.427,0.281,-0.506,191.98,-0.470000
21:25:40:409,-0.000,-0.023,0.981,0.001,-0.001,-0.000,-0.427,0.287,-0.510,191.76,-0.220000
21:25:40:411,-0.001,-0.022,0.981,0.000,-0.001,-0.001,-0.427,0.287,-0.510,191.83,0.070000
21:25:40:412,-0.000,-0.022,0.980,0.001,-0.002,-0.001,-0.428,0.283,-0.505,191.87,0.040000
21:25:40:413,-0.001,-0.023,0.979,0.001,-0.002,-0.001,-0.432,0.283,-0.505,192.31,0.440000
21:25:40:414,-0.001,-0.022,0.981,0.001,-0.002,-0.001,-0.428,0.286,-0.502,192.40,0.090000
21:25:40:415,-0.001,-0.022,0.981,0.001,-0.002,-0.001,-0.431,0.285,-0.507,192.19,-0.210000
21:25:40:416,-0.000,-0.022,0.980,0.001,-0.001,-0.001,-0.426,0.279,-0.503,191.87,-0.320000
21:25:40:417,-0.001,-0.023,0.981,0.000,-0.001,-0.001,-0.429,0.283,-0.509,191.77,-0.100000
21:25:40:418,-0.002,-0.022,0.982,0.001,-0.002,-0.001,-0.429,0.283,-0.509,191.38,-0.390000
21:25:40:419,-0.001,-0.021,0.981,0.001,-0.002,-0.001,-0.428,0.286,-0.508,191.64,0.260000
21:25:40:420,-0.000,-0.022,0.979,0.001,-0.002,-0.001,-0.427,0.287,-0.506,191.59,-0.050000
21:25:40:421,-0.001,-0.023,0.980,0.001,-0.002,-0.001,-0.433,0.283,-0.512,192.11,0.520000
21:25:40:422,0.000,-0.022,0.981,0.001,-0.002,-0.001,-0.430,0.284,-0.508,192.01,-0.100000
21:25:40:423,-0.000,-0.022,0.981,0.000,-0.001,-0.001,-0.431,0.279,-0.509,191.95,-0.060000
21:25:40:424,-0.002,-0.022,0.981,0.001,-0.001,-0.001,-0.434,0.282,-0.516,191.41,-0.540000
21:25:40:425,-0.001,-0.022,0.981,0.001,-0.001,-0.001,-0.434,0.282,-0.516,192.13,0.720000
21:25:40:426,0.001,-0.022,0.981,0.001,-0.001,-0.001,-0.432,0.283,-0.512,192.04,-0.090000
21:25:40:427,-0.001,-0.022,0.979,0.001,-0.001,-0.001,-0.432,0.280,-0.510,192.75,0.710000
21:25:40:428,-0.001,-0.023,0.980,0.001,-0.002,-0.001,-0.433,0.280,-0.505,192.12,-0.630000
21:25:40:430,-0.000,-0.023,0.982,0.001,-0.001,-0.001,-0.435,0.281,-0.503,191.45,-0.670000
21:25:40:431,-0.000,-0.022,0.981,0.001,-0.001,-0.001,-0.432,0.280,-0.505,191.75,0.300000
21:25:40:432,0.001,-0.022,0.980,0.001,-0.001,-0.001,-0.429,0.279,-0.505,191.98,0.230000
21:25:40:433,-0.000,-0.022,0.976,0.001,-0.002,-0.001,-0.429,0.279,-0.505,191.72,-0.260000
21:25:40:434,-0.001,-0.022,0.983,0.000,-0.001,-0.001,-0.426,0.278,-0.507,191.71,-0.010000
21:25:40:435,-0.001,-0.024,0.983,0.001,-0.001,-0.001,-0.426,0.281,-0.508,192.35,0.640000
21:25:40:436,-0.001,-0.023,0.980,0.001,-0.002,-0.001,-0.431,0.279,-0.517,191.54,-0.810000
21:25:40:437,-0.001,-0.024,0.985,0.001,-0.001,-0.001,-0.429,0.281,-0.510,191.26,-0.280000
21:25:40:438,-0.000,-0.022,0.984,0.001,-0.002,-0.001,-0.428,0.278,-0.512,192.28,1.020000
21:25:40:439,0.000,-0.021,0.978,0.001,-0.002,-0.001,-0.427,0.283,-0.509,192.20,-0.080000
21:25:40:440,0.000,-0.022,0.978,0.001,-0.002,-0.001,-0.427,0.283,-0.507,191.80,-0.400000
21:25:40:441,-0.002,-0.023,0.982,0.001,-0.002,-0.001,-0.428,0.282,-0.507,191.15,-0.650000
21:25:40:442,-0.001,-0.022,0.980,0.001,-0.002,-0.001,-0.430,0.283,-0.509,191.71,0.560000
21:25:40:443,-0.000,-0.022,0.978,0.001,-0.002,-0.001,-0.432,0.281,-0.508,192.46,0.750000
21:25:40:444,-0.001,-0.023,0.981,0.000,-0.002,-0.001,-0.429,0.283,-0.507,192.11,-0.350000
21:25:40:445,-0.001,-0.022,0.984,0.001,-0.002,-0.001,-0.431,0.280,-0.500,191.88,-0.230000
21:25:40:446,-0.000,-0.023,0.981,0.001,-0.002,-0.001,-0.431,0.285,-0.504,191.94,0.060000
21:25:40:447,-0.001,-0.023,0.980,0.000,-0.002,-0.000,-0.431,0.280,-0.504,191.69,-0.250000
21:25:40:448,-0.001,-0.023,0.982,0.001,-0.001,-0.001,-0.431,0.280,-0.504,191.49,-0.200000
21:25:40:448,0.000,-0.022,0.981,0.001,-0.002,-0.001,-0.430,0.281,-0.511,191.37,-0.120000
21:25:40:449,-0.001,-0.022,0.981,0.001,-0.002,-0.001,-0.429,0.279,-0.510,191.85,0.480000
21:25:40:450,0.000,-0.023,0.981,0.001,-0.002,-0.001,-0.433,0.280,-0.506,191.41,-0.440000
21:25:40:451,-0.001,-0.023,0.981,0.001,-0.001,-0.001,-0.433,0.279,-0.512,191.81,0.400000
21:25:40:452,-0.001,-0.023,0.979,0.001,-0.002,-0.001,-0.434,0.278,-0.508,191.55,-0.260000
21:25:40:453,-0.001,-0.022,0.981,0.001,-0.002,-0.001,-0.430,0.280,-0.502,191.47,-0.080000
21:25:40:453,-0.002,-0.024,0.981,0.001,-0.002,-0.001,-0.430,0.280,-0.502,192.25,0.780000
21:25:40:454,-0.000,-0.023,0.982,0.000,-0.002,-0.001,-0.431,0.279,-0.501,192.18,-0.070000
21:25:40:455,-0.001,-0.021,0.980,0.000,-0.002,-0.001,-0.435,0.278,-0.506,191.94,-0.240000
21:25:40:456,-0.001,-0.022,0.981,0.001,-0.001,-0.001,-0.433,0.279,-0.501,192.53,0.590000
21:25:40:457,-0.000,-0.022,0.980,0.001,-0.002,-0.001,-0.432,0.282,-0.505,191.04,-1.490000
21:25:40:458,-0.001,-0.022,0.981,0.001,-0.001,-0.001,-0.432,0.283,-0.507,192.16,1.120000
21:25:40:459,0.000,-0.022,0.981,0.001,-0.001,-0.001,-0.433,0.283,-0.511,192.22,0.060000
21:25:40:459,-0.000,-0.022,0.981,0.001,-0.001,-0.001,-0.433,0.283,-0.511,192.12,-0.100000
21:25:40:460,-0.001,-0.023,0.981,0.001,-0.001,-0.001,-0.433,0.281,-0.506,192.07,-0.050000
21:25:40:461,-0.001,-0.023,0.981,0.001,-0.001,-0.001,-0.433,0.282,-0.506,192.24,0.170000
21:25:40:462,-0.001,-0.023,0.982,0.001,-0.002,-0.001,-0.437,0.281,-0.513,191.82,-0.420000
21:25:40:462,-0.001,-0.024,0.980,0.001,-0.002,-0.001,-0.430,0.284,-0.511,192.20,0.380000
21:25:40:463,0.000,-0.022,0.982,0.001,-0.002,-0.001,-0.433,0.280,-0.510,191.99,-0.210000
21:25:40:464,0.000,-0.022,0.980,0.001,-0.002,-0.000,-0.435,0.283,-0.509,191.73,-0.260000
21:25:40:465,-0.001,-0.022,0.981,0.001,-0.001,-0.001,-0.435,0.283,-0.509,191.37,-0.360000
21:25:40:466,-0.000,-0.024,0.981,0.000,-0.001,-0.001,-0.432,0.282,-0.508,192.09,0.720000
21:25:40:466,-0.001,-0.022,0.983,0.000,-0.001,-0.001,-0.433,0.283,-0.502,191.87,-0.220000
21:25:40:467,-0.000,-0.021,0.981,0.001,-0.001,-0.001,-0.434,0.281,-0.508,192.03,0.160000
21:25:40:468,-0.000,-0.021,0.977,0.001,-0.002,-0.001,-0.435,0.280,-0.512,192.63,0.600000
21:25:40:469,-0.000,-0.023,0.986,0.000,-0.002,-0.001,-0.430,0.279,-0.508,191.77,-0.860000
21:25:40:469,0.001,-0.021,0.968,-0.000,-0.001,-0.001,-0.432,0.282,-0.507,191.72,-0.050000
21:25:40:470,-0.000,-0.023,0.986,0.001,-0.001,-0.001,-0.432,0.282,-0.507,191.65,-0.070000
21:25:40:471,-0.000,-0.022,0.978,0.002,-0.002,-0.001,-0.431,0.277,-0.506,192.23,0.580000
21:25:40:471,-0.001,-0.022,0.983,0.001,-0.001,-0.001,-0.432,0.280,-0.509,191.79,-0.440000
21:25:40:472,-0.001,-0.023,0.979,0.001,-0.002,-0.001,-0.425,0.281,-0.510,192.15,0.360000
21:25:40:473,-0.000,-0.022,0.980,0.001,-0.002,-0.001,-0.431,0.278,-0.509,192.33,0.180000
21:25:40:474,-0.001,-0.021,0.981,0.001,-0.002,-0.001,-0.430,0.282,-0.509,191.32,-1.010000
21:25:40:474,-0.001,-0.022,0.983,0.000,-0.002,-0.001,-0.425,0.283,-0.507,191.67,0.350000
21:25:40:475,-0.000,-0.023,0.981,0.001,-0.002,-0.001,-0.425,0.283,-0.507,191.48,-0.190000
21:25:40:476,0.000,-0.023,0.980,0.001,-0.002,-0.001,-0.429,0.278,-0.509,192.26,0.780000
21:25:40:476,-0.001,-0.022,0.982,0.001,-0.001,-0.001,-0.428,0.277,-0.507,192.04,-0.220000
21:25:40:477,-0.001,-0.022,0.981,0.001,-0.001,-0.001,-0.432,0.282,-0.506,191.65,-0.390000
21:25:40:478,-0.001,-0.023,0.980,0.001,-0.001,-0.000,-0.436,0.282,-0.506,190.82,-0.830000
21:25:40:479,-0.000,-0.022,0.982,0.000,-0.001,-0.001,-0.429,0.277,-0.506,192.15,1.330000
21:25:40:479,-0.000,-0.023,0.980,0.001,-0.002,-0.001,-0.430,0.280,-0.499,192.01,-0.140000
21:25:40:480,-0.001,-0.023,0.982,0.001,-0.002,-0.001,-0.430,0.280,-0.499,191.95,-0.060000
21:25:40:481,-0.000,-0.023,0.980,0.001,-0.001,-0.001,-0.429,0.282,-0.508,191.74,-0.210000
21:25:40:481,-0.001,-0.022,0.976,0.000,-0.002,-0.001,-0.433,0.278,-0.513,191.77,0.030000
21:25:40:482,-0.002,-0.024,0.986,0.000,-0.001,-0.001,-0.433,0.282,-0.502,191.56,-0.210000
21:25:40:483,-0.002,-0.023,0.983,0.001,-0.002,-0.001,-0.431,0.283,-0.506,191.88,0.320000
21:25:40:483,-0.001,-0.022,0.980,0.001,-0.002,-0.001,-0.430,0.282,-0.507,191.78,-0.100000
21:25:40:484,-0.001,-0.021,0.975,0.001,-0.002,-0.001,-0.430,0.278,-0.509,192.30,0.520000
21:25:40:485,0.000,-0.022,0.981,0.000,-0.001,-0.001,-0.430,0.278,-0.509,191.96,-0.340000
21:25:40:485,-0.002,-0.023,0.984,0.001,-0.001,-0.001,-0.429,0.279,-0.506,191.75,-0.210000
21:25:40:486,-0.000,-0.021,0.980,0.001,-0.001,-0.001,-0.428,0.279,-0.506,191.79,0.040000
21:25:40:487,-0.001,-0.021,0.980,0.000,-0.002,-0.001,-0.429,0.281,-0.511,191.82,0.030000
21:25:40:487,0.000,-0.022,0.983,0.001,-0.001,-0.001,-0.430,0.278,-0.503,192.07,0.250000
21:25:40:488,-0.000,-0.023,0.980,0.000,-0.002,-0.001,-0.428,0.279,-0.506,192.35,0.280000
21:25:40:489,-0.000,-0.022,0.980,0.001,-0.002,-0.001,-0.430,0.278,-0.508,192.18,-0.170000
21:25:40:489,-0.001,-0.023,0.981,0.000,-0.002,-0.001,-0.430,0.281,-0.506,192.39,0.210000
21:25:40:490,0.000,-0.021,0.979,0.000,-0.002,-0.001,-0.431,0.281,-0.506,192.10,-0.290000
21:25:40:491,-0.000,-0.023,0.980,0.000,-0.002,-0.001,-0.427,0.279,-0.504,191.38,-0.720000
21:25:40:491,-0.001,-0.023,0.980,0.000,-0.002,-0.001,-0.431,0.279,-0.498,192.27,0.890000
21:25:40:492,-0.001,-0.021,0.984,0.000,-0.002,-0.001,-0.433,0.281,-0.498,191.60,-0.670000
21:25:40:493,-0.001,-0.021,0.982,0.001,-0.002,-0.001,-0.434,0.280,-0.506,191.93,0.330000
21:25:40:493,-0.002,-0.023,0.980,0.002,-0.002,-0.001,-0.429,0.277,-0.508,191.57,-0.360000
21:25:40:494,-0.001,-0.023,0.979,0.001,-0.002,-0.001,-0.433,0.281,-0.498,191.56,-0.010000
21:25:40:495,0.000,-0.022,0.979,0.001,-0.002,-0.001,-0.433,0.281,-0.498,192.85,1.290000
21:25:40:496,-0.001,-0.023,0.981,0.001,-0.002,-0.001,-0.433,0.280,-0.510,192.23,-0.620000
21:25:40:496,-0.000,-0.023,0.979,0.001,-0.002,-0.001,-0.431,0.277,-0.509,192.40,0.170000
21:25:40:497,-0.001,-0.022,0.979,0.001,-0.002,-0.001,-0.435,0.282,-0.512,192.10,-0.300000
21:25:40:498,-0.002,-0.021,0.978,0.001,-0.001,-0.001,-0.429,0.279,-0.508,192.01,-0.090000
21:25:40:498,-0.000,-0.023,0.979,0.000,-0.001,-0.001,-0.434,0.277,-0.510,192.25,0.240000
21:25:40:499,-0.001,-0.023,0.983,-0.000,-0.001,-0.001,-0.433,0.278,-0.507,191.97,-0.280000
21:25:40:500,-0.001,-0.022,0.980,0.000,-0.001,-0.001,-0.433,0.278,-0.507,191.82,-0.150000
21:25:40:500,-0.001,-0.023,0.980,0.000,-0.001,-0.001,-0.429,0.277,-0.504,191.84,0.020000
21:25:40:501,-0.001,-0.023,0.981,0.000,-0.001,-0.001,-0.434,0.282,-0.507,191.56,-0.280000
21:25:40:502,-0.001,-0.022,0.978,0.000,-0.001,-0.001,-0.429,0.280,-0.504,191.91,0.350000
21:25:40:502,-0.000,-0.023,0.981,-0.001,-0.001,-0.001,-0.435,0.279,-0.511,192.13,0.220000
21:25:40:503,-0.002,-0.023,0.981,-0.000,-0.001,-0.001,-0.436,0.283,-0.515,191.54,-0.590000
21:25:40:504,-0.001,-0.022,0.978,-0.000,-0.001,-0.001,-0.432,0.284,-0.515,192.09,0.550000
21:25:40:504,-0.001,-0.022,0.980,-0.001,-0.000,-0.001,-0.432,0.284,-0.515,191.66,-0.430000
21:25:40:505,-0.002,-0.023,0.982,-0.000,-0.000,-0.001,-0.428,0.283,-0.509,192.02,0.360000
21:25:40:506,-0.002,-0.024,0.983,0.000,-0.001,-0.001,-0.430,0.280,-0.507,191.96,-0.060000
21:25:40:507,-0.001,-0.023,0.981,-0.000,-0.001,-0.001,-0.429,0.282,-0.508,191.86,-0.100000
21:25:40:507,-0.001,-0.024,0.978,-0.000,-0.001,-0.001,-0.424,0.285,-0.505,192.43,0.570000
21:25:40:508,-0.001,-0.023,0.980,-0.000,-0.001,-0.001,-0.429,0.279,-0.501,191.67,-0.760000
21:25:40:509,-0.000,-0.025,0.979,-0.000,-0.001,-0.001,-0.427,0.280,-0.513,191.77,0.100000
21:25:40:509,-0.001,-0.023,0.982,-0.002,0.000,-0.001,-0.427,0.280,-0.513,191.54,-0.230000
21:25:40:510,-0.001,-0.023,0.989,-0.001,-0.000,-0.001,-0.431,0.280,-0.507,192.18,0.640000
21:25:40:511,-0.002,-0.022,0.985,0.000,-0.001,-0.001,-0.433,0.280,-0.511,192.17,-0.010000
21:25:40:511,-0.001,-0.022,0.980,0.001,-0.002,-0.001,-0.428,0.277,-0.510,191.89,-0.280000
21:25:40:512,-0.001,-0.023,0.980,0.000,-0.002,-0.001,-0.433,0.283,-0.507,191.70,-0.190000
21:25:40:513,-0.001,-0.023,0.982,0.000,-0.001,-0.001,-0.430,0.281,-0.507,191.60,-0.100000
21:25:40:513,-0.002,-0.022,0.977,0.000,-0.001,-0.001,-0.431,0.278,-0.504,192.58,0.980000
21:25:40:514,-0.001,-0.023,0.979,0.000,-0.000,-0.001,-0.431,0.278,-0.504,191.17,-1.410000
21:25:40:515,-0.001,-0.023,0.982,-0.001,-0.000,-0.001,-0.432,0.282,-0.507,191.41,0.240000
21:25:40:515,-0.001,-0.023,0.981,-0.001,-0.001,-0.001,-0.429,0.281,-0.508,192.66,1.250000
21:25:40:516,-0.002,-0.023,0.981,-0.001,-0.000,-0.001,-0.430,0.282,-0.508,191.64,-1.020000
21:25:40:517,-0.001,-0.023,0.983,-0.000,-0.001,-0.001,-0.427,0.278,-0.506,191.76,0.120000
21:25:40:517,-0.001,-0.023,0.981,0.000,-0.002,-0.001,-0.429,0.280,-0.508,191.87,0.110000
21:25:40:518,-0.001,-0.023,0.979,0.001,-0.002,-0.001,-0.430,0.278,-0.506,191.30,-0.570000
21:25:40:519,-0.001,-0.023,0.980,0.001,-0.001,-0.001,-0.430,0.278,-0.506,191.74,0.440000
21:25:40:520,-0.001,-0.023,0.981,0.001,-0.002,-0.001,-0.427,0.283,-0.504,191.59,-0.150000
21:25:40:520,-0.001,-0.022,0.981,0.000,-0.002,-0.001,-0.427,0.277,-0.511,191.26,-0.330000
21:25:40:521,-0.001,-0.023,0.981,0.000,-0.002,-0.001,-0.429,0.279,-0.508,192.19,0.930000
21:25:40:522,-0.002,-0.022,0.981,0.000,-0.001,-0.001,-0.430,0.278,-0.505,191.69,-0.500000
21:25:40:522,-0.002,-0.023,0.982,0.001,-0.002,-0.001,-0.429,0.276,-0.509,192.14,0.450000
21:25:40:523,-0.002,-0.023,0.982,0.001,-0.002,-0.001,-0.427,0.273,-0.509,192.16,0.020000
21:25:40:524,-0.001,-0.024,0.982,0.001,-0.002,-0.001,-0.427,0.273,-0.509,191.56,-0.600000
21:25:40:524,-0.001,-0.023,0.980,0.001,-0.001,-0.001,-0.432,0.279,-0.514,192.06,0.500000
21:25:40:525,-0.002,-0.022,0.981,0.001,-0.002,-0.001,-0.430,0.275,-0.509,192.24,0.180000
21:25:40:526,-0.001,-0.024,0.982,0.001,-0.001,-0.001,-0.428,0.275,-0.509,191.75,-0.490000
21:25:40:526,-0.001,-0.022,0.981,0.001,-0.002,-0.001,-0.431,0.276,-0.511,192.00,0.250000
21:25:40:527,-0.002,-0.023,0.979,0.001,-0.002,-0.001,-0.431,0.273,-0.508,192.26,0.260000
21:25:40:528,-0.002,-0.024,0.979,0.001,-0.002,-0.001,-0.432,0.278,-0.508,191.60,-0.660000
21:25:40:528,-0.001,-0.023,0.981,0.001,-0.002,-0.001,-0.432,0.278,-0.503,192.07,0.470000
21:25:40:529,-0.001,-0.024,0.981,0.001,-0.002,-0.001,-0.426,0.278,-0.503,191.74,-0.330000
21:25:40:530,-0.001,-0.023,0.980,0.001,-0.001,-0.001,-0.432,0.278,-0.502,192.04,0.300000
21:25:40:530,-0.001,-0.023,0.981,0.000,-0.002,-0.001,-0.428,0.280,-0.510,192.32,0.280000
21:25:40:531,-0.001,-0.023,0.982,0.000,-0.002,-0.001,-0.428,0.282,-0.509,191.60,-0.720000
21:25:40:532,-0.000,-0.023,0.980,0.001,-0.001,-0.001,-0.435,0.278,-0.509,191.85,0.250000
21:25:40:532,-0.002,-0.023,0.980,0.001,-0.001,-0.001,-0.431,0.276,-0.516,191.88,0.030000
21:25:40:533,-0.001,-0.023,0.981,0.001,-0.001,-0.001,-0.431,0.276,-0.511,191.66,-0.220000
21:25:40:534,-0.001,-0.023,0.981,0.001,-0.001,-0.000,-0.435,0.276,-0.511,191.84,0.180000
21:25:40:535,-0.001,-0.021,0.981,0.001,-0.001,-0.000,-0.429,0.282,-0.509,191.76,-0.080000
21:25:40:535,-0.001,-0.023,0.981,0.001,-0.002,-0.001,-0.431,0.279,-0.508,191.88,0.120000
21:25:40:536,-0.002,-0.023,0.982,0.001,-0.002,-0.001,-0.432,0.279,-0.507,191.46,-0.420000
21:25:40:537,-0.001,-0.023,0.980,0.001,-0.002,-0.001,-0.432,0.280,-0.508,191.89,0.430000
21:25:40:537,-0.001,-0.024,0.980,0.001,-0.001,-0.001,-0.431,0.285,-0.512,192.44,0.550000
21:25:40:538,-0.001,-0.023,0.981,0.001,-0.001,-0.001,-0.435,0.281,-0.506,192.79,0.350000
21:25:40:539,-0.002,-0.023,0.980,0.001,-0.002,-0.001,-0.435,0.281,-0.506,192.10,-0.690000
21:25:40:539,-0.002,-0.023,0.982,0.001,-0.002,-0.000,-0.431,0.282,-0.513,191.71,-0.390000
21:25:40:540,-0.001,-0.023,0.981,0.001,-0.001,-0.001,-0.433,0.278,-0.507,191.74,0.030000
21:25:40:541,-0.001,-0.023,0.980,0.001,-0.001,-0.001,-0.432,0.282,-0.505,191.73,-0.010000
21:25:40:541,-0.002,-0.024,0.979,0.001,-0.002,-0.001,-0.431,0.282,-0.508,191.70,-0.030000
21:25:40:542,-0.002,-0.022,0.980,0.001,-0.002,-0.001,-0.428,0.282,-0.510,192.25,0.550000
21:25:40:543,-0.002,-0.023,0.981,0.001,-0.002,-0.001,-0.429,0.284,-0.506,191.99,-0.260000
21:25:40:543,-0.001,-0.023,0.981,0.001,-0.002,-0.001,-0.429,0.284,-0.506,191.93,-0.060000
21:25:40:544,-0.001,-0.023,0.982,0.001,-0.002,-0.000,-0.431,0.284,-0.510,191.83,-0.100000
21:25:40:545,-0.002,-0.023,0.981,0.000,-0.002,-0.001,-0.431,0.282,-0.513,192.15,0.320000
21:25:40:545,-0.002,-0.022,0.981,0.001,-0.002,-0.001,-0.430,0.287,-0.519,191.81,-0.340000
21:25:40:546,-0.002,-0.022,0.980,0.001,-0.001,-0.000,-0.429,0.281,-0.509,191.87,0.060000
21:25:40:547,-0.001,-0.022,0.981,0.001,-0.002,-0.001,-0.429,0.282,-0.508,191.60,-0.270000
21:25:40:547,-0.002,-0.024,0.981,0.001,-0.002,-0.001,-0.429,0.284,-0.512,191.84,0.240000
21:25:40:548,-0.001,-0.023,0.980,0.001,-0.002,-0.001,-0.429,0.284,-0.512,192.46,0.620000
21:25:40:549,-0.000,-0.023,0.980,0.001,-0.002,-0.001,-0.429,0.285,-0.503,192.10,-0.360000
21:25:40:549,-0.000,-0.023,0.981,0.001,-0.002,-0.001,-0.429,0.283,-0.505,191.88,-0.220000
21:25:40:550,-0.002,-0.022,0.980,0.001,-0.001,-0.001,-0.430,0.284,-0.509,192.23,0.350000
21:25:40:551,-0.001,-0.022,0.981,0.000,-0.002,-0.001,-0.425,0.285,-0.507,192.39,0.160000
21:25:40:552,-0.002,-0.023,0.981,0.001,-0.001,-0.001,-0.429,0.286,-0.503,191.24,-1.150000
21:25:40:552,-0.000,-0.023,0.981,0.001,-0.002,-0.001,-0.427,0.288,-0.503,191.80,0.560000
21:25:40:553,-0.001,-0.023,0.981,0.001,-0.002,-0.001,-0.427,0.288,-0.503,191.94,0.140000
21:25:40:554,-0.001,-0.023,0.981,0.001,-0.001,-0.001,-0.428,0.285,-0.502,192.21,0.270000
21:25:40:554,-0.001,-0.023,0.981,0.001,-0.001,-0.001,-0.429,0.284,-0.501,192.26,0.050000
21:25:40:555,-0.002,-0.023,0.980,0.001,-0.001,-0.001,-0.429,0.281,-0.511,191.65,-0.610000
21:25:40:556,-0.001,-0.022,0.980,0.001,-0.002,-0.001,-0.429,0.286,-0.502,192.09,0.440000
21:25:40:556,-0.001,-0.022,0.980,0.001,-0.001,-0.001,-0.432,0.284,-0.504,191.66,-0.430000
21:25:40:557,-0.001,-0.021,0.980,0.000,-0.002,-0.001,-0.432,0.280,-0.502,192.05,0.390000
21:25:40:558,-0.001,-0.023,0.981,0.000,-0.001,-0.001,-0.432,0.280,-0.502,192.13,0.080000
21:25:40:558,-0.000,-0.022,0.981,0.000,-0.001,-0.001,-0.433,0.284,-0.505,191.84,-0.290000
21:25:40:559,-0.002,-0.023,0.982,-0.000,-0.001,-0.001,-0.433,0.280,-0.510,191.75,-0.090000
21:25:40:560,-0.001,-0.022,0.982,0.000,-0.002,-0.001,-0.428,0.283,-0.508,192.02,0.270000
21:25:40:560,-0.002,-0.023,0.980,0.001,-0.002,-0.001,-0.434,0.287,-0.504,191.50,-0.520000
21:25:40:561,-0.001,-0.023,0.981,0.001,-0.002,-0.001,-0.430,0.286,-0.506,192.12,0.620000
21:25:40:562,-0.001,-0.022,0.981,0.001,-0.001,-0.001,-0.432,0.287,-0.506,191.45,-0.670000
21:25:40:562,-0.000,-0.022,0.979,0.001,-0.002,-0.000,-0.432,0.287,-0.506,192.03,0.580000
21:25:40:563,-0.001,-0.024,0.978,0.001,-0.002,-0.001,-0.432,0.286,-0.503,192.19,0.160000
21:25:40:564,-0.002,-0.022,0.981,0.000,-0.001,-0.001,-0.432,0.283,-0.508,191.77,-0.420000
21:25:40:564,-0.001,-0.024,0.981,0.001,-0.002,-0.001,-0.436,0.279,-0.507,192.05,0.280000
21:25:40:565,-0.001,-0.024,0.980,0.001,-0.002,-0.001,-0.432,0.278,-0.506,192.08,0.030000
21:25:40:566,-0.001,-0.022,0.980,0.001,-0.002,-0.001,-0.433,0.281,-0.506,191.48,-0.600000
21:25:40:567,-0.001,-0.023,0.981,0.001,-0.002,-0.001,-0.430,0.281,-0.511,192.30,0.820000
21:25:40:567,-0.001,-0.022,0.981,0.001,-0.002,-0.001,-0.430,0.281,-0.511,191.85,-0.450000
21:25:40:568,-0.001,-0.024,0.981,0.001,-0.002,-0.001,-0.429,0.281,-0.508,192.22,0.370000
21:25:40:569,-0.001,-0.023,0.980,0.001,-0.001,-0.001,-0.432,0.282,-0.513,192.46,0.240000
21:25:40:569,0.000,-0.023,0.976,0.001,-0.002,-0.001,-0.436,0.283,-0.511,191.83,-0.630000
21:25:40:570,-0.000,-0.022,0.981,0.000,-0.002,-0.001,-0.431,0.279,-0.512,192.31,0.480000
21:25:40:571,-0.002,-0.023,0.989,0.001,-0.002,-0.001,-0.431,0.286,-0.513,191.97,-0.340000
21:25:40:571,-0.003,-0.023,0.985,0.002,-0.002,-0.001,-0.434,0.281,-0.515,192.08,0.110000
21:25:40:572,-0.000,-0.022,0.976,0.001,-0.002,-0.001,-0.434,0.286,-0.511,191.74,-0.340000
21:25:40:573,-0.001,-0.022,0.982,0.001,-0.002,-0.001,-0.431,0.286,-0.511,192.14,0.400000
21:25:40:573,-0.001,-0.022,0.982,0.001,-0.002,-0.001,-0.429,0.286,-0.509,191.58,-0.560000
21:25:40:574,-0.001,-0.022,0.978,0.001,-0.002,-0.001,-0.433,0.285,-0.506,191.55,-0.030000
21:25:40:575,0.000,-0.023,0.977,0.001,-0.002,-0.001,-0.431,0.283,-0.515,191.75,0.200000
21:25:40:575,-0.001,-0.022,0.981,0.001,-0.002,-0.001,-0.433,0.284,-0.507,191.94,0.190000
21:25:40:576,0.031,-0.022,0.981,0.001,-0.001,-0.001,-0.428,0.281,-0.511,191.76,-0.180000
21:25:40:577,-0.001,-0.023,0.982,0.000,-0.001,-0.001,-0.431,0.285,-0.508,192.20,0.440000
21:25:40:577,-0.001,-0.022,0.983,0.001,-0.002,-0.001,-0.431,0.285,-0.508,192.62,0.420000
21:25:40:578,-0.001,-0.023,0.980,0.001,-0.002,-0.000,-0.428,0.279,-0.504,191.57,-1.050000
21:25:40:579,-0.002,-0.022,0.979,0.001,-0.002,-0.001,-0.433,0.285,-0.514,191.68,0.110000
21:25:40:579,-0.001,-0.022,0.981,0.001,-0.002,-0.001,-0.431,0.284,-0.512,191.97,0.290000
21:25:40:580,-0.001,-0.022,0.980,0.001,-0.001,-0.001,-0.432,0.286,-0.507,191.58,-0.390000
21:25:40:581,-0.000,-0.023,0.982,0.001,-0.001,-0.000,-0.433,0.282,-0.517,192.02,0.440000
21:25:40:581,-0.001,-0.022,0.983,0.001,-0.002,-0.001,-0.436,0.284,-0.517,191.83,-0.190000
21:25:40:582,-0.002,-0.023,0.981,0.001,-0.002,-0.001,-0.436,0.284,-0.517,191.99,0.160000
21:25:40:583,-0.000,-0.022,0.980,0.001,-0.002,-0.001,-0.430,0.287,-0.510,192.27,0.280000
21:25:40:583,-0.002,-0.022,0.980,0.001,-0.002,-0.001,-0.432,0.282,-0.517,191.87,-0.400000
21:25:40:584,-0.001,-0.023,0.980,0.001,-0.002,-0.001,-0.432,0.283,-0.510,192.06,0.190000
21:25:40:585,-0.002,-0.023,0.982,0.001,-0.002,-0.001,-0.433,0.281,-0.510,192.72,0.660000
21:25:40:586,-0.001,-0.024,0.980,0.001,-0.002,-0.001,-0.435,0.289,-0.511,192.41,-0.310000
21:25:40:586,0.001,-0.023,0.981,0.001,-0.002,-0.001,-0.431,0.284,-0.513,191.83,-0.580000
21:25:40:587,-0.000,-0.022,0.981,0.001,-0.002,-0.000,-0.431,0.284,-0.513,191.24,-0.590000
21:25:40:588,-0.001,-0.023,0.980,0.001,-0.002,-0.001,-0.435,0.285,-0.507,192.68,1.440000
21:25:40:588,-0.001,-0.023,0.979,0.001,-0.002,-0.000,-0.432,0.288,-0.506,192.08,-0.600000
21:25:40:589,-0.001,-0.024,0.980,0.001,-0.002,-0.000,-0.429,0.282,-0.510,192.17,0.090000
21:25:40:590,-0.000,-0.023,0.981,0.000,-0.002,-0.001,-0.425,0.284,-0.513,191.96,-0.210000
21:25:40:590,-0.000,-0.022,0.981,0.001,-0.001,-0.001,-0.427,0.285,-0.509,191.38,-0.580000
21:25:40:591,-0.002,-0.023,0.981,0.001,-0.002,-0.001,-0.426,0.283,-0.513,191.80,0.420000
21:25:40:592,-0.001,-0.023,0.980,0.001,-0.001,-0.001,-0.426,0.283,-0.513,191.57,-0.230000
21:25:40:592,-0.001,-0.024,0.979,0.000,-0.001,-0.001,-0.424,0.279,-0.513,192.10,0.530000
21:25:40:593,-0.001,-0.022,0.978,0.000,-0.001,-0.001,-0.425,0.280,-0.508,191.34,-0.760000
21:25:40:594,-0.000,-0.022,0.984,0.000,-0.001,-0.001,-0.423,0.284,-0.513,192.02,0.680000
21:25:40:594,-0.001,-0.022,0.980,0.000,-0.002,-0.001,-0.421,0.285,-0.514,192.33,0.310000
21:25:40:595,-0.001,-0.022,0.980,0.000,-0.001,-0.001,-0.424,0.286,-0.513,191.88,-0.450000
21:25:40:596,-0.001,-0.023,0.981,0.001,-0.002,-0.001,-0.429,0.284,-0.510,191.31,-0.570000
21:25:40:596,-0.001,-0.022,0.981,0.001,-0.002,-0.001,-0.429,0.284,-0.510,191.62,0.310000
21:25:40:597,-0.001,-0.022,0.979,0.000,-0.002,-0.001,-0.429,0.282,-0.506,191.85,0.230000
21:25:40:598,-0.001,-0.022,0.982,0.000,-0.001,-0.001,-0.426,0.284,-0.506,191.92,0.070000
21:25:40:598,-0.000,-0.023,0.976,0.000,-0.001,-0.001,-0.425,0.283,-0.508,191.80,-0.120000
21:25:40:599,-0.002,-0.023,0.986,0.000,-0.001,-0.001,-0.426,0.282,-0.503,191.65,-0.150000
21:25:40:600,0.000,-0.023,0.978,0.000,-0.001,-0.001,-0.432,0.283,-0.508,192.35,0.700000
21:25:40:600,-0.001,-0.022,0.983,0.001,-0.001,-0.001,-0.426,0.281,-0.514,192.29,-0.060000
21:25:40:601,-0.002,-0.022,0.983,0.001,-0.001,-0.001,-0.426,0.281,-0.514,192.03,-0.260000
21:25:40:602,-0.001,-0.024,0.981,0.000,-0.002,-0.001,-0.426,0.282,-0.506,191.70,-0.330000
21:25:40:603,-0.001,-0.022,0.981,0.001,-0.002,-0.001,-0.424,0.278,-0.513,190.84,-0.860000
21:25:40:603,-0.001,-0.022,0.978,0.001,-0.001,-0.001,-0.428,0.285,-0.509,191.72,0.880000
21:25:40:604,0.000,-0.022,0.979,0.001,-0.001,-0.001,-0.427,0.285,-0.507,191.86,0.140000
21:25:40:604,-0.001,-0.024,0.982,0.000,-0.001,-0.001,-0.429,0.283,-0.506,191.43,-0.430000
21:25:40:605,-0.001,-0.022,0.979,0.001,-0.002,-0.000,-0.431,0.286,-0.507,191.80,0.370000
21:25:40:606,-0.001,-0.024,0.981,0.001,-0.001,-0.001,-0.431,0.286,-0.507,193.18,1.380000
21:25:40:607,-0.000,-0.023,0.982,0.001,-0.001,-0.001,-0.429,0.280,-0.509,191.73,-1.450000
21:25:40:607,-0.002,-0.023,0.981,0.000,-0.001,-0.001,-0.426,0.282,-0.508,191.18,-0.550000
21:25:40:608,-0.002,-0.022,0.981,0.000,-0.001,-0.001,-0.431,0.284,-0.516,191.51,0.330000
21:25:40:609,-0.001,-0.023,0.982,0.000,-0.001,-0.001,-0.426,0.285,-0.513,191.64,0.130000
21:25:40:609,-0.001,-0.024,0.982,0.001,-0.002,-0.001,-0.428,0.286,-0.508,191.90,0.260000
21:25:40:610,-0.000,-0.023,0.983,0.001,-0.002,-0.001,-0.428,0.285,-0.509,191.76,-0.140000
21:25:40:611,-0.001,-0.023,0.981,0.001,-0.002,-0.001,-0.428,0.285,-0.509,192.19,0.430000
21:25:40:611,-0.002,-0.023,0.983,0.001,-0.002,-0.001,-0.431,0.282,-0.508,191.82,-0.370000
21:25:40:612,-0.001,-0.022,0.981,0.001,-0.002,-0.001,-0.426,0.287,-0.504,191.86,0.040000
21:25:40:613,-0.002,-0.024,0.980,0.002,-0.002,-0.001,-0.432,0.283,-0.505,191.50,-0.360000
21:25:40:613,-0.002,-0.024,0.981,0.002,-0.002,-0.001,-0.427,0.286,-0.509,191.98,0.480000
21:25:40:614,-0.002,-0.022,0.981,0.002,-0.002,-0.001,-0.423,0.284,-0.508,191.71,-0.270000
21:25:40:615,-0.002,-0.023,0.984,0.002,-0.003,-0.001,-0.425,0.287,-0.505,192.17,0.460000
21:25:40:615,-0.000,-0.023,0.981,0.002,-0.003,-0.001,-0.425,0.287,-0.506,192.50,0.330000
21:25:40:616,-0.001,-0.022,0.977,0.002,-0.002,-0.001,-0.425,0.284,-0.506,191.47,-1.030000
21:25:40:617,-0.001,-0.023,0.979,0.002,-0.002,-0.001,-0.426,0.285,-0.502,191.83,0.360000
21:25:40:617,-0.001,-0.023,0.980,0.001,-0.002,-0.001,-0.425,0.284,-0.507,192.54,0.710000
21:25:40:618,-0.001,-0.023,0.981,0.001,-0.002,-0.001,-0.430,0.280,-0.516,191.75,-0.790000
21:25:40:619,-0.001,-0.023,0.982,0.002,-0.002,-0.001,-0.430,0.285,-0.512,191.91,0.160000
21:25:40:619,-0.002,-0.022,0.979,0.001,-0.002,-0.001,-0.429,0.283,-0.511,191.66,-0.250000
21:25:40:620,-0.000,-0.023,0.980,0.001,-0.002,-0.001,-0.429,0.284,-0.511,191.78,0.120000
21:25:40:621,-0.001,-0.022,0.979,0.001,-0.002,-0.001,-0.428,0.284,-0.511,192.10,0.320000
21:25:40:621,0.000,-0.022,0.979,0.001,-0.002,-0.001,-0.431,0.286,-0.507,191.98,-0.120000
21:25:40:622,-0.000,-0.022,0.980,0.001,-0.002,-0.001,-0.432,0.285,-0.509,192.03,0.050000
21:25:40:623,-0.001,-0.022,0.982,0.001,-0.002,-0.001,-0.429,0.280,-0.505,191.82,-0.210000
21:25:40:623,-0.001,-0.023,0.981,0.001,-0.002,-0.001,-0.432,0.284,-0.500,191.97,0.150000
21:25:40:624,-0.001,-0.022,0.980,0.001,-0.002,-0.001,-0.429,0.282,-0.501,192.08,0.110000
21:25:40:625,-0.000,-0.022,0.980,0.001,-0.002,-0.001,-0.426,0.282,-0.500,191.82,-0.260000
21:25:40:625,-0.002,-0.024,0.980,0.001,-0.001,-0.001,-0.426,0.282,-0.500,191.77,-0.050000
21:25:40:626,-0.001,-0.022,0.978,0.000,-0.001,-0.001,-0.425,0.282,-0.504,191.74,-0.030000
21:25:40:627,-0.001,-0.021,0.982,0.001,-0.001,-0.001,-0.429,0.285,-0.504,191.17,-0.570000
21:25:40:627,-0.001,-0.022,0.976,0.001,-0.001,-0.001,-0.426,0.285,-0.503,192.08,0.910000
21:25:40:628,-0.001,-0.023,0.981,-0.000,-0.001,-0.001,-0.429,0.283,-0.505,191.81,-0.270000
21:25:40:629,-0.001,-0.022,0.982,0.000,-0.001,-0.001,-0.433,0.284,-0.510,191.65,-0.160000
21:25:40:629,-0.001,-0.022,0.980,0.000,-0.001,-0.001,-0.432,0.286,-0.508,192.28,0.630000
21:25:40:630,-0.000,-0.023,0.982,0.000,-0.001,-0.001,-0.432,0.286,-0.508,191.46,-0.820000
21:25:40:631,-0.000,-0.023,0.983,0.000,-0.001,-0.001,-0.430,0.283,-0.508,192.13,0.670000
21:25:40:632,-0.001,-0.022,0.980,0.001,-0.001,-0.001,-0.431,0.283,-0.501,192.97,0.840000
21:25:40:632,-0.001,-0.022,0.982,0.001,-0.001,-0.001,-0.435,0.286,-0.501,192.22,-0.750000
21:25:40:633,-0.000,-0.022,0.979,0.001,-0.002,-0.001,-0.433,0.282,-0.501,192.42,0.200000
21:25:40:634,-0.002,-0.022,0.981,0.000,-0.002,-0.001,-0.436,0.286,-0.502,191.84,-0.580000
21:25:40:634,-0.001,-0.022,0.981,0.000,-0.001,-0.001,-0.431,0.285,-0.504,192.24,0.400000
21:25:40:635,-0.000,-0.023,0.981,0.000,-0.001,-0.000,-0.431,0.285,-0.504,191.97,-0.270000
21:25:40:636,-0.002,-0.022,0.979,0.000,-0.002,-0.001,-0.430,0.285,-0.499,192.06,0.090000
21:25:40:636,-0.001,-0.023,0.982,0.001,-0.002,-0.001,-0.426,0.283,-0.509,191.64,-0.420000
21:25:40:637,-0.002,-0.023,0.979,0.001,-0.001,-0.001,-0.427,0.280,-0.512,192.17,0.530000
21:25:40:638,0.000,-0.023,0.982,0.001,-0.001,-0.001,-0.431,0.281,-0.506,191.36,-0.810000
21:25:40:638,-0.000,-0.022,0.982,0.001,-0.002,-0.001,-0.427,0.280,-0.508,191.92,0.560000
21:25:40:639,0.000,-0.021,0.977,0.001,-0.002,-0.001,-0.429,0.277,-0.511,191.80,-0.120000
21:25:40:640,-0.002,-0.024,0.982,0.000,-0.001,-0.001,-0.429,0.277,-0.511,192.02,0.220000
21:25:40:640,-0.001,-0.022,0.980,0.001,-0.001,-0.001,-0.431,0.283,-0.505,192.39,0.370000
21:25:40:641,-0.000,-0.023,0.980,0.001,-0.001,-0.001,-0.432,0.282,-0.500,191.78,-0.610000
21:25:40:642,-0.001,-0.023,0.982,0.000,-0.002,-0.001,-0.430,0.278,-0.507,191.42,-0.360000
21:25:40:642,-0.000,-0.022,0.974,0.000,-0.001,-0.001,-0.431,0.284,-0.504,192.08,0.660000
21:25:40:643,-0.001,-0.022,0.992,0.000,-0.001,-0.001,-0.428,0.284,-0.509,191.46,-0.620000
21:25:40:644,-0.001,-0.022,0.980,0.001,-0.002,-0.001,-0.425,0.284,-0.510,191.26,-0.200000
21:25:40:644,-0.000,-0.022,0.976,0.001,-0.002,-0.001,-0.425,0.284,-0.510,192.05,0.790000
21:25:40:645,-0.001,-0.023,0.981,0.000,-0.001,-0.001,-0.427,0.286,-0.504,191.35,-0.700000
21:25:40:646,-0.000,-0.023,0.983,0.000,-0.002,-0.001,-0.430,0.286,-0.501,191.99,0.640000
21:25:40:646,-0.002,-0.023,0.978,0.001,-0.002,-0.001,-0.431,0.286,-0.505,191.45,-0.540000
21:25:40:647,-0.002,-0.023,0.981,0.001,-0.002,-0.001,-0.431,0.282,-0.497,191.37,-0.080000
21:25:40:648,-0.001,-0.023,0.986,0.001,-0.001,-0.001,-0.428,0.283,-0.496,192.26,0.890000
21:25:40:648,-0.001,-0.022,0.978,0.001,-0.002,-0.001,-0.428,0.279,-0.499,191.37,-0.890000
21:25:40:649,-0.002,-0.022,0.980,0.000,-0.001,-0.001,-0.428,0.279,-0.499,191.80,0.430000
21:25:40:650,-0.000,-0.024,0.982,0.001,-0.002,-0.001,-0.425,0.281,-0.504,191.71,-0.090000
21:25:40:651,-0.001,-0.023,0.981,0.001,-0.002,-0.001,-0.426,0.281,-0.507,191.74,0.030000
21:25:40:651,-0.002,-0.022,0.979,0.001,-0.001,-0.001,-0.429,0.284,-0.507,191.15,-0.590000
21:25:40:652,-0.001,-0.022,0.982,0.001,-0.001,-0.001,-0.430,0.280,-0.504,191.84,0.690000
21:25:40:653,-0.001,-0.023,0.981,0.001,-0.001,-0.001,-0.431,0.282,-0.507,192.28,0.440000
21:25:40:653,0.000,-0.023,0.980,0.001,-0.001,-0.001,-0.430,0.281,-0.503,191.75,-0.530000
21:25:40:654,-0.000,-0.023,0.981,0.000,-0.001,-0.001,-0.430,0.281,-0.503,191.92,0.170000
21:25:40:655,-0.001,-0.022,0.981,0.000,-0.001,-0.001,-0.430,0.283,-0.504,192.30,0.380000
21:25:40:655,-0.001,-0.022,0.981,0.001,-0.001,-0.001,-0.429,0.283,-0.506,191.33,-0.970000
21:25:40:656,-0.001,-0.023,0.980,0.001,-0.001,-0.001,-0.429,0.278,-0.496,191.65,0.320000
21:25:40:657,-0.000,-0.023,0.981,0.001,-0.001,-0.001,-0.426,0.281,-0.504,191.73,0.080000
21:25:40:657,-0.001,-0.024,0.981,0.001,-0.001,-0.001,-0.428,0.280,-0.501,192.17,0.440000
21:25:40:658,-0.001,-0.022,0.978,0.000,-0.002,-0.001,-0.428,0.285,-0.504,191.52,-0.650000
21:25:40:659,-0.002,-0.021,0.974,-0.000,-0.002,-0.001,-0.428,0.285,-0.500,192.04,0.520000
21:25:40:659,-0.002,-0.023,0.987,-0.001,-0.001,-0.001,-0.427,0.286,-0.500,191.85,-0.190000
21:25:40:660,-0.002,-0.024,0.991,0.000,-0.001,-0.001,-0.429,0.282,-0.505,192.37,0.520000
21:25:40:661,-0.002,-0.023,0.981,0.002,-0.002,-0.001,-0.428,0.283,-0.510,191.87,-0.500000
21:25:40:661,0.000,-0.022,0.973,0.001,-0.002,-0.001,-0.426,0.281,-0.501,191.29,-0.580000
21:25:40:662,-0.000,-0.022,0.984,0.000,-0.001,-0.001,-0.426,0.284,-0.507,191.50,0.210000
21:25:40:663,-0.001,-0.024,0.980,0.000,-0.001,-0.001,-0.422,0.280,-0.510,192.01,0.510000
21:25:40:663,-0.001,-0.023,0.979,0.000,-0.001,-0.001,-0.422,0.288,-0.504,192.11,0.100000
21:25:40:664,-0.001,-0.023,0.981,0.000,-0.001,-0.001,-0.429,0.288,-0.504,191.99,-0.120000
21:25:40:665,-0.001,-0.022,0.982,0.001,-0.001,-0.001,-0.425,0.284,-0.506,191.54,-0.450000
21:25:40:665,-0.001,-0.023,0.982,0.001,-0.001,-0.000,-0.425,0.285,-0.499,191.62,0.080000
21:25:40:666,-0.001,-0.023,0.982,0.001,-0.001,-0.001,-0.425,0.283,-0.502,191.49,-0.130000
21:25:40:667,0.000,-0.022,0.982,0.000,-0.001,-0.001,-0.437,0.284,-0.501,191.58,0.090000
21:25:40:668,-0.001,-0.023,0.982,0.001,-0.001,-0.001,-0.428,0.287,-0.503,191.25,-0.330000
21:25:40:668,-0.001,-0.023,0.980,0.001,-0.002,-0.001,-0.425,0.285,-0.504,191.84,0.590000
21:25:40:669,-0.000,-0.023,0.979,0.001,-0.002,-0.001,-0.425,0.285,-0.504,191.30,-0.540000
21:25:40:670,-0.000,-0.022,0.980,0.001,-0.001,-0.001,-0.429,0.282,-0.502,191.64,0.340000
21:25:40:670,-0.000,-0.022,0.981,0.001,-0.002,-0.001,-0.433,0.281,-0.508,192.64,1.000000
21:25:40:671,-0.000,-0.022,0.981,0.001,-0.001,-0.001,-0.425,0.284,-0.510,192.19,-0.450000
21:25:40:672,-0.001,-0.021,0.981,0.001,-0.001,-0.001,-0.429,0.280,-0.506,191.50,-0.690000
21:25:40:672,-0.001,-0.024,0.982,0.000,-0.001,-0.001,-0.427,0.286,-0.503,191.98,0.480000
21:25:40:673,-0.001,-0.022,0.982,0.001,-0.001,-0.001,-0.429,0.286,-0.503,192.75,0.770000
21:25:40:674,-0.002,-0.024,0.981,0.000,-0.002,-0.001,-0.429,0.286,-0.503,191.80,-0.950000
21:25:40:674,-0.001,-0.023,0.981,0.000,-0.002,-0.001,-0.432,0.286,-0.500,191.50,-0.300000
21:25:40:675,-0.002,-0.023,0.980,0.000,-0.002,-0.001,-0.427,0.284,-0.505,191.49,-0.010000
21:25:40:676,-0.000,-0.023,0.981,0.000,-0.002,-0.001,-0.430,0.284,-0.501,191.43,-0.060000
21:25:40:676,-0.002,-0.021,0.981,0.001,-0.001,-0.001,-0.432,0.284,-0.508,191.87,0.440000
21:25:40:677,-0.001,-0.023,0.980,0.001,-0.002,-0.001,-0.436,0.284,-0.505,192.02,0.150000
21:25:40:678,-0.001,-0.022,0.980,0.001,-0.002,-0.001,-0.433,0.282,-0.505,192.09,0.070000
21:25:40:678,-0.002,-0.022,0.981,0.000,-0.001,-0.001,-0.433,0.282,-0.505,191.97,-0.120000
21:25:40:679,-0.000,-0.023,0.980,0.000,-0.001,-0.001,-0.433,0.280,-0.508,191.76,-0.210000
21:25:40:680,-0.001,-0.023,0.982,0.001,-0.002,-0.001,-0.430,0.283,-0.503,191.67,-0.090000
21:25:40:680,-0.000,-0.023,0.980,0.000,-0.001,-0.001,-0.432,0.286,-0.510,190.94,-0.730000
21:25:40:681,-0.001,-0.022,0.981,0.001,-0.001,-0.001,-0.432,0.285,-0.510,191.53,0.590000
21:25:40:682,-0.002,-0.022,0.982,0.001,-0.002,-0.001,-0.431,0.286,-0.503,192.07,0.540000
21:25:40:682,-0.001,-0.023,0.982,0.001,-0.001,-0.001,-0.433,0.283,-0.506,192.01,-0.060000
21:25:40:683,-0.001,-0.024,0.981,0.001,-0.002,-0.001,-0.433,0.283,-0.506,192.36,0.350000
21:25:40:684,-0.002,-0.023,0.981,0.001,-0.001,-0.001,-0.426,0.283,-0.507,192.32,-0.040000
21:25:40:684,-0.001,-0.023,0.981,0.000,-0.002,-0.001,-0.431,0.287,-0.511,192.04,-0.280000
21:25:40:685,-0.002,-0.023,0.982,0.001,-0.002,-0.001,-0.431,0.282,-0.498,191.93,-0.110000
21:25:40:686,-0.001,-0.022,0.980,0.001,-0.002,-0.001,-0.431,0.281,-0.503,191.36,-0.570000
21:25:40:687,-0.001,-0.023,0.981,0.001,-0.002,-0.001,-0.429,0.284,-0.505,191.51,0.150000
21:25:40:687,-0.002,-0.022,0.981,0.001,-0.001,-0.001,-0.431,0.284,-0.510,191.90,0.390000
21:25:40:688,-0.002,-0.022,0.980,0.000,-0.002,-0.001,-0.431,0.284,-0.510,192.12,0.220000
21:25:40:689,-0.002,-0.023,0.982,0.000,-0.002,-0.001,-0.429,0.284,-0.507,191.38,-0.740000
21:25:40:689,-0.001,-0.023,0.980,0.001,-0.001,-0.001,-0.425,0.286,-0.506,192.30,0.920000
21:25:40:690,-0.001,-0.022,0.981,0.000,-0.001,-0.001,-0.431,0.287,-0.507,191.82,-0.480000
21:25:40:691,-0.001,-0.023,0.980,0.001,-0.001,-0.001,-0.430,0.280,-0.509,192.08,0.260000
21:25:40:691,-0.002,-0.024,0.981,0.001,-0.001,-0.000,-0.424,0.282,-0.504,192.24,0.160000
21:25:40:692,-0.001,-0.024,0.980,0.001,-0.001,-0.001,-0.432,0.284,-0.507,191.56,-0.680000
21:25:40:693,-0.001,-0.023,0.979,0.001,-0.001,-0.001,-0.432,0.284,-0.507,190.88,-0.680000
21:25:40:693,-0.001,-0.023,0.982,0.000,-0.002,-0.001,-0.429,0.281,-0.505,192.19,1.310000
21:25:40:694,-0.001,-0.023,0.981,0.001,-0.002,-0.001,-0.428,0.283,-0.506,191.76,-0.430000
21:25:40:695,-0.000,-0.023,0.981,0.001,-0.002,-0.001,-0.432,0.286,-0.505,191.83,0.070000
21:25:40:695,-0.001,-0.022,0.982,0.000,-0.002,-0.001,-0.429,0.280,-0.507,191.78,-0.050000
21:25:40:696,-0.001,-0.023,0.982,0.001,-0.002,-0.001,-0.431,0.283,-0.507,192.03,0.250000
21:25:40:697,-0.001,-0.023,0.981,0.001,-0.001,-0.001,-0.426,0.284,-0.507,191.29,-0.740000
21:25:40:697,-0.002,-0.023,0.980,0.001,-0.002,-0.001,-0.426,0.284,-0.507,192.29,1.000000
21:25:40:698,-0.002,-0.023,0.979,0.000,-0.002,-0.001,-0.433,0.285,-0.507,192.08,-0.210000
21:25:40:699,-0.002,-0.023,0.981,0.000,-0.001,-0.001,-0.434,0.280,-0.504,191.59,-0.490000
21:25:40:699,-0.001,-0.023,0.982,0.001,-0.002,-0.001,-0.432,0.281,-0.514,191.43,-0.160000
21:25:40:700,-0.001,-0.023,0.982,0.001,-0.002,-0.001,-0.433,0.277,-0.502,191.35,-0.080000
21:25:40:701,-0.001,-0.023,0.980,0.001,-0.002,-0.001,-0.429,0.280,-0.502,191.56,0.210000
21:25:40:701,-0.002,-0.022,0.980,0.001,-0.001,-0.001,-0.428,0.281,-0.511,191.59,0.030000
21:25:40:702,-0.002,-0.022,0.981,0.001,-0.002,-0.001,-0.428,0.286,-0.514,192.40,0.810000
21:25:40:703,-0.001,-0.023,0.979,0.001,-0.002,-0.001,-0.430,0.286,-0.514,191.82,-0.580000
21:25:40:703,-0.001,-0.023,0.980,0.000,-0.002,-0.001,-0.432,0.283,-0.510,191.76,-0.060000
21:25:40:704,-0.000,-0.023,0.982,0.001,-0.001,-0.001,-0.428,0.285,-0.504,191.44,-0.320000
21:25:40:705,-0.001,-0.022,0.981,0.001,-0.002,-0.001,-0.430,0.283,-0.508,192.32,0.880000
21:25:40:705,-0.000,-0.023,0.981,0.001,-0.002,-0.001,-0.433,0.284,-0.508,191.98,-0.340000
21:25:40:706,-0.001,-0.022,0.982,0.001,-0.002,-0.001,-0.430,0.280,-0.504,191.69,-0.290000
21:25:40:707,-0.001,-0.023,0.981,0.001,-0.002,-0.001,-0.431,0.285,-0.500,191.76,0.070000
21:25:40:708,-0.002,-0.022,0.981,0.001,-0.002,-0.001,-0.431,0.285,-0.500,192.09,0.330000
21:25:40:708,-0.001,-0.022,0.980,0.001,-0.002,-0.001,-0.431,0.283,-0.501,191.67,-0.420000
21:25:40:709,-0.001,-0.023,0.981,0.001,-0.002,-0.001,-0.432,0.280,-0.495,192.39,0.720000
21:25:40:710,-0.001,-0.024,0.981,0.001,-0.001,-0.001,-0.432,0.284,-0.504,191.85,-0.540000
21:25:40:710,-0.001,-0.022,0.980,0.001,-0.001,-0.001,-0.435,0.283,-0.502,192.02,0.170000
21:25:40:711,-0.001,-0.023,0.982,0.000,-0.002,-0.001,-0.433,0.283,-0.502,191.27,-0.750000
21:25:40:712,0.000,-0.023,0.980,0.000,-0.002,-0.001,-0.433,0.282,-0.500,191.90,0.630000
21:25:40:712,-0.002,-0.023,0.983,0.001,-0.001,-0.001,-0.433,0.282,-0.500,191.82,-0.080000
21:25:40:713,-0.000,-0.022,0.973,0.001,-0.001,-0.001,-0.435,0.283,-0.499,191.85,0.030000
21:25:40:714,-0.001,-0.024,0.988,0.000,-0.001,-0.000,-0.433,0.284,-0.501,191.22,-0.630000
21:25:40:714,-0.002,-0.022,0.982,0.000,-0.002,-0.001,-0.429,0.283,-0.507,191.55,0.330000
21:25:40:715,-0.001,-0.023,0.978,0.001,-0.002,-0.001,-0.434,0.284,-0.501,191.54,-0.010000
21:25:40:716,-0.001,-0.024,0.985,0.000,-0.002,-0.001,-0.432,0.284,-0.503,192.01,0.470000
21:25:40:716,-0.001,-0.022,0.981,0.001,-0.002,-0.001,-0.428,0.288,-0.505,191.88,-0.130000
21:25:40:717,-0.000,-0.023,0.980,0.001,-0.002,-0.001,-0.428,0.288,-0.505,191.68,-0.200000
21:25:40:718,-0.000,-0.023,0.980,0.001,-0.002,-0.001,-0.428,0.288,-0.507,191.69,0.010000
21:25:40:718,-0.001,-0.023,0.981,0.001,-0.001,-0.001,-0.428,0.286,-0.502,192.02,0.330000
21:25:40:719,-0.001,-0.022,0.980,0.001,-0.001,-0.001,-0.426,0.283,-0.507,191.68,-0.340000
21:25:40:720,-0.002,-0.023,0.986,0.000,-0.001,-0.001,-0.426,0.282,-0.504,191.72,0.040000
21:25:40:720,-0.001,-0.022,0.979,0.000,-0.002,-0.001,-0.427,0.282,-0.506,191.31,-0.410000
21:25:40:721,-0.001,-0.023,0.983,0.001,-0.001,-0.001,-0.427,0.278,-0.503,191.73,0.420000
21:25:40:722,-0.002,-0.023,0.981,0.001,-0.002,-0.001,-0.427,0.278,-0.503,191.35,-0.380000
21:25:40:722,-0.001,-0.023,0.982,0.001,-0.001,-0.001,-0.428,0.283,-0.498,191.79,0.440000
21:25:40:723,-0.000,-0.023,0.980,0.001,-0.001,-0.001,-0.430,0.285,-0.507,191.76,-0.030000
21:25:40:724,-0.001,-0.022,0.981,0.000,-0.001,-0.001,-0.433,0.282,-0.500,191.64,-0.120000
21:25:40:724,-0.000,-0.023,0.979,0.001,-0.002,-0.001,-0.430,0.286,-0.503,191.52,-0.120000
21:25:40:725,-0.001,-0.022,0.982,0.001,-0.001,-0.001,-0.431,0.280,-0.503,192.22,0.700000
21:25:40:726,-0.003,-0.023,0.981,0.001,-0.002,-0.001,-0.431,0.283,-0.507,192.02,-0.200000
21:25:40:726,-0.002,-0.024,0.982,0.001,-0.002,-0.001,-0.431,0.283,-0.507,192.28,0.260000
21:25:40:727,-0.001,-0.022,0.981,0.000,-0.002,-0.001,-0.432,0.285,-0.503,192.21,-0.070000
21:25:40:728,-0.000,-0.023,0.983,0.001,-0.001,-0.001,-0.432,0.284,-0.505,192.02,-0.190000
21:25:40:729,-0.000,-0.021,0.981,0.001,-0.001,-0.001,-0.434,0.284,-0.503,191.88,-0.140000
21:25:40:729,-0.001,-0.022,0.980,0.001,-0.002,-0.001,-0.435,0.285,-0.505,192.02,0.140000
21:25:40:730,-0.001,-0.023,0.982,0.000,-0.002,-0.001,-0.429,0.284,-0.501,191.69,-0.330000
21:25:40:731,-0.002,-0.023,0.984,0.000,-0.001,-0.001,-0.430,0.285,-0.504,192.48,0.790000
21:25:40:731,-0.002,-0.024,0.981,0.001,-0.002,-0.001,-0.430,0.285,-0.504,191.63,-0.850000
21:25:40:732,-0.002,-0.022,0.976,0.000,-0.001,-0.001,-0.430,0.282,-0.501,192.46,0.830000
21:25:40:733,-0.002,-0.023,0.987,0.001,-0.002,-0.001,-0.435,0.284,-0.504,191.63,-0.830000
21:25:40:733,-0.001,-0.022,0.976,0.001,-0.002,-0.001,-0.433,0.283,-0.507,191.70,0.070000
21:25:40:734,-0.001,-0.024,0.981,0.001,-0.002,-0.001,-0.432,0.281,-0.502,191.70,0.000000
21:25:40:735,-0.002,-0.024,0.981,0.000,-0.001,-0.001,-0.435,0.284,-0.504,192.09,0.390000
21:25:40:735,-0.001,-0.023,0.981,0.001,-0.002,-0.001,-0.434,0.286,-0.500,191.98,-0.110000
21:25:40:736,-0.001,-0.023,0.980,0.001,-0.002,-0.001,-0.434,0.286,-0.500,191.75,-0.230000
21:25:40:737,-0.000,-0.023,0.981,0.001,-0.002,-0.001,-0.435,0.280,-0.500,191.69,-0.060000
21:25:40:737,-0.002,-0.023,0.981,0.001,-0.001,-0.001,-0.436,0.283,-0.501,191.28,-0.410000
21:25:40:738,-0.002,-0.022,0.981,0.001,-0.001,-0.001,-0.431,0.280,-0.506,192.12,0.840000
21:25:40:739,-0.002,-0.023,0.978,0.000,-0.002,-0.001,-0.434,0.281,-0.505,192.14,0.020000
21:25:40:739,-0.002,-0.022,0.986,0.001,-0.002,-0.001,-0.436,0.284,-0.502,192.02,-0.120000
21:25:40:740,-0.001,-0.022,0.979,0.001,-0.002,-0.001,-0.427,0.280,-0.500,191.89,-0.130000
21:25:40:741,-0.002,-0.022,0.983,0.001,-0.002,-0.001,-0.427,0.279,-0.502,192.39,0.500000
21:25:40:741,-0.001,-0.023,0.980,0.001,-0.002,-0.001,-0.433,0.279,-0.502,191.87,-0.520000
21:25:40:742,-0.001,-0.023,0.980,0.001,-0.002,-0.001,-0.433,0.277,-0.508,191.62,-0.250000
21:25:40:743,-0.002,-0.022,0.981,0.001,-0.002,-0.001,-0.429,0.277,-0.503,191.49,-0.130000
21:25:40:743,-0.001,-0.023,0.981,0.001,-0.001,-0.001,-0.434,0.280,-0.499,191.57,0.080000
21:25:40:744,-0.002,-0.022,0.980,0.001,-0.001,-0.001,-0.434,0.279,-0.499,191.83,0.260000
21:25:40:745,-0.002,-0.023,0.981,0.001,-0.001,-0.001,-0.434,0.282,-0.499,191.87,0.040000
21:25:40:745,-0.002,-0.023,0.981,0.001,-0.001,-0.001,-0.432,0.284,-0.510,192.42,0.550000
21:25:40:746,-0.002,-0.023,0.981,0.000,-0.002,-0.001,-0.432,0.284,-0.510,191.95,-0.470000
21:25:40:747,-0.002,-0.023,0.982,0.000,-0.002,-0.001,-0.433,0.282,-0.505,192.03,0.080000
21:25:40:748,-0.000,-0.023,0.979,0.001,-0.001,-0.001,-0.432,0.276,-0.505,191.60,-0.430000
21:25:40:748,0.000,-0.022,0.979,0.001,-0.002,-0.001,-0.431,0.280,-0.509,192.05,0.450000
21:25:40:749,-0.002,-0.023,0.986,0.001,-0.001,-0.001,-0.435,0.278,-0.505,191.85,-0.200000
21:25:40:750,-0.001,-0.023,0.977,0.001,-0.001,-0.001,-0.436,0.282,-0.506,192.13,0.280000
21:25:40:750,-0.001,-0.023,0.982,0.001,-0.002,-0.001,-0.436,0.284,-0.507,191.92,-0.210000
21:25:40:751,-0.001,-0.023,0.982,0.001,-0.002,-0.001,-0.436,0.284,-0.507,191.52,-0.400000
21:25:40:752,-0.001,-0.024,0.984,0.001,-0.002,-0.001,-0.430,0.281,-0.509,192.19,0.670000
21:25:40:752,-0.001,-0.022,0.979,0.001,-0.002,-0.001,-0.428,0.282,-0.504,191.83,-0.360000
21:25:40:753,-0.002,-0.023,0.982,0.001,-0.002,-0.001,-0.431,0.279,-0.503,191.55,-0.280000
21:25:40:754,-0.001,-0.023,0.980,0.001,-0.001,-0.001,-0.432,0.282,-0.507,192.37,0.820000
21:25:40:754,-0.000,-0.022,0.979,0.001,-0.001,-0.001,-0.434,0.278,-0.511,191.86,-0.510000
21:25:40:755,-0.002,-0.024,0.987,0.001,-0.002,-0.001,-0.435,0.285,-0.510,191.75,-0.110000
21:25:40:756,-0.002,-0.022,0.981,0.001,-0.002,-0.001,-0.435,0.285,-0.510,191.41,-0.340000
21:25:40:756,-0.003,-0.023,0.982,0.001,-0.001,-0.001,-0.435,0.287,-0.513,191.91,0.500000
21:25:40:757,-0.002,-0.023,0.980,0.001,-0.001,-0.001,-0.433,0.283,-0.509,192.26,0.350000
21:25:40:758,-0.001,-0.024,0.982,0.001,-0.001,-0.001,-0.434,0.285,-0.509,191.65,-0.610000
21:25:40:758,-0.001,-0.022,0.978,0.001,-0.002,-0.001,-0.432,0.283,-0.507,192.35,0.700000
21:25:40:759,-0.001,-0.023,0.979,0.001,-0.001,-0.001,-0.435,0.286,-0.509,191.93,-0.420000
21:25:40:760,-0.002,-0.023,0.972,0.000,-0.001,-0.001,-0.435,0.286,-0.502,191.86,-0.070000
21:25:40:761,-0.001,-0.024,0.993,0.000,-0.001,-0.001,-0.435,0.286,-0.502,191.44,-0.420000
21:25:40:761,-0.000,-0.023,0.979,0.001,-0.002,-0.001,-0.430,0.285,-0.501,191.88,0.440000
21:25:40:762,-0.002,-0.022,0.982,0.001,-0.001,-0.001,-0.434,0.281,-0.502,191.92,0.040000
21:25:40:763,-0.001,-0.023,0.983,0.001,-0.002,-0.001,-0.433,0.285,-0.501,191.92,0.000000
21:25:40:763,-0.002,-0.022,0.980,0.001,-0.002,-0.001,-0.435,0.282,-0.500,191.50,-0.420000
21:25:40:764,-0.002,-0.024,0.982,0.001,-0.002,-0.001,-0.433,0.280,-0.507,191.87,0.370000
21:25:40:765,-0.001,-0.023,0.979,0.001,-0.002,-0.001,-0.439,0.277,-0.506,191.75,-0.120000
21:25:40:765,-0.000,-0.023,0.980,0.001,-0.002,-0.001,-0.439,0.277,-0.506,191.80,0.050000
21:25:40:766,0.000,-0.022,0.982,0.001,-0.001,-0.001,-0.435,0.283,-0.506,191.72,-0.080000
21:25:40:767,-0.001,-0.023,0.981,0.000,-0.001,-0.001,-0.434,0.283,-0.504,192.27,0.550000
21:25:40:767,-0.001,-0.023,0.981,0.001,-0.002,-0.001,-0.438,0.287,-0.501,192.26,-0.010000
21:25:40:768,-0.001,-0.023,0.982,0.001,-0.002,-0.001,-0.433,0.285,-0.505,191.94,-0.320000
21:25:40:769,-0.002,-0.023,0.982,0.001,-0.002,-0.001,-0.436,0.284,-0.505,192.28,0.340000
21:25:40:769,-0.001,-0.024,0.981,0.001,-0.002,-0.001,-0.431,0.283,-0.508,191.80,-0.480000
21:25:40:770,-0.002,-0.023,0.980,0.001,-0.001,-0.001,-0.431,0.283,-0.508,191.75,-0.050000
21:25:40:771,-0.002,-0.023,0.982,0.001,-0.002,-0.001,-0.433,0.281,-0.508,192.45,0.700000
21:25:40:771,-0.002,-0.023,0.981,0.000,-0.002,-0.001,-0.435,0.285,-0.509,192.02,-0.430000
21:25:40:772,-0.001,-0.021,0.980,0.001,-0.002,-0.001,-0.434,0.283,-0.506,191.90,-0.120000
21:25:40:772,-0.001,-0.023,0.979,0.001,-0.002,-0.001,-0.432,0.277,-0.504,191.35,-0.550000
21:25:40:773,-0.002,-0.023,0.980,0.001,-0.002,-0.001,-0.434,0.279,-0.505,192.11,0.760000
21:25:40:774,-0.001,-0.021,0.982,0.001,-0.001,-0.001,-0.433,0.283,-0.506,191.73,-0.380000
21:25:40:774,-0.002,-0.023,0.981,0.000,-0.001,-0.001,-0.433,0.283,-0.506,192.09,0.360000
21:25:40:775,-0.001,-0.023,0.981,0.001,-0.001,-0.001,-0.432,0.282,-0.503,191.95,-0.140000
21:25:40:776,-0.001,-0.021,0.981,0.001,-0.001,-0.001,-0.437,0.283,-0.505,192.21,0.260000
21:25:40:776,-0.002,-0.022,0.981,0.001,-0.001,-0.001,-0.432,0.282,-0.504,191.35,-0.860000
21:25:40:777,-0.002,-0.023,0.980,0.001,-0.002,-0.000,-0.431,0.278,-0.509,191.79,0.440000
21:25:40:778,-0.001,-0.023,0.980,0.001,-0.002,-0.001,-0.434,0.281,-0.502,191.95,0.160000
21:25:40:778,-0.002,-0.023,0.980,0.001,-0.002,-0.001,-0.432,0.283,-0.505,192.36,0.410000
21:25:40:779,-0.001,-0.023,0.982,0.001,-0.002,-0.001,-0.432,0.283,-0.507,192.06,-0.300000
21:25:40:780,-0.001,-0.023,0.981,0.001,-0.001,-0.001,-0.430,0.284,-0.507,192.06,0.000000
21:25:40:781,-0.002,-0.022,0.982,0.000,-0.001,-0.001,-0.431,0.282,-0.508,191.61,-0.450000
21:25:40:781,-0.001,-0.023,0.980,0.000,-0.002,-0.001,-0.429,0.280,-0.509,191.60,-0.010000
21:25:40:782,-0.001,-0.024,0.979,0.001,-0.002,-0.001,-0.430,0.277,-0.511,192.19,0.590000
21:25:40:783,-0.000,-0.023,0.979,0.000,-0.002,-0.001,-0.434,0.278,-0.508,191.71,-0.480000
21:25:40:783,-0.001,-0.023,0.981,0.000,-0.002,-0.001,-0.428,0.281,-0.507,192.02,0.310000
21:25:40:784,-0.001,-0.024,0.981,0.000,-0.001,-0.001,-0.428,0.281,-0.511,191.66,-0.360000
21:25:40:785,-0.001,-0.023,0.981,0.000,-0.002,-0.001,-0.432,0.281,-0.511,191.17,-0.490000
21:25:40:785,-0.002,-0.024,0.983,0.000,-0.002,-0.001,-0.431,0.284,-0.508,191.86,0.690000
21:25:40:786,-0.001,-0.022,0.982,0.001,-0.001,-0.001,-0.436,0.283,-0.505,191.80,-0.060000
21:25:40:787,-0.001,-0.023,0.981,0.001,-0.002,-0.001,-0.431,0.283,-0.509,191.56,-0.240000
21:25:40:787,-0.002,-0.023,0.981,0.001,-0.002,-0.001,-0.433,0.282,-0.502,192.14,0.580000
21:25:40:788,0.000,-0.023,0.982,0.000,-0.002,-0.001,-0.433,0.290,-0.501,191.73,-0.410000
21:25:40:789,-0.001,-0.022,0.981,0.001,-0.001,-0.001,-0.432,0.286,-0.508,191.29,-0.440000
21:25:40:789,-0.000,-0.022,0.981,0.000,-0.002,-0.001,-0.432,0.286,-0.508,191.84,0.550000
21:25:40:790,-0.002,-0.022,0.982,0.001,-0.002,-0.001,-0.434,0.286,-0.501,191.71,-0.130000
21:25:40:791,-0.000,-0.023,0.981,0.001,-0.002,-0.001,-0.433,0.286,-0.511,191.86,0.150000
21:25:40:791,-0.002,-0.023,0.981,0.001,-0.001,-0.001,-0.428,0.283,-0.516,192.15,0.290000
21:25:40:792,-0.001,-0.022,0.981,0.001,-0.002,-0.001,-0.430,0.283,-0.516,191.56,-0.590000
21:25:40:793,-0.001,-0.022,0.981,0.001,-0.002,-0.001,-0.435,0.288,-0.511,191.83,0.270000
21:25:40:793,-0.002,-0.023,0.980,0.001,-0.002,-0.001,-0.436,0.284,-0.514,192.27,0.440000
21:25:40:794,-0.002,-0.024,0.981,0.000,-0.001,-0.001,-0.436,0.284,-0.514,191.78,-0.490000
21:25:40:795,-0.001,-0.023,0.982,0.001,-0.002,-0.001,-0.433,0.280,-0.508,191.60,-0.180000
21:25:40:795,-0.002,-0.023,0.981,0.000,-0.001,-0.001,-0.433,0.281,-0.505,192.03,0.430000
21:25:40:796,-0.002,-0.022,0.980,0.001,-0.001,-0.001,-0.426,0.281,-0.499,192.03,0.000000
21:25:40:797,-0.000,-0.022,0.981,0.000,-0.002,-0.001,-0.431,0.286,-0.507,192.24,0.210000
21:25:40:797,-0.001,-0.022,0.981,0.001,-0.002,-0.001,-0.436,0.285,-0.510,192.15,-0.090000
21:25:40:798,-0.001,-0.023,0.981,0.001,-0.001,-0.000,-0.437,0.286,-0.504,191.48,-0.670000
21:25:40:799,-0.001,-0.023,0.980,0.001,-0.002,-0.001,-0.437,0.286,-0.504,191.72,0.240000
21:25:40:799,0.000,-0.022,0.980,0.001,-0.002,-0.001,-0.430,0.288,-0.508,191.95,0.230000
21:25:40:800,-0.002,-0.024,0.980,0.001,-0.002,-0.001,-0.430,0.286,-0.509,192.10,0.150000
21:25:40:801,-0.002,-0.023,0.982,0.000,-0.002,-0.001,-0.430,0.281,-0.513,191.49,-0.610000
21:25:40:801,-0.001,-0.024,0.982,0.001,-0.002,-0.001,-0.430,0.286,-0.508,191.84,0.350000
21:25:40:802,-0.000,-0.023,0.981,0.000,-0.002,-0.001,-0.433,0.288,-0.511,191.80,-0.040000
21:25:40:803,-0.000,-0.023,0.981,0.001,-0.001,-0.001,-0.430,0.288,-0.515,192.05,0.250000
21:25:40:804,-0.001,-0.023,0.980,0.001,-0.001,-0.001,-0.430,0.288,-0.515,191.64,-0.410000
21:25:40:804,-0.001,-0.023,0.982,0.001,-0.002,-0.001,-0.430,0.283,-0.510,192.05,0.410000
21:25:40:805,-0.002,-0.022,0.981,0.001,-0.002,-0.001,-0.429,0.282,-0.512,191.97,-0.080000
21:25:40:806,-0.002,-0.024,0.980,0.000,-0.002,-0.001,-0.432,0.277,-0.513,191.65,-0.320000
21:25:40:806,-0.003,-0.023,0.981,0.001,-0.002,-0.001,-0.431,0.281,-0.504,192.22,0.570000
21:25:40:807,-0.001,-0.022,0.980,0.001,-0.002,-0.001,-0.430,0.280,-0.510,191.99,-0.230000
21:25:40:808,-0.002,-0.023,0.981,0.001,-0.002,-0.001,-0.435,0.282,-0.506,191.76,-0.230000
21:25:40:808,0.000,-0.021,0.981,0.001,-0.002,-0.001,-0.435,0.282,-0.506,192.27,0.510000
21:25:40:809,-0.000,-0.023,0.981,0.000,-0.002,-0.001,-0.432,0.280,-0.513,192.59,0.320000
21:25:40:810,-0.001,-0.023,0.982,0.001,-0.001,-0.001,-0.433,0.280,-0.510,191.83,-0.760000
21:25:40:810,-0.002,-0.022,0.980,0.001,-0.002,-0.001,-0.430,0.278,-0.514,192.21,0.380000
21:25:40:811,-0.001,-0.022,0.981,0.001,-0.002,-0.001,-0.432,0.278,-0.510,192.18,-0.030000
21:25:40:812,-0.002,-0.022,0.982,0.001,-0.002,-0.001,-0.426,0.284,-0.517,192.07,-0.110000
21:25:40:812,-0.002,-0.023,0.982,0.001,-0.001,-0.001,-0.428,0.282,-0.510,191.88,-0.190000
21:25:40:813,-0.001,-0.022,0.981,0.001,-0.001,-0.001,-0.428,0.282,-0.510,191.56,-0.320000
21:25:40:814,-0.000,-0.022,0.981,0.000,-0.002,-0.001,-0.433,0.281,-0.508,192.45,0.890000
21:25:40:814,-0.001,-0.023,0.981,0.000,-0.001,-0.001,-0.430,0.281,-0.512,191.83,-0.620000
21:25:40:815,-0.002,-0.023,0.981,0.001,-0.002,-0.001,-0.433,0.281,-0.515,191.59,-0.240000
21:25:40:816,-0.001,-0.023,0.981,0.001,-0.002,-0.001,-0.432,0.282,-0.516,191.29,-0.300000
21:25:40:816,-0.002,-0.023,0.980,0.001,-0.002,-0.001,-0.432,0.281,-0.510,191.92,0.630000
21:25:40:817,-0.001,-0.022,0.980,0.001,-0.002,-0.001,-0.434,0.279,-0.503,192.40,0.480000
21:25:40:818,-0.002,-0.023,0.981,0.000,-0.002,-0.000,-0.434,0.279,-0.503,190.98,-1.420000
21:25:40:818,0.000,-0.023,0.982,0.001,-0.002,-0.001,-0.433,0.283,-0.512,191.66,0.680000
21:25:40:819,-0.002,-0.022,0.981,0.001,-0.002,-0.001,-0.430,0.284,-0.509,191.62,-0.040000
21:25:40:820,-0.002,-0.024,0.982,0.000,-0.002,-0.001,-0.431,0.283,-0.507,191.29,-0.330000
21:25:40:820,-0.001,-0.023,0.981,0.001,-0.001,-0.001,-0.433,0.283,-0.511,192.15,0.860000
21:25:40:821,-0.001,-0.022,0.980,0.001,-0.002,-0.001,-0.432,0.286,-0.516,192.40,0.250000
21:25:40:822,0.000,-0.023,0.980,0.000,-0.001,-0.001,-0.433,0.286,-0.515,191.83,-0.570000
21:25:40:823,-0.001,-0.022,0.981,0.000,-0.002,-0.001,-0.433,0.286,-0.512,192.18,0.350000
21:25:40:823,-0.000,-0.022,0.982,0.001,-0.002,-0.001,-0.432,0.283,-0.512,192.18,0.000000
21:25:40:824,-0.001,-0.023,0.980,0.001,-0.001,-0.001,-0.432,0.286,-0.509,191.34,-0.840000
21:25:40:825,-0.002,-0.024,0.981,0.001,-0.002,-0.001,-0.433,0.281,-0.514,192.24,0.900000
21:25:40:825,-0.002,-0.023,0.980,0.001,-0.002,-0.001,-0.434,0.278,-0.517,191.20,-1.040000
21:25:40:826,-0.003,-0.023,0.982,0.000,-0.002,-0.001,-0.431,0.283,-0.508,191.45,0.250000
21:25:40:827,-0.001,-0.023,0.982,0.001,-0.001,-0.001,-0.430,0.281,-0.512,191.48,0.030000
21:25:40:827,-0.003,-0.023,0.982,0.001,-0.002,-0.001,-0.430,0.279,-0.514,192.37,0.890000
21:25:40:828,-0.000,-0.023,0.981,0.001,-0.001,-0.001,-0.429,0.279,-0.514,191.41,-0.960000
21:25:40:829,-0.000,-0.022,0.980,0.001,-0.002,-0.001,-0.431,0.285,-0.517,191.03,-0.380000
21:25:40:829,-0.001,-0.023,0.980,0.001,-0.002,-0.001,-0.431,0.280,-0.511,192.30,1.270000
21:25:40:830,-0.001,-0.024,0.984,0.000,-0.001,-0.001,-0.434,0.284,-0.515,191.45,-0.850000
21:25:40:831,-0.002,-0.023,0.976,0.000,-0.001,-0.001,-0.430,0.284,-0.512,191.87,0.420000
21:25:40:831,-0.002,-0.024,0.986,0.000,-0.001,-0.001,-0.434,0.282,-0.512,191.38,-0.490000
21:25:40:832,-0.000,-0.022,0.980,0.001,-0.002,-0.001,-0.433,0.287,-0.519,191.80,0.420000
21:25:40:833,-0.000,-0.023,0.981,0.001,-0.001,-0.001,-0.433,0.287,-0.519,191.56,-0.240000
21:25:40:833,-0.002,-0.023,0.979,0.000,-0.002,-0.001,-0.433,0.286,-0.519,192.05,0.490000
21:25:40:834,-0.001,-0.023,0.981,0.001,-0.002,-0.001,-0.430,0.285,-0.509,191.77,-0.280000
21:25:40:835,-0.001,-0.023,0.980,0.001,-0.001,-0.001,-0.431,0.284,-0.513,191.31,-0.460000
21:25:40:835,-0.001,-0.023,0.981,0.000,-0.002,-0.001,-0.432,0.283,-0.509,191.66,0.350000
21:25:40:836,-0.002,-0.023,0.980,0.001,-0.002,-0.001,-0.431,0.286,-0.517,191.64,-0.020000
21:25:40:837,-0.003,-0.024,0.985,0.001,-0.002,-0.001,-0.437,0.282,-0.519,191.76,0.120000
21:25:40:837,-0.001,-0.022,0.979,0.000,-0.002,-0.001,-0.437,0.282,-0.519,191.55,-0.210000
21:25:40:838,-0.001,-0.023,0.981,0.000,-0.002,-0.001,-0.429,0.283,-0.512,191.63,0.080000
21:25:40:839,-0.001,-0.023,0.980,0.001,-0.002,-0.001,-0.432,0.284,-0.515,192.03,0.400000
21:25:40:839,-0.001,-0.024,0.982,0.001,-0.002,-0.001,-0.432,0.281,-0.514,191.58,-0.450000
21:25:40:840,-0.001,-0.023,0.981,0.001,-0.001,-0.001,-0.430,0.287,-0.515,191.63,0.050000
21:25:40:841,-0.001,-0.023,0.981,0.001,-0.001,-0.001,-0.433,0.287,-0.514,191.48,-0.150000
21:25:40:842,-0.001,-0.022,0.978,0.001,-0.002,-0.001,-0.428,0.284,-0.512,191.60,0.120000
21:25:40:842,-0.002,-0.022,0.974,0.000,-0.001,-0.001,-0.428,0.284,-0.512,191.69,0.090000
21:25:40:843,-0.001,-0.024,0.992,0.000,-0.001,-0.001,-0.429,0.280,-0.507,191.67,-0.020000
21:25:40:844,-0.002,-0.023,0.982,0.001,-0.002,-0.001,-0.433,0.281,-0.511,191.81,0.140000
21:25:40:844,-0.002,-0.023,0.976,0.001,-0.002,-0.001,-0.433,0.283,-0.515,191.73,-0.080000
21:25:40:845,-0.002,-0.023,0.983,0.001,-0.002,-0.001,-0.431,0.286,-0.515,192.08,0.350000
21:25:40:846,-0.001,-0.022,0.979,0.001,-0.002,-0.001,-0.430,0.284,-0.503,192.34,0.260000
21:25:40:846,-0.001,-0.023,0.982,0.001,-0.002,-0.001,-0.430,0.279,-0.508,192.56,0.220000
21:25:40:847,-0.001,-0.024,0.983,0.001,-0.002,-0.001,-0.430,0.279,-0.508,192.29,-0.270000
21:25:40:848,-0.001,-0.023,0.980,0.001,-0.002,-0.001,-0.428,0.279,-0.513,191.82,-0.470000
21:25:40:848,-0.001,-0.023,0.978,0.001,-0.002,-0.001,-0.426,0.283,-0.511,191.87,0.050000
21:25:40:849,-0.002,-0.023,0.983,0.001,-0.002,-0.001,-0.430,0.282,-0.510,191.44,-0.430000
21:25:40:850,-0.002,-0.024,0.981,0.000,-0.001,-0.001,-0.432,0.285,-0.507,191.38,-0.060000
21:25:40:850,-0.001,-0.023,0.981,0.001,-0.001,-0.001,-0.429,0.285,-0.508,191.92,0.540000
21:25:40:851,-0.001,-0.024,0.981,0.001,-0.002,-0.001,-0.429,0.285,-0.509,191.52,-0.400000
21:25:40:852,-0.002,-0.023,0.982,0.001,-0.001,-0.001,-0.429,0.285,-0.509,192.00,0.480000
21:25:40:853,-0.001,-0.023,0.980,0.001,-0.002,-0.001,-0.431,0.283,-0.504,191.76,-0.240000
21:25:40:853,-0.002,-0.023,0.981,0.001,-0.002,-0.001,-0.432,0.283,-0.502,191.71,-0.050000
21:25:40:854,-0.001,-0.024,0.983,0.001,-0.001,-0.001,-0.434,0.280,-0.505,191.67,-0.040000
21:25:40:855,-0.000,-0.023,0.982,0.001,-0.001,-0.001,-0.433,0.281,-0.509,192.13,0.460000
21:25:40:855,-0.001,-0.024,0.980,0.001,-0.002,-0.001,-0.435,0.281,-0.514,191.91,-0.220000
21:25:40:856,-0.002,-0.023,0.980,0.000,-0.002,-0.001,-0.433,0.281,-0.510,192.17,0.260000
21:25:40:857,-0.000,-0.023,0.980,0.001,-0.002,-0.001,-0.433,0.281,-0.510,192.15,-0.020000
21:25:40:857,-0.001,-0.023,0.981,0.001,-0.002,-0.001,-0.430,0.276,-0.510,191.93,-0.220000
21:25:40:858,-0.001,-0.024,0.980,0.001,-0.002,-0.001,-0.430,0.281,-0.509,191.93,0.000000
21:25:40:859,-0.002,-0.024,0.981,0.001,-0.001,-0.001,-0.436,0.279,-0.510,191.67,-0.260000
21:25:40:859,-0.001,-0.022,0.981,0.001,-0.001,-0.001,-0.432,0.280,-0.514,191.58,-0.090000
21:25:40:860,-0.001,-0.024,0.982,0.000,-0.002,-0.001,-0.436,0.284,-0.519,191.69,0.110000
21:25:40:861,0.000,-0.022,0.981,0.001,-0.002,-0.001,-0.432,0.282,-0.520,192.20,0.510000
21:25:40:861,-0.001,-0.023,0.981,0.001,-0.002,-0.001,-0.432,0.282,-0.520,192.16,-0.040000
21:25:40:862,-0.001,-0.023,0.980,0.001,-0.001,-0.001,-0.431,0.279,-0.508,192.14,-0.020000
21:25:40:863,-0.003,-0.022,0.980,0.001,-0.001,-0.001,-0.431,0.284,-0.507,191.95,-0.190000
21:25:40:863,-0.002,-0.022,0.980,0.001,-0.001,-0.001,-0.440,0.284,-0.510,191.90,-0.050000
21:25:40:864,-0.001,-0.024,0.982,0.001,-0.001,-0.001,-0.434,0.282,-0.510,192.25,0.350000
21:25:40:865,-0.002,-0.023,0.981,0.001,-0.002,-0.000,-0.432,0.284,-0.501,191.70,-0.550000
21:25:40:865,-0.001,-0.022,0.982,0.001,-0.001,-0.001,-0.430,0.284,-0.507,191.72,0.020000
21:25:40:866,-0.001,-0.024,0.980,0.001,-0.002,-0.001,-0.430,0.284,-0.505,191.52,-0.200000
21:25:40:867,-0.001,-0.024,0.981,0.001,-0.002,-0.001,-0.431,0.284,-0.505,191.49,-0.030000
21:25:40:867,-0.002,-0.022,0.980,0.001,-0.002,-0.001,-0.431,0.285,-0.504,191.60,0.110000
21:25:40:868,-0.001,-0.022,0.981,0.001,-0.001,-0.001,-0.429,0.283,-0.508,191.60,0.000000
21:25:40:869,-0.001,-0.023,0.981,0.000,-0.002,-0.001,-0.433,0.284,-0.508,191.20,-0.400000
21:25:40:869,-0.001,-0.022,0.982,0.000,-0.002,-0.001,-0.434,0.284,-0.515,191.87,0.670000
21:25:40:870,-0.001,-0.022,0.981,0.000,-0.002,-0.001,-0.433,0.285,-0.515,191.43,-0.440000
21:25:40:871,-0.001,-0.023,0.981,0.000,-0.002,-0.001,-0.430,0.281,-0.511,192.09,0.660000
21:25:40:871,-0.001,-0.023,0.982,0.000,-0.002,-0.001,-0.430,0.281,-0.511,191.45,-0.640000
21:25:40:872,-0.001,-0.023,0.981,0.001,-0.001,-0.001,-0.433,0.282,-0.508,191.67,0.220000
21:25:40:873,-0.000,-0.022,0.981,0.001,-0.002,-0.001,-0.433,0.286,-0.508,192.12,0.450000
21:25:40:874,-0.002,-0.024,0.981,0.000,-0.002,-0.001,-0.432,0.289,-0.513,192.13,0.010000
21:25:40:874,-0.002,-0.024,0.982,0.001,-0.002,-0.001,-0.429,0.286,-0.510,191.67,-0.460000
21:25:40:875,-0.002,-0.022,0.980,0.001,-0.002,-0.001,-0.428,0.283,-0.511,191.48,-0.190000
21:25:40:876,-0.002,-0.022,0.980,0.000,-0.001,-0.001,-0.424,0.284,-0.510,191.70,0.220000
21:25:40:876,-0.002,-0.024,0.982,0.001,-0.001,-0.001,-0.424,0.284,-0.510,191.63,-0.070000
21:25:40:877,-0.002,-0.023,0.981,0.001,-0.001,-0.001,-0.428,0.283,-0.512,191.29,-0.340000
21:25:40:878,-0.002,-0.023,0.982,0.001,-0.002,-0.001,-0.434,0.288,-0.511,191.71,0.420000
21:25:40:878,-0.002,-0.023,0.980,0.001,-0.001,-0.001,-0.427,0.283,-0.512,191.59,-0.120000
21:25:40:879,-0.002,-0.024,0.981,0.000,-0.002,-0.001,-0.427,0.285,-0.509,191.58,-0.010000
21:25:40:880,-0.001,-0.024,0.982,0.001,-0.001,-0.001,-0.433,0.283,-0.511,192.03,0.450000
21:25:40:880,-0.000,-0.022,0.982,0.001,-0.002,-0.000,-0.434,0.280,-0.517,191.26,-0.770000
21:25:40:881,-0.001,-0.024,0.981,0.001,-0.002,-0.001,-0.434,0.280,-0.517,191.39,0.130000
21:25:40:882,-0.002,-0.024,0.982,0.001,-0.002,-0.001,-0.431,0.280,-0.507,191.98,0.590000
21:25:40:882,-0.002,-0.022,0.981,0.001,-0.001,-0.001,-0.432,0.280,-0.506,191.35,-0.630000
21:25:40:883,-0.000,-0.022,0.981,0.001,-0.001,-0.001,-0.427,0.283,-0.512,191.74,0.390000
21:25:40:884,-0.002,-0.023,0.981,0.001,-0.002,-0.001,-0.430,0.288,-0.503,192.27,0.530000
21:25:40:884,-0.002,-0.023,0.981,0.000,-0.002,-0.001,-0.431,0.286,-0.504,191.18,-1.090000
21:25:40:885,-0.002,-0.023,0.980,0.001,-0.002,-0.001,-0.428,0.284,-0.505,191.99,0.810000
21:25:40:886,-0.002,-0.023,0.980,0.001,-0.002,-0.001,-0.428,0.284,-0.505,192.47,0.480000
21:25:40:886,-0.002,-0.023,0.979,0.001,-0.001,-0.001,-0.428,0.284,-0.506,191.49,-0.980000
21:25:40:887,-0.001,-0.024,0.980,0.001,-0.002,-0.000,-0.428,0.279,-0.502,191.14,-0.350000
21:25:40:888,-0.001,-0.023,0.981,0.001,-0.002,-0.001,-0.430,0.279,-0.504,191.89,0.750000
21:25:40:888,-0.002,-0.023,0.981,0.001,-0.002,-0.001,-0.431,0.285,-0.508,191.69,-0.200000
21:25:40:889,-0.002,-0.023,0.982,0.001,-0.001,-0.001,-0.430,0.285,-0.508,192.02,0.330000
21:25:40:890,-0.001,-0.023,0.980,0.001,-0.002,-0.001,-0.427,0.279,-0.505,191.69,-0.330000
21:25:40:891,-0.001,-0.024,0.981,0.001,-0.002,-0.001,-0.427,0.279,-0.505,191.81,0.120000
21:25:40:891,-0.003,-0.023,0.980,0.001,-0.002,-0.000,-0.426,0.280,-0.509,192.01,0.200000
21:25:40:892,-0.003,-0.023,0.981,0.001,-0.001,-0.001,-0.430,0.276,-0.508,192.04,0.030000
21:25:40:893,-0.001,-0.023,0.980,0.000,-0.002,-0.001,-0.428,0.282,-0.507,191.87,-0.170000
21:25:40:893,-0.001,-0.022,0.981,0.000,-0.002,-0.001,-0.428,0.284,-0.512,191.99,0.120000
21:25:40:894,-0.002,-0.023,0.979,0.001,-0.002,-0.001,-0.430,0.282,-0.508,191.64,-0.350000
21:25:40:895,-0.002,-0.023,0.981,0.001,-0.002,-0.000,-0.429,0.280,-0.507,191.98,0.340000
21:25:40:895,-0.002,-0.024,0.983,0.001,-0.002,-0.001,-0.429,0.280,-0.507,192.57,0.590000
21:25:40:896,-0.002,-0.023,0.982,0.001,-0.002,-0.001,-0.428,0.283,-0.508,191.47,-1.100000
21:25:40:897,-0.002,-0.023,0.980,0.001,-0.001,-0.001,-0.426,0.280,-0.506,191.49,0.020000
21:25:40:897,-0.001,-0.023,0.981,0.001,-0.002,-0.001,-0.429,0.280,-0.506,191.89,0.400000
21:25:40:898,-0.002,-0.023,0.982,0.001,-0.002,-0.001,-0.430,0.279,-0.500,192.06,0.170000
21:25:40:899,-0.001,-0.024,0.984,0.001,-0.002,-0.001,-0.430,0.276,-0.501,192.07,0.010000
21:25:40:899,-0.000,-0.023,0.975,0.001,-0.002,-0.001,-0.427,0.282,-0.504,191.81,-0.260000
21:25:40:900,-0.002,-0.023,0.986,0.000,-0.001,-0.001,-0.427,0.282,-0.504,191.86,0.050000
21:25:40:901,-0.002,-0.022,0.979,0.001,-0.002,-0.001,-0.432,0.284,-0.504,191.51,-0.350000
21:25:40:901,-0.003,-0.023,0.980,0.000,-0.001,-0.001,-0.430,0.283,-0.499,191.59,0.080000
21:25:40:902,-0.002,-0.022,0.982,0.001,-0.002,-0.001,-0.428,0.282,-0.504,192.52,0.930000
21:25:40:903,-0.002,-0.023,0.982,0.001,-0.001,-0.001,-0.430,0.278,-0.509,191.98,-0.540000
21:25:40:904,-0.002,-0.022,0.982,0.001,-0.001,-0.001,-0.429,0.282,-0.506,191.83,-0.150000
21:25:40:904,-0.001,-0.022,0.979,0.001,-0.002,-0.001,-0.431,0.276,-0.503,191.92,0.090000
21:25:40:905,-0.002,-0.025,0.984,0.000,-0.001,-0.001,-0.431,0.276,-0.501,191.93,0.010000
21:25:40:906,-0.002,-0.023,0.978,0.001,-0.002,-0.001,-0.430,0.281,-0.501,191.49,-0.440000
21:25:40:906,-0.003,-0.024,0.978,0.001,-0.002,-0.001,-0.429,0.280,-0.513,192.21,0.720000
21:25:40:907,-0.001,-0.023,0.984,0.001,-0.002,-0.001,-0.430,0.278,-0.513,192.33,0.120000
21:25:40:908,-0.002,-0.023,0.981,0.001,-0.002,-0.001,-0.430,0.279,-0.513,191.75,-0.580000
21:25:40:908,-0.001,-0.023,0.980,0.001,-0.002,-0.001,-0.435,0.280,-0.507,191.21,-0.540000
21:25:40:909,-0.002,-0.022,0.981,0.001,-0.002,-0.001,-0.431,0.283,-0.511,191.77,0.560000
21:25:40:910,-0.001,-0.023,0.980,0.001,-0.002,-0.000,-0.431,0.284,-0.510,192.00,0.230000
21:25:40:910,-0.000,-0.023,0.979,0.001,-0.002,-0.001,-0.432,0.284,-0.510,192.28,0.280000
21:25:40:911,-0.001,-0.023,0.981,0.001,-0.002,-0.001,-0.431,0.284,-0.511,191.85,-0.430000
21:25:40:912,-0.001,-0.024,0.981,0.001,-0.002,-0.001,-0.433,0.285,-0.511,190.81,-1.040000
21:25:40:912,-0.001,-0.025,0.981,0.001,-0.002,-0.001,-0.428,0.281,-0.507,190.93,0.120000
21:25:40:913,-0.001,-0.023,0.981,0.000,-0.001,-0.001,-0.432,0.285,-0.506,192.30,1.370000
21:25:40:914,-0.001,-0.022,0.981,0.001,-0.002,-0.001,-0.431,0.279,-0.507,191.84,-0.460000
21:25:40:914,-0.002,-0.023,0.981,0.001,-0.001,-0.001,-0.434,0.283,-0.507,191.71,-0.130000
21:25:40:915,-0.002,-0.022,0.980,0.001,-0.001,-0.001,-0.434,0.283,-0.507,191.92,0.210000
21:25:40:916,-0.001,-0.023,0.981,0.000,-0.002,-0.001,-0.433,0.281,-0.501,191.59,-0.330000
21:25:40:916,-0.002,-0.022,0.982,0.001,-0.002,-0.001,-0.433,0.283,-0.498,191.03,-0.560000
21:25:40:917,-0.001,-0.022,0.981,0.001,-0.001,-0.001,-0.431,0.280,-0.499,191.80,0.770000
21:25:40:918,-0.001,-0.022,0.981,0.001,-0.002,-0.001,-0.431,0.280,-0.506,192.24,0.440000
21:25:40:918,-0.002,-0.022,0.982,0.000,-0.002,-0.001,-0.433,0.281,-0.504,191.32,-0.920000
21:25:40:919,-0.002,-0.023,0.981,0.001,-0.002,-0.001,-0.428,0.278,-0.505,191.44,0.120000
21:25:40:920,-0.001,-0.023,0.980,0.001,-0.002,-0.001,-0.428,0.278,-0.505,192.00,0.560000
21:25:40:920,-0.003,-0.024,0.981,0.001,-0.002,-0.001,-0.431,0.279,-0.505,192.01,0.010000
21:25:40:921,-0.000,-0.023,0.980,0.001,-0.002,-0.001,-0.435,0.278,-0.507,191.93,-0.080000
21:25:40:922,-0.002,-0.024,0.981,0.001,-0.001,-0.001,-0.429,0.283,-0.509,191.96,0.030000
21:25:40:922,-0.001,-0.024,0.981,0.000,-0.001,-0.001,-0.427,0.285,-0.511,191.67,-0.290000
21:25:40:923,-0.002,-0.023,0.981,0.001,-0.002,-0.001,-0.430,0.283,-0.512,192.07,0.400000
21:25:40:924,-0.001,-0.023,0.981,0.001,-0.002,-0.001,-0.433,0.280,-0.507,191.89,-0.180000
21:25:40:925,-0.001,-0.023,0.981,0.001,-0.001,-0.001,-0.433,0.280,-0.507,192.03,0.140000
21:25:40:925,-0.003,-0.023,0.981,0.001,-0.002,-0.001,-0.430,0.277,-0.506,191.74,-0.290000
21:25:40:926,-0.000,-0.023,0.982,0.001,-0.002,-0.001,-0.430,0.279,-0.508,192.63,0.890000
21:25:40:927,-0.000,-0.023,0.982,0.001,-0.002,-0.001,-0.434,0.278,-0.516,192.44,-0.190000
21:25:40:927,-0.001,-0.023,0.981,0.001,-0.002,-0.001,-0.436,0.282,-0.504,191.95,-0.490000
21:25:40:928,-0.002,-0.022,0.980,0.001,-0.001,-0.000,-0.433,0.282,-0.499,191.45,-0.500000
21:25:40:929,-0.001,-0.022,0.981,0.000,-0.001,-0.001,-0.436,0.278,-0.512,191.62,0.170000
21:25:40:929,-0.001,-0.024,0.981,0.001,-0.001,-0.001,-0.436,0.278,-0.512,191.92,0.300000
21:25:40:930,-0.001,-0.023,0.980,0.000,-0.001,-0.001,-0.430,0.282,-0.513,192.02,0.100000
21:25:40:931,-0.001,-0.023,0.980,0.001,-0.002,-0.001,-0.432,0.279,-0.505,191.88,-0.140000
21:25:40:931,-0.002,-0.022,0.983,0.001,-0.002,-0.001,-0.431,0.278,-0.504,191.97,0.090000
21:25:40:932,-0.002,-0.023,0.982,0.001,-0.002,-0.001,-0.432,0.279,-0.504,192.08,0.110000
21:25:40:933,-0.002,-0.023,0.981,0.001,-0.002,-0.001,-0.435,0.276,-0.513,191.54,-0.540000
21:25:40:933,-0.002,-0.022,0.981,0.001,-0.001,-0.001,-0.432,0.280,-0.508,192.34,0.800000
21:25:40:934,-0.001,-0.023,0.982,0.001,-0.002,-0.001,-0.432,0.280,-0.508,191.73,-0.610000
21:25:40:935,-0.001,-0.023,0.981,0.001,-0.002,-0.001,-0.434,0.281,-0.506,191.18,-0.550000
21:25:40:935,-0.001,-0.022,0.981,0.001,-0.002,-0.001,-0.431,0.278,-0.503,192.07,0.890000
21:25:40:936,-0.002,-0.024,0.982,0.001,-0.002,-0.001,-0.432,0.280,-0.507,192.33,0.260000
21:25:40:937,-0.001,-0.022,0.982,0.001,-0.002,-0.001,-0.430,0.282,-0.512,192.13,-0.200000
21:25:40:937,-0.001,-0.024,0.982,0.001,-0.002,-0.001,-0.435,0.284,-0.509,191.71,-0.420000
21:25:40:938,-0.002,-0.023,0.980,0.001,-0.002,-0.001,-0.431,0.282,-0.512,191.70,-0.010000
21:25:40:939,-0.002,-0.024,0.982,0.001,-0.002,-0.001,-0.431,0.282,-0.512,191.46,-0.240000
21:25:40:939,-0.002,-0.024,0.981,0.001,-0.002,-0.001,-0.433,0.283,-0.507,191.29,-0.170000
21:25:40:940,-0.002,-0.023,0.982,0.001,-0.002,-0.001,-0.435,0.280,-0.507,192.00,0.710000
21:25:40:941,-0.002,-0.023,0.981,0.001,-0.002,-0.001,-0.437,0.278,-0.498,191.91,-0.090000
21:25:40:942,-0.002,-0.022,0.980,0.001,-0.001,-0.001,-0.432,0.275,-0.505,191.59,-0.320000
21:25:40:942,-0.002,-0.023,0.981,0.000,-0.002,-0.001,-0.434,0.280,-0.501,191.36,-0.230000
21:25:40:943,-0.001,-0.023,0.982,0.000,-0.002,-0.001,-0.434,0.278,-0.512,191.97,0.610000
21:25:40:944,-0.002,-0.024,0.979,0.001,-0.001,-0.001,-0.434,0.278,-0.512,191.70,-0.270000
21:25:40:944,-0.001,-0.023,0.978,0.001,-0.002,-0.001,-0.433,0.278,-0.506,191.36,-0.340000
21:25:40:945,-0.002,-0.022,0.987,0.000,-0.002,-0.001,-0.432,0.274,-0.512,191.21,-0.150000
21:25:40:946,-0.003,-0.023,0.982,0.001,-0.002,-0.001,-0.430,0.279,-0.507,191.27,0.060000
21:25:40:946,-0.001,-0.022,0.977,0.001,-0.001,-0.001,-0.432,0.279,-0.502,191.53,0.260000
21:25:40:947,-0.001,-0.024,0.982,0.001,-0.002,-0.001,-0.431,0.282,-0.510,191.49,-0.040000
21:25:40:948,-0.001,-0.023,0.982,0.001,-0.002,-0.001,-0.432,0.279,-0.512,192.01,0.520000
21:25:40:948,-0.001,-0.022,0.979,0.001,-0.002,-0.001,-0.432,0.279,-0.509,191.09,-0.920000
21:25:40:949,-0.001,-0.023,0.981,0.001,-0.002,-0.000,-0.426,0.283,-0.509,191.87,0.780000
21:25:40:950,-0.001,-0.023,0.982,0.001,-0.002,-0.001,-0.430,0.282,-0.510,191.95,0.080000
21:25:40:950,-0.000,-0.023,0.981,0.001,-0.002,-0.001,-0.430,0.283,-0.508,191.43,-0.520000
21:25:40:951,-0.002,-0.023,0.979,0.001,-0.002,-0.001,-0.436,0.278,-0.512,191.43,0.000000
21:25:40:952,-0.002,-0.023,0.985,0.001,-0.002,-0.001,-0.433,0.280,-0.511,191.69,0.260000
21:25:40:952,-0.001,-0.022,0.978,0.001,-0.001,-0.001,-0.428,0.280,-0.509,191.52,-0.170000
21:25:40:953,-0.001,-0.022,0.980,0.001,-0.001,-0.000,-0.428,0.279,-0.509,191.60,0.080000
21:25:40:954,-0.002,-0.022,0.984,0.001,-0.002,-0.001,-0.429,0.279,-0.509,191.65,0.050000
21:25:40:955,-0.001,-0.023,0.980,0.001,-0.002,-0.001,-0.431,0.281,-0.504,191.67,0.020000
21:25:40:955,-0.001,-0.023,0.981,0.001,-0.002,-0.001,-0.423,0.279,-0.510,191.69,0.020000
21:25:40:956,-0.002,-0.023,0.981,0.001,-0.002,-0.001,-0.427,0.283,-0.512,192.03,0.340000
21:25:40:957,-0.003,-0.023,0.981,0.000,-0.002,-0.001,-0.429,0.278,-0.511,191.56,-0.470000
21:25:40:957,-0.002,-0.024,0.980,0.001,-0.001,-0.001,-0.428,0.284,-0.512,191.99,0.430000
21:25:40:958,-0.002,-0.024,0.983,0.000,-0.001,-0.001,-0.428,0.282,-0.515,191.45,-0.540000
21:25:40:959,-0.001,-0.022,0.981,0.001,-0.001,-0.001,-0.428,0.282,-0.515,192.25,0.800000
21:25:40:959,-0.002,-0.022,0.980,0.001,-0.002,-0.001,-0.430,0.284,-0.505,192.23,-0.020000
21:25:40:960,-0.000,-0.024,0.981,0.001,-0.002,-0.001,-0.430,0.282,-0.506,191.57,-0.660000
21:25:40:961,-0.000,-0.024,0.981,0.001,-0.001,-0.001,-0.432,0.283,-0.512,191.64,0.070000
21:25:40:961,-0.001,-0.023,0.982,0.001,-0.001,-0.001,-0.435,0.277,-0.514,191.03,-0.610000
21:25:40:962,-0.002,-0.023,0.980,0.000,-0.002,-0.001,-0.429,0.280,-0.507,192.28,1.250000
21:25:40:963,-0.002,-0.023,0.981,0.001,-0.002,-0.001,-0.432,0.280,-0.507,191.58,-0.700000
21:25:40:963,-0.002,-0.023,0.979,0.001,-0.001,-0.001,-0.432,0.280,-0.507,191.84,0.260000
21:25:40:964,-0.001,-0.023,0.982,0.001,-0.002,-0.001,-0.427,0.280,-0.508,191.89,0.050000
21:25:40:965,-0.002,-0.024,0.982,0.001,-0.002,-0.001,-0.428,0.283,-0.506,191.86,-0.030000
21:25:40:965,-0.002,-0.023,0.980,0.001,-0.001,-0.001,-0.428,0.286,-0.507,191.23,-0.630000
21:25:40:966,-0.002,-0.022,0.980,0.001,-0.001,-0.001,-0.431,0.282,-0.509,191.44,0.210000
21:25:40:967,-0.001,-0.022,0.981,0.001,-0.001,-0.001,-0.427,0.281,-0.510,191.87,0.430000
21:25:40:967,-0.001,-0.022,0.980,0.001,-0.001,-0.001,-0.428,0.281,-0.509,190.88,-0.990000
21:25:40:968,-0.001,-0.024,0.981,0.001,-0.001,-0.001,-0.428,0.281,-0.509,191.67,0.790000
21:25:40:969,-0.001,-0.024,0.981,0.001,-0.002,-0.001,-0.432,0.280,-0.512,191.78,0.110000
21:25:40:969,-0.001,-0.023,0.981,0.001,-0.002,-0.001,-0.432,0.278,-0.510,191.37,-0.410000
21:25:40:970,-0.002,-0.023,0.981,0.000,-0.002,-0.001,-0.431,0.283,-0.506,191.95,0.580000
21:25:40:971,-0.001,-0.023,0.980,0.001,-0.002,-0.001,-0.430,0.279,-0.510,191.74,-0.210000
21:25:40:971,-0.003,-0.023,0.981,0.001,-0.001,-0.001,-0.428,0.280,-0.513,191.94,0.200000
21:25:40:972,-0.002,-0.023,0.981,0.001,-0.002,-0.001,-0.429,0.275,-0.515,192.08,0.140000
21:25:40:973,-0.002,-0.024,0.981,0.000,-0.002,-0.001,-0.429,0.275,-0.515,191.97,-0.110000
21:25:40:974,-0.001,-0.023,0.980,0.001,-0.002,-0.001,-0.428,0.282,-0.507,191.85,-0.120000
21:25:40:974,-0.002,-0.023,0.980,0.000,-0.001,-0.001,-0.428,0.279,-0.509,192.40,0.550000
21:25:40:975,-0.002,-0.022,0.980,0.000,-0.001,-0.001,-0.428,0.279,-0.514,191.92,-0.480000
21:25:40:976,-0.001,-0.023,0.980,0.001,-0.002,-0.001,-0.428,0.285,-0.514,191.78,-0.140000
21:25:40:976,-0.001,-0.023,0.979,0.001,-0.002,-0.001,-0.431,0.281,-0.508,192.15,0.370000
21:25:40:977,-0.001,-0.024,0.979,0.001,-0.002,-0.001,-0.429,0.278,-0.507,191.40,-0.750000
21:25:40:978,-0.001,-0.023,0.980,0.000,-0.002,-0.001,-0.429,0.278,-0.507,191.56,0.160000
21:25:40:978,-0.001,-0.022,0.969,0.001,-0.001,-0.001,-0.431,0.279,-0.508,192.20,0.640000
21:25:40:979,-0.001,-0.023,0.989,-0.000,-0.001,-0.001,-0.425,0.281,-0.504,191.45,-0.750000
21:25:40:980,-0.002,-0.024,0.990,0.001,-0.002,-0.001,-0.431,0.283,-0.510,191.49,0.040000
21:25:40:980,-0.001,-0.022,0.973,0.002,-0.002,-0.001,-0.430,0.282,-0.510,192.46,0.970000
21:25:40:981,-0.001,-0.023,0.980,0.001,-0.002,-0.001,-0.432,0.279,-0.514,191.48,-0.980000
21:25:40:982,-0.002,-0.023,0.985,0.001,-0.001,-0.001,-0.426,0.279,-0.514,191.35,-0.130000
21:25:40:982,-0.001,-0.023,0.981,0.001,-0.002,-0.001,-0.426,0.279,-0.514,191.58,0.230000
21:25:40:983,-0.002,-0.023,0.979,0.001,-0.002,-0.001,-0.428,0.283,-0.511,191.91,0.330000
21:25:40:984,-0.001,-0.023,0.982,0.001,-0.002,-0.001,-0.431,0.285,-0.507,191.42,-0.490000
21:25:40:984,-0.001,-0.023,0.984,0.001,-0.001,-0.001,-0.430,0.283,-0.505,191.55,0.130000
21:25:40:985,-0.001,-0.023,0.980,0.001,-0.001,-0.001,-0.429,0.286,-0.510,192.08,0.530000
21:25:40:986,-0.001,-0.023,0.978,0.001,-0.002,-0.001,-0.433,0.277,-0.507,191.86,-0.220000
21:25:40:986,-0.002,-0.024,0.985,0.001,-0.002,-0.001,-0.432,0.280,-0.509,192.81,0.950000
21:25:40:987,-0.002,-0.024,0.986,0.002,-0.002,-0.001,-0.432,0.280,-0.509,191.30,-1.510000
21:25:40:988,-0.002,-0.024,0.989,0.002,-0.003,-0.001,-0.434,0.281,-0.512,192.28,0.980000
21:25:40:988,-0.001,-0.022,0.988,0.003,-0.003,-0.001,-0.432,0.280,-0.511,192.05,-0.230000
21:25:40:989,-0.001,-0.022,0.982,0.004,-0.004,-0.001,-0.433,0.285,-0.513,191.46,-0.590000
21:25:40:990,-0.001,-0.022,0.976,0.004,-0.004,-0.001,-0.432,0.280,-0.517,191.47,0.010000
21:25:40:990,-0.002,-0.023,0.981,0.003,-0.003,-0.001,-0.434,0.280,-0.515,191.99,0.520000
21:25:40:991,-0.003,-0.023,0.986,0.003,-0.003,-0.001,-0.432,0.283,-0.506,191.48,-0.510000
21:25:40:992,-0.002,-0.023,0.982,0.004,-0.003,-0.001,-0.432,0.283,-0.511,191.76,0.280000
21:25:40:992,-0.002,-0.023,0.981,0.004,-0.004,-0.000,-0.434,0.278,-0.511,191.84,0.080000
21:25:40:993,-0.001,-0.022,0.978,0.004,-0.004,-0.001,-0.431,0.278,-0.507,191.21,-0.630000
21:25:40:994,-0.001,-0.021,0.974,0.003,-0.003,-0.001,-0.433,0.279,-0.512,191.64,0.430000
21:25:40:994,0.000,-0.022,0.977,0.002,-0.002,-0.001,-0.432,0.282,-0.512,191.78,0.140000
21:25:40:995,-0.001,-0.022,0.980,0.002,-0.002,-0.001,-0.431,0.282,-0.509,191.37,-0.410000
21:25:40:996,0.000,-0.022,0.981,0.002,-0.002,-0.001,-0.432,0.283,-0.509,192.41,1.040000
21:25:40:996,-0.001,-0.023,0.978,0.002,-0.002,-0.001,-0.432,0.283,-0.506,191.90,-0.510000
21:25:40:997,-0.001,-0.022,0.977,0.001,-0.002,-0.001,-0.429,0.283,-0.506,191.77,-0.130000
21:25:40:998,-0.002,-0.022,0.985,0.001,-0.002,-0.001,-0.434,0.278,-0.516,192.16,0.390000
21:25:40:999,-0.002,-0.021,0.981,0.002,-0.002,-0.001,-0.433,0.279,-0.515,191.92,-0.240000
21:25:40:999,-0.001,-0.021,0.979,0.001,-0.001,-0.001,-0.431,0.279,-0.505,191.85,-0.070000
21:25:41:000,-0.001,-0.022,0.980,0.001,-0.001,-0.001,-0.435,0.278,-0.510,191.68,-0.170000
21:25:41:001,0.000,-0.023,0.983,0.001,-0.001,-0.001,-0.433,0.279,-0.505,192.37,0.690000
21:25:41:001,-0.001,-0.021,0.981,0.000,-0.002,-0.001,-0.430,0.282,-0.506,191.56,-0.810000
21:25:41:002,-0.000,-0.022,0.982,0.001,-0.002,-0.001,-0.430,0.282,-0.506,191.53,-0.030000
21:25:41:003,-0.001,-0.023,0.983,0.001,-0.002,-0.001,-0.434,0.285,-0.504,191.32,-0.210000
21:25:41:003,-0.001,-0.022,0.982,0.001,-0.002,-0.001,-0.430,0.281,-0.503,191.78,0.460000
21:25:41:004,0.000,-0.022,0.981,0.001,-0.002,-0.001,-0.431,0.282,-0.502,192.22,0.440000
21:25:41:005,-0.002,-0.022,0.980,0.001,-0.001,-0.001,-0.432,0.280,-0.511,191.48,-0.740000
21:25:41:005,-0.001,-0.023,0.983,0.000,-0.002,-0.001,-0.436,0.281,-0.504,191.48,0.000000
21:25:41:006,-0.000,-0.023,0.979,0.001,-0.002,-0.001,-0.433,0.282,-0.503,192.26,0.780000
21:25:41:007,-0.000,-0.023,0.980,0.001,-0.001,-0.001,-0.433,0.282,-0.503,191.58,-0.680000
21:25:41:007,-0.001,-0.022,0.982,0.001,-0.002,-0.001,-0.431,0.276,-0.504,191.79,0.210000
21:25:41:008,-0.000,-0.022,0.982,0.001,-0.001,-0.001,-0.432,0.279,-0.505,192.75,0.960000
21:25:41:009,0.000,-0.021,0.981,0.001,-0.002,-0.001,-0.433,0.280,-0.511,191.31,-1.440000
21:25:41:009,-0.001,-0.022,0.981,0.001,-0.002,-0.001,-0.433,0.278,-0.505,191.88,0.570000
21:25:41:010,-0.000,-0.022,0.981,0.001,-0.002,-0.001,-0.436,0.280,-0.514,191.51,-0.370000
21:25:41:011,-0.000,-0.021,0.981,0.001,-0.002,-0.001,-0.436,0.277,-0.506,191.59,0.080000
21:25:41:011,-0.001,-0.022,0.980,0.001,-0.002,-0.001,-0.436,0.277,-0.506,191.31,-0.280000
21:25:41:012,0.000,-0.022,0.981,0.001,-0.002,-0.001,-0.432,0.273,-0.507,192.04,0.730000
21:25:41:013,-0.001,-0.024,0.982,0.001,-0.002,-0.000,-0.438,0.280,-0.508,192.58,0.540000
21:25:41:013,-0.001,-0.021,0.980,0.001,-0.001,-0.001,-0.432,0.274,-0.510,191.41,-1.170000
21:25:41:014,-0.001,-0.022,0.981,0.001,-0.002,-0.001,-0.437,0.276,-0.500,192.11,0.700000
21:25:41:015,-0.001,-0.022,0.981,0.001,-0.001,-0.001,-0.432,0.278,-0.504,191.62,-0.490000
21:25:41:016,-0.002,-0.023,0.981,0.001,-0.001,-0.001,-0.434,0.280,-0.504,191.99,0.370000
21:25:41:016,-0.002,-0.022,0.981,0.001,-0.002,-0.001,-0.434,0.280,-0.504,191.09,-0.900000
21:25:41:017,-0.000,-0.022,0.981,0.001,-0.002,-0.001,-0.432,0.279,-0.498,191.79,0.700000
21:25:41:018,-0.000,-0.021,0.980,0.000,-0.002,-0.001,-0.435,0.278,-0.493,191.67,-0.120000
21:25:41:018,-0.001,-0.022,0.983,0.000,-0.002,-0.001,-0.433,0.279,-0.500,192.10,0.430000
21:25:41:019,-0.001,-0.022,0.981,0.000,-0.002,-0.000,-0.435,0.282,-0.505,191.14,-0.960000
21:25:41:020,-0.001,-0.021,0.981,0.001,-0.002,-0.001,-0.435,0.284,-0.504,192.34,1.200000
21:25:41:020,-0.000,-0.023,0.980,0.001,-0.001,-0.001,-0.439,0.281,-0.510,192.17,-0.170000
21:25:41:021,-0.002,-0.023,0.982,0.001,-0.002,-0.001,-0.439,0.281,-0.510,191.59,-0.580000
21:25:41:022,-0.001,-0.022,0.981,0.001,-0.002,-0.001,-0.435,0.280,-0.505,192.53,0.940000
21:25:41:022,-0.000,-0.022,0.982,0.001,-0.001,-0.001,-0.437,0.282,-0.505,191.49,-1.040000
21:25:41:023,-0.001,-0.021,0.982,0.000,-0.001,-0.000,-0.434,0.280,-0.510,191.72,0.230000
21:25:41:024,-0.001,-0.021,0.981,0.001,-0.002,-0.000,-0.434,0.282,-0.509,191.54,-0.180000
21:25:41:024,-0.000,-0.021,0.981,0.001,-0.002,-0.000,-0.435,0.282,-0.501,191.95,0.410000
21:25:41:025,-0.001,-0.022,0.981,0.001,-0.002,-0.001,-0.434,0.279,-0.499,191.40,-0.550000
21:25:41:026,-0.001,-0.023,0.982,0.000,-0.001,-0.000,-0.434,0.279,-0.499,192.14,0.740000
21:25:41:027,-0.001,-0.022,0.980,0.001,-0.002,-0.001,-0.433,0.279,-0.498,191.89,-0.250000
21:25:41:027,-0.001,-0.022,0.980,0.000,-0.002,-0.001,-0.432,0.278,-0.502,191.81,-0.080000
21:25:41:028,-0.001,-0.022,0.982,0.001,-0.002,-0.000,-0.434,0.281,-0.510,191.18,-0.630000
21:25:41:029,-0.002,-0.021,0.981,0.001,-0.001,-0.001,-0.433,0.281,-0.504,192.16,0.980000
21:25:41:029,-0.001,-0.023,0.980,0.001,-0.001,-0.000,-0.433,0.278,-0.504,191.61,-0.550000
21:25:41:030,-0.001,-0.021,0.982,0.001,-0.002,-0.001,-0.433,0.279,-0.502,191.10,-0.510000
21:25:41:031,-0.001,-0.022,0.982,0.001,-0.002,-0.001,-0.433,0.279,-0.502,191.61,0.510000
21:25:41:031,-0.001,-0.021,0.981,0.000,-0.001,-0.001,-0.431,0.280,-0.505,191.96,0.350000
21:25:41:032,-0.002,-0.023,0.980,0.001,-0.002,-0.001,-0.428,0.281,-0.507,191.52,-0.440000
21:25:41:033,-0.001,-0.022,0.979,0.001,-0.002,-0.001,-0.429,0.278,-0.514,191.66,0.140000
21:25:41:033,-0.000,-0.022,0.980,0.001,-0.002,-0.001,-0.428,0.283,-0.508,191.57,-0.090000
21:25:41:034,-0.001,-0.022,0.978,0.001,-0.001,-0.001,-0.432,0.282,-0.504,191.94,0.370000
21:25:41:035,-0.001,-0.023,0.982,0.001,-0.001,-0.001,-0.430,0.278,-0.503,192.15,0.210000
21:25:41:035,-0.002,-0.022,0.982,0.001,-0.002,-0.001,-0.430,0.278,-0.500,191.83,-0.320000
21:25:41:036,-0.000,-0.021,0.980,0.001,-0.002,-0.001,-0.434,0.285,-0.500,192.07,0.240000
21:25:41:037,-0.002,-0.023,0.979,0.001,-0.001,-0.001,-0.431,0.279,-0.501,191.95,-0.120000
21:25:41:038,-0.000,-0.023,0.985,0.000,-0.002,-0.000,-0.434,0.280,-0.507,191.87,-0.080000
21:25:41:038,-0.001,-0.022,0.981,0.001,-0.002,-0.000,-0.434,0.277,-0.504,192.17,0.300000
21:25:41:039,-0.001,-0.023,0.979,0.001,-0.002,-0.001,-0.431,0.279,-0.504,192.07,-0.100000
21:25:41:040,-0.002,-0.023,0.980,0.001,-0.001,-0.001,-0.430,0.284,-0.505,191.88,-0.190000
21:25:41:040,-0.002,-0.023,0.982,0.000,-0.002,-0.001,-0.430,0.278,-0.499,191.72,-0.160000
21:25:41:041,-0.001,-0.021,0.983,0.001,-0.002,-0.001,-0.433,0.278,-0.499,191.58,-0.140000
21:25:41:042,-0.002,-0.022,0.983,0.000,-0.001,-0.001,-0.435,0.281,-0.506,191.99,0.410000
21:25:41:042,-0.001,-0.022,0.981,0.001,-0.002,-0.001,-0.436,0.284,-0.507,192.00,0.010000
21:25:41:043,-0.001,-0.023,0.981,0.001,-0.002,-0.001,-0.440,0.279,-0.505,191.57,-0.430000
21:25:41:044,-0.001,-0.022,0.981,0.000,-0.001,-0.001,-0.433,0.284,-0.511,192.10,0.530000
21:25:41:044,-0.000,-0.022,0.981,0.000,-0.001,-0.001,-0.435,0.283,-0.504,191.81,-0.290000
21:25:41:045,-0.002,-0.022,0.981,0.001,-0.001,-0.001,-0.435,0.286,-0.506,192.46,0.650000
21:25:41:046,-0.001,-0.023,0.980,0.001,-0.001,-0.001,-0.435,0.286,-0.506,191.49,-0.970000
21:25:41:047,-0.002,-0.023,0.983,0.001,-0.002,-0.001,-0.435,0.283,-0.506,192.24,0.750000
21:25:41:047,-0.001,-0.021,0.982,0.001,-0.002,-0.001,-0.435,0.286,-0.503,192.00,-0.240000
21:25:41:048,-0.001,-0.023,0.981,0.001,-0.002,-0.001,-0.435,0.281,-0.511,191.65,-0.350000
21:25:41:049,-0.003,-0.022,0.979,0.001,-0.002,-0.001,-0.436,0.284,-0.508,192.11,0.460000
21:25:41:049,-0.002,-0.022,0.982,0.001,-0.002,-0.001,-0.434,0.281,-0.502,191.98,-0.130000
21:25:41:050,-0.001,-0.021,0.982,0.001,-0.002,-0.001,-0.435,0.282,-0.506,191.54,-0.440000
21:25:41:051,-0.001,-0.023,0.981,0.001,-0.002,-0.001,-0.435,0.282,-0.506,191.88,0.340000
21:25:41:051,0.000,-0.023,0.978,0.000,-0.002,-0.001,-0.431,0.280,-0.503,191.74,-0.140000
21:25:41:052,-0.000,-0.022,0.982,0.000,-0.001,-0.000,-0.431,0.287,-0.497,191.24,-0.500000
21:25:41:053,-0.001,-0.023,0.984,0.001,-0.001,-0.001,-0.431,0.284,-0.502,191.27,0.030000
21:25:41:053,-0.001,-0.023,0.980,0.001,-0.001,-0.001,-0.433,0.289,-0.500,191.94,0.670000
21:25:41:054,-0.002,-0.024,0.982,0.000,-0.001,-0.001,-0.432,0.286,-0.507,192.37,0.430000
21:25:41:055,-0.000,-0.022,0.981,0.001,-0.002,-0.001,-0.434,0.289,-0.508,191.59,-0.780000
21:25:41:055,0.000,-0.022,0.980,0.001,-0.002,-0.001,-0.434,0.289,-0.508,191.66,0.070000
21:25:41:056,-0.001,-0.023,0.980,0.001,-0.001,-0.001,-0.430,0.285,-0.507,192.21,0.550000
21:25:41:057,-0.000,-0.021,0.982,0.001,-0.001,-0.001,-0.431,0.284,-0.512,191.48,-0.730000
21:25:41:057,-0.001,-0.022,0.979,0.000,-0.001,-0.001,-0.430,0.282,-0.509,191.90,0.420000
21:25:41:058,-0.001,-0.023,0.981,0.000,-0.002,-0.001,-0.430,0.284,-0.509,191.78,-0.120000
21:25:41:059,-0.002,-0.023,0.981,0.000,-0.002,-0.001,-0.434,0.279,-0.509,191.55,-0.230000
21:25:41:059,-0.002,-0.022,0.982,0.001,-0.001,-0.001,-0.434,0.280,-0.510,192.27,0.720000
21:25:41:060,-0.001,-0.022,0.981,0.001,-0.002,-0.001,-0.434,0.280,-0.510,191.66,-0.610000
21:25:41:061,-0.000,-0.023,0.982,0.001,-0.001,-0.001,-0.432,0.285,-0.505,191.74,0.080000
21:25:41:062,0.000,-0.023,0.982,0.000,-0.001,-0.001,-0.434,0.279,-0.506,192.10,0.360000
21:25:41:062,-0.001,-0.022,0.981,0.001,-0.002,-0.001,-0.431,0.283,-0.505,191.78,-0.320000
21:25:41:063,-0.002,-0.022,0.981,0.001,-0.002,-0.001,-0.437,0.280,-0.505,191.66,-0.120000
21:25:41:064,-0.002,-0.022,0.983,0.001,-0.002,-0.001,-0.435,0.283,-0.503,192.21,0.550000
21:25:41:064,-0.001,-0.023,0.980,0.001,-0.002,-0.001,-0.430,0.279,-0.501,191.98,-0.230000
21:25:41:065,-0.001,-0.023,0.982,0.000,-0.002,-0.001,-0.430,0.279,-0.501,191.10,-0.880000
21:25:41:066,-0.001,-0.023,0.983,0.001,-0.002,-0.001,-0.437,0.284,-0.501,192.13,1.030000
21:25:41:066,0.000,-0.023,0.980,0.001,-0.002,-0.001,-0.433,0.280,-0.504,192.01,-0.120000
21:25:41:067,-0.001,-0.022,0.979,0.001,-0.002,-0.001,-0.433,0.278,-0.505,191.86,-0.150000
21:25:41:068,-0.001,-0.023,0.980,0.000,-0.002,-0.001,-0.433,0.283,-0.514,191.45,-0.410000
21:25:41:068,-0.001,-0.023,0.983,0.000,-0.002,-0.001,-0.433,0.284,-0.510,192.21,0.760000
21:25:41:069,-0.001,-0.023,0.981,0.001,-0.002,-0.001,-0.430,0.283,-0.505,191.83,-0.380000
21:25:41:070,-0.001,-0.021,0.980,0.001,-0.002,-0.001,-0.430,0.283,-0.505,191.41,-0.420000
21:25:41:070,-0.001,-0.022,0.982,0.001,-0.002,-0.001,-0.434,0.277,-0.505,192.04,0.630000
21:25:41:071,-0.002,-0.022,0.983,0.001,-0.002,-0.001,-0.431,0.280,-0.510,191.15,-0.890000
21:25:41:072,-0.000,-0.023,0.980,0.001,-0.002,-0.000,-0.435,0.280,-0.510,192.21,1.060000
21:25:41:072,-0.001,-0.023,0.981,0.001,-0.002,-0.000,-0.433,0.281,-0.506,191.36,-0.850000
21:25:41:073,-0.000,-0.023,0.981,0.001,-0.001,-0.001,-0.435,0.281,-0.509,192.03,0.670000
21:25:41:074,-0.001,-0.023,0.980,0.001,-0.002,-0.001,-0.433,0.281,-0.503,191.54,-0.490000
21:25:41:074,-0.000,-0.022,0.981,0.001,-0.001,-0.001,-0.433,0.281,-0.503,191.47,-0.070000
21:25:41:075,-0.001,-0.022,0.981,0.001,-0.001,-0.001,-0.428,0.283,-0.505,191.39,-0.080000
21:25:41:076,-0.001,-0.023,0.981,0.001,-0.001,-0.001,-0.432,0.282,-0.514,192.39,1.000000
21:25:41:076,-0.001,-0.022,0.980,0.000,-0.002,-0.001,-0.432,0.276,-0.512,191.77,-0.620000
21:25:41:077,-0.000,-0.023,0.982,0.001,-0.002,-0.001,-0.431,0.280,-0.510,191.99,0.220000
21:25:41:078,-0.001,-0.022,0.982,0.001,-0.002,-0.001,-0.437,0.282,-0.509,191.24,-0.750000
21:25:41:078,-0.002,-0.022,0.981,0.001,-0.002,-0.001,-0.438,0.278,-0.510,192.56,1.320000
21:25:41:079,-0.001,-0.022,0.981,0.000,-0.002,-0.001,-0.438,0.278,-0.511,191.79,-0.770000
21:25:41:080,-0.001,-0.022,0.982,0.001,-0.002,-0.001,-0.434,0.283,-0.511,191.61,-0.180000
21:25:41:080,-0.001,-0.022,0.981,0.001,-0.002,-0.001,-0.431,0.280,-0.510,191.67,0.060000
21:25:41:081,-0.002,-0.023,0.980,0.000,-0.001,-0.001,-0.430,0.284,-0.505,191.53,-0.140000
21:25:41:082,-0.000,-0.022,0.980,0.001,-0.001,-0.001,-0.434,0.279,-0.509,191.91,0.380000
21:25:41:082,-0.001,-0.023,0.981,0.000,-0.002,-0.001,-0.431,0.280,-0.509,191.68,-0.230000
21:25:41:083,-0.000,-0.022,0.983,0.001,-0.002,-0.000,-0.436,0.284,-0.513,192.16,0.480000
21:25:41:084,-0.001,-0.022,0.977,0.001,-0.001,-0.001,-0.436,0.282,-0.510,191.59,-0.570000
21:25:41:085,-0.002,-0.022,0.983,0.001,-0.002,-0.001,-0.436,0.282,-0.510,191.81,0.220000
21:25:41:085,-0.000,-0.022,0.978,0.001,-0.002,-0.001,-0.435,0.286,-0.510,191.64,-0.170000
21:25:41:086,-0.001,-0.023,0.984,0.001,-0.001,-0.001,-0.433,0.282,-0.508,192.16,0.520000
21:25:41:087,-0.001,-0.021,0.981,0.001,-0.001,-0.001,-0.433,0.284,-0.513,191.52,-0.640000
21:25:41:087,-0.001,-0.023,0.983,0.001,-0.002,-0.001,-0.439,0.285,-0.511,191.68,0.160000
21:25:41:088,-0.002,-0.022,0.980,0.001,-0.001,-0.001,-0.437,0.283,-0.508,191.62,-0.060000
21:25:41:089,-0.002,-0.023,0.984,0.000,-0.001,-0.001,-0.434,0.284,-0.508,191.43,-0.190000
21:25:41:089,-0.002,-0.022,0.979,0.001,-0.002,-0.001,-0.434,0.284,-0.508,192.17,0.740000
21:25:41:090,-0.001,-0.021,0.979,0.000,-0.002,-0.001,-0.435,0.282,-0.512,190.90,-1.270000
21:25:41:091,-0.000,-0.023,0.981,0.000,-0.001,-0.001,-0.436,0.284,-0.511,192.17,1.270000
21:25:41:091,-0.002,-0.023,0.986,0.001,-0.001,-0.001,-0.439,0.281,-0.513,191.18,-0.990000
21:25:41:092,-0.000,-0.023,0.978,0.001,-0.001,-0.001,-0.436,0.282,-0.514,191.72,0.540000
21:25:41:093,-0.001,-0.022,0.981,0.000,-0.002,-0.001,-0.437,0.279,-0.508,192.56,0.840000
21:25:41:093,-0.001,-0.022,0.983,0.000,-0.001,-0.001,-0.437,0.283,-0.516,192.23,-0.330000
21:25:41:094,-0.000,-0.022,0.982,0.001,-0.001,-0.001,-0.437,0.283,-0.516,191.56,-0.670000
21:25:41:095,0.000,-0.022,0.981,0.001,-0.001,-0.001,-0.435,0.281,-0.510,192.15,0.590000
21:25:41:095,-0.002,-0.023,0.982,0.000,-0.001,-0.000,-0.432,0.290,-0.508,192.42,0.270000
21:25:41:096,-0.001,-0.023,0.983,0.000,-0.001,-0.001,-0.434,0.285,-0.506,191.88,-0.540000
21:25:41:097,-0.000,-0.022,0.982,0.000,-0.001,-0.000,-0.431,0.283,-0.506,192.35,0.470000
21:25:41:097,-0.001,-0.022,0.979,0.001,-0.001,-0.001,-0.437,0.285,-0.509,191.85,-0.500000
21:25:41:098,-0.000,-0.023,0.981,0.000,-0.002,-0.001,-0.431,0.284,-0.509,192.18,0.330000
21:25:41:099,-0.001,-0.022,0.984,0.000,-0.002,-0.001,-0.431,0.284,-0.509,191.66,-0.520000
21:25:41:099,-0.001,-0.022,0.982,0.001,-0.002,-0.001,-0.439,0.282,-0.507,191.96,0.300000
21:25:41:100,-0.002,-0.022,0.980,0.001,-0.002,-0.001,-0.432,0.285,-0.509,191.74,-0.220000
21:25:41:101,-0.001,-0.022,0.981,0.001,-0.002,-0.001,-0.437,0.282,-0.509,191.83,0.090000
21:25:41:102,-0.002,-0.022,0.981,0.001,-0.002,-0.001,-0.433,0.282,-0.507,192.20,0.370000
21:25:41:102,-0.001,-0.022,0.980,0.001,-0.002,-0.001,-0.436,0.282,-0.514,191.82,-0.380000
21:25:41:103,-0.002,-0.024,0.981,0.001,-0.002,-0.001,-0.431,0.283,-0.504,192.27,0.450000
21:25:41:103,0.000,-0.023,0.981,0.000,-0.002,-0.001,-0.431,0.283,-0.504,191.79,-0.480000
21:25:41:104,-0.002,-0.023,0.980,0.001,-0.002,-0.001,-0.431,0.283,-0.503,192.87,1.080000
21:25:41:105,0.000,-0.022,0.981,0.001,-0.002,-0.001,-0.429,0.282,-0.506,192.06,-0.810000
21:25:41:105,-0.003,-0.023,0.982,0.001,-0.002,-0.001,-0.430,0.282,-0.507,191.59,-0.470000
21:25:41:106,-0.000,-0.021,0.977,0.001,-0.001,-0.001,-0.437,0.285,-0.501,191.43,-0.160000
21:25:41:107,-0.002,-0.023,0.985,0.001,-0.001,-0.001,-0.438,0.285,-0.508,191.81,0.380000
21:25:41:108,-0.002,-0.022,0.979,0.001,-0.002,-0.001,-0.436,0.288,-0.508,191.98,0.170000
21:25:41:108,-0.000,-0.022,0.983,0.001,-0.001,-0.001,-0.436,0.288,-0.508,192.01,0.030000
21:25:41:109,-0.001,-0.022,0.981,0.001,-0.001,-0.001,-0.439,0.282,-0.507,192.03,0.020000
21:25:41:109,-0.000,-0.022,0.982,0.001,-0.002,-0.001,-0.434,0.285,-0.501,191.79,-0.240000
21:25:41:110,-0.001,-0.023,0.979,0.001,-0.002,-0.001,-0.434,0.286,-0.508,191.48,-0.310000
21:25:41:111,-0.001,-0.022,0.980,0.001,-0.001,-0.001,-0.436,0.288,-0.509,191.21,-0.270000
21:25:41:112,-0.000,-0.022,0.984,0.001,-0.001,-0.001,-0.430,0.287,-0.513,191.99,0.780000
21:25:41:112,0.001,-0.021,0.977,0.001,-0.001,-0.001,-0.432,0.287,-0.514,191.69,-0.300000
21:25:41:113,-0.002,-0.023,0.981,0.001,-0.001,-0.001,-0.432,0.287,-0.514,191.66,-0.030000
21:25:41:114,-0.000,-0.022,0.984,0.001,-0.001,-0.001,-0.431,0.287,-0.507,191.63,-0.030000
21:25:41:114,-0.001,-0.022,0.981,0.001,-0.002,-0.001,-0.430,0.289,-0.509,191.97,0.340000
21:25:41:115,-0.001,-0.022,0.980,0.001,-0.001,-0.000,-0.429,0.285,-0.503,191.83,-0.140000
21:25:41:116,-0.002,-0.022,0.984,0.001,-0.002,-0.001,-0.427,0.285,-0.504,192.00,0.170000
21:25:41:116,-0.002,-0.022,0.982,0.002,-0.002,-0.001,-0.429,0.284,-0.508,191.86,-0.140000
21:25:41:117,-0.000,-0.022,0.980,0.002,-0.002,-0.001,-0.428,0.283,-0.506,190.89,-0.970000
21:25:41:118,-0.001,-0.022,0.980,0.001,-0.002,-0.001,-0.428,0.283,-0.506,191.88,0.990000
21:25:41:118,-0.001,-0.022,0.987,0.001,-0.002,-0.001,-0.428,0.285,-0.502,192.05,0.170000
21:25:41:119,-0.001,-0.022,0.978,0.001,-0.002,-0.001,-0.429,0.283,-0.506,191.95,-0.100000
21:25:41:120,-0.001,-0.023,0.982,0.001,-0.002,-0.001,-0.435,0.284,-0.512,191.72,-0.230000
21:25:41:120,-0.001,-0.023,0.982,0.001,-0.002,-0.001,-0.433,0.277,-0.510,191.79,0.070000
21:25:41:121,-0.001,-0.022,0.981,0.001,-0.002,-0.001,-0.433,0.283,-0.506,192.28,0.490000
21:25:41:122,-0.001,-0.022,0.978,0.001,-0.002,-0.001,-0.432,0.286,-0.507,192.22,-0.060000
21:25:41:122,-0.000,-0.022,0.982,0.000,-0.002,-0.001,-0.432,0.286,-0.504,192.34,0.120000
21:25:41:123,-0.002,-0.024,0.984,0.001,-0.002,-0.001,-0.433,0.285,-0.504,191.75,-0.590000
21:25:41:124,-0.000,-0.021,0.978,0.000,-0.002,-0.001,-0.430,0.283,-0.506,191.67,-0.080000
21:25:41:124,-0.001,-0.022,0.981,0.000,-0.001,-0.001,-0.430,0.286,-0.509,192.18,0.510000
21:25:41:125,-0.001,-0.022,0.984,0.001,-0.002,-0.001,-0.427,0.284,-0.516,191.75,-0.430000
21:25:41:126,-0.001,-0.023,0.980,0.001,-0.002,-0.001,-0.428,0.282,-0.508,192.17,0.420000
21:25:41:126,-0.000,-0.022,0.979,0.001,-0.002,-0.001,-0.431,0.278,-0.507,191.73,-0.440000
21:25:41:127,-0.001,-0.023,0.985,0.001,-0.002,-0.001,-0.431,0.282,-0.501,192.22,0.490000
21:25:41:128,-0.002,-0.021,0.980,0.001,-0.002,-0.001,-0.430,0.282,-0.501,192.15,-0.070000
21:25:41:128,-0.001,-0.022,0.979,0.001,-0.001,-0.001,-0.429,0.280,-0.510,192.01,-0.140000
21:25:41:129,-0.002,-0.022,0.981,0.001,-0.002,-0.001,-0.427,0.279,-0.507,192.07,0.060000
21:25:41:130,-0.001,-0.022,0.983,0.001,-0.002,-0.001,-0.426,0.286,-0.509,191.87,-0.200000
21:25:41:130,-0.001,-0.021,0.980,0.001,-0.002,-0.001,-0.425,0.284,-0.510,191.61,-0.260000
21:25:41:131,-0.000,-0.023,0.981,0.001,-0.001,-0.001,-0.427,0.284,-0.509,191.90,0.290000
21:25:41:132,-0.002,-0.023,0.983,0.001,-0.001,-0.001,-0.425,0.286,-0.502,192.36,0.460000
21:25:41:132,-0.001,-0.023,0.981,0.001,-0.002,-0.001,-0.425,0.286,-0.502,191.35,-1.010000
21:25:41:133,-0.001,-0.022,0.980,0.001,-0.002,-0.000,-0.426,0.285,-0.504,191.79,0.440000
21:25:41:134,-0.001,-0.021,0.981,0.001,-0.002,-0.001,-0.430,0.282,-0.501,191.71,-0.080000
21:25:41:134,-0.001,-0.022,0.981,0.001,-0.002,-0.001,-0.427,0.284,-0.505,191.54,-0.170000
21:25:41:135,-0.001,-0.022,0.980,0.001,-0.001,-0.001,-0.427,0.281,-0.509,192.09,0.550000
21:25:41:136,-0.002,-0.023,0.981,0.000,-0.001,-0.001,-0.426,0.282,-0.503,192.23,0.140000
21:25:41:136,-0.002,-0.022,0.982,0.001,-0.002,-0.001,-0.427,0.281,-0.513,191.87,-0.360000
21:25:41:137,-0.001,-0.022,0.982,0.001,-0.002,-0.001,-0.427,0.281,-0.513,191.47,-0.400000
21:25:41:138,-0.003,-0.022,0.980,0.001,-0.002,-0.001,-0.433,0.279,-0.509,191.58,0.110000
21:25:41:139,-0.002,-0.023,0.980,0.001,-0.002,-0.001,-0.425,0.280,-0.504,191.65,0.070000
21:25:41:139,-0.002,-0.024,0.992,0.000,-0.002,-0.001,-0.427,0.281,-0.502,191.79,0.140000
21:25:41:140,-0.002,-0.022,0.979,0.001,-0.002,-0.001,-0.427,0.282,-0.504,191.70,-0.090000
21:25:41:140,0.000,-0.023,0.976,0.001,-0.002,-0.001,-0.424,0.283,-0.507,191.90,0.200000
21:25:41:141,-0.001,-0.022,0.982,0.000,-0.001,-0.001,-0.425,0.281,-0.508,191.58,-0.320000
21:25:41:142,-0.001,-0.022,0.985,0.000,-0.001,-0.001,-0.425,0.281,-0.508,191.92,0.340000
21:25:41:142,-0.001,-0.022,0.978,0.001,-0.002,-0.001,-0.428,0.282,-0.509,192.34,0.420000
21:25:41:143,-0.001,-0.022,0.980,0.001,-0.002,-0.001,-0.424,0.285,-0.510,191.26,-1.080000
21:25:41:144,-0.001,-0.022,0.984,0.000,-0.002,-0.001,-0.428,0.280,-0.513,192.45,1.190000
21:25:41:145,-0.001,-0.022,0.982,0.001,-0.001,-0.001,-0.425,0.277,-0.512,191.82,-0.630000
21:25:41:145,-0.001,-0.022,0.980,0.001,-0.002,-0.001,-0.430,0.283,-0.509,191.88,0.060000
21:25:41:146,-0.001,-0.022,0.977,0.000,-0.002,-0.001,-0.432,0.283,-0.503,191.27,-0.610000
21:25:41:147,-0.001,-0.023,0.985,0.001,-0.002,-0.001,-0.432,0.283,-0.503,192.45,1.180000
21:25:41:147,-0.001,-0.022,0.976,0.001,-0.002,-0.001,-0.428,0.280,-0.505,192.10,-0.350000
21:25:41:148,-0.001,-0.022,0.980,0.000,-0.002,-0.001,-0.431,0.280,-0.505,191.89,-0.210000
21:25:41:149,-0.001,-0.023,0.982,0.000,-0.001,-0.001,-0.429,0.278,-0.509,192.13,0.240000
21:25:41:149,-0.002,-0.023,0.981,0.000,-0.002,-0.001,-0.427,0.279,-0.507,191.87,-0.260000
21:25:41:150,-0.001,-0.022,0.978,0.000,-0.001,-0.001,-0.430,0.276,-0.503,191.91,0.040000
21:25:41:151,0.000,-0.022,0.978,0.002,-0.002,-0.001,-0.429,0.280,-0.509,191.67,-0.240000
21:25:41:151,-0.001,-0.023,0.978,0.001,-0.001,-0.001,-0.429,0.280,-0.509,192.10,0.430000
21:25:41:152,-0.000,-0.023,0.983,0.001,-0.001,-0.001,-0.432,0.283,-0.512,191.56,-0.540000
21:25:41:153,-0.001,-0.023,0.980,0.001,-0.002,-0.001,-0.430,0.281,-0.515,191.52,-0.040000
21:25:41:153,-0.001,-0.023,0.982,0.001,-0.002,-0.001,-0.437,0.280,-0.513,191.57,0.050000
21:25:41:154,-0.001,-0.022,0.976,0.001,-0.002,-0.001,-0.433,0.281,-0.510,191.94,0.370000
21:25:41:155,-0.002,-0.024,0.988,0.001,-0.002,-0.001,-0.433,0.281,-0.513,191.53,-0.410000
21:25:41:156,-0.001,-0.022,0.977,0.001,-0.002,-0.001,-0.432,0.278,-0.514,191.38,-0.150000
21:25:41:156,-0.001,-0.022,0.980,0.000,-0.001,-0.001,-0.432,0.278,-0.514,191.90,0.520000
21:25:41:157,-0.001,-0.023,0.984,0.000,-0.001,-0.001,-0.431,0.280,-0.509,191.69,-0.210000
21:25:41:158,-0.000,-0.022,0.984,0.001,-0.001,-0.001,-0.432,0.279,-0.513,191.27,-0.420000
21:25:41:158,-0.000,-0.022,0.976,0.001,-0.001,-0.001,-0.430,0.277,-0.513,192.26,0.990000
21:25:41:159,-0.000,-0.022,0.984,0.001,-0.001,-0.001,-0.425,0.281,-0.511,191.82,-0.440000
21:25:41:160,-0.002,-0.023,0.983,0.001,-0.002,-0.001,-0.428,0.279,-0.517,192.40,0.580000
21:25:41:160,-0.001,-0.023,0.981,0.001,-0.002,-0.001,-0.425,0.275,-0.509,191.90,-0.500000
21:25:41:161,0.000,-0.021,0.980,0.001,-0.001,-0.001,-0.425,0.275,-0.509,191.99,0.090000
21:25:41:162,-0.001,-0.022,0.983,0.000,-0.001,-0.000,-0.424,0.279,-0.506,191.96,-0.030000
21:25:41:162,-0.001,-0.023,0.980,0.001,-0.002,-0.001,-0.426,0.277,-0.509,192.05,0.090000
21:25:41:163,-0.000,-0.023,0.979,0.001,-0.002,-0.001,-0.427,0.279,-0.508,192.10,0.050000
21:25:41:164,-0.002,-0.022,0.982,0.000,-0.002,-0.001,-0.429,0.280,-0.510,191.87,-0.230000
21:25:41:164,-0.002,-0.023,0.983,0.000,-0.002,-0.001,-0.433,0.277,-0.513,192.50,0.630000
21:25:41:165,0.000,-0.022,0.983,0.001,-0.002,-0.001,-0.427,0.278,-0.515,191.65,-0.850000
21:25:41:166,-0.001,-0.022,0.977,0.001,-0.001,-0.001,-0.427,0.278,-0.515,191.28,-0.370000
21:25:41:166,-0.002,-0.022,0.985,0.000,-0.001,-0.001,-0.430,0.276,-0.515,192.30,1.020000
21:25:41:167,-0.001,-0.023,0.980,0.001,-0.002,-0.001,-0.428,0.278,-0.517,192.35,0.050000
21:25:41:168,-0.001,-0.022,0.980,0.001,-0.002,-0.001,-0.434,0.277,-0.510,191.96,-0.390000
21:25:41:169,-0.001,-0.023,0.980,0.000,-0.002,-0.001,-0.431,0.278,-0.511,191.08,-0.880000
21:25:41:169,-0.001,-0.023,0.985,0.000,-0.001,-0.001,-0.431,0.278,-0.510,191.23,0.150000
21:25:41:170,-0.001,-0.022,0.980,0.001,-0.001,-0.001,-0.428,0.277,-0.508,192.25,1.020000
21:25:41:171,-0.001,-0.022,0.980,0.000,-0.001,-0.001,-0.428,0.276,-0.510,192.45,0.200000
21:25:41:171,-0.002,-0.023,0.984,0.000,-0.001,-0.001,-0.428,0.276,-0.510,192.17,-0.280000
21:25:41:172,-0.001,-0.023,0.982,0.001,-0.001,-0.001,-0.435,0.280,-0.507,192.57,0.400000
21:25:41:173,-0.002,-0.023,0.979,0.001,-0.002,-0.001,-0.435,0.277,-0.509,191.96,-0.610000
21:25:41:173,-0.003,-0.022,0.979,0.000,-0.002,-0.001,-0.430,0.277,-0.509,191.87,-0.090000
21:25:41:174,-0.002,-0.023,0.983,0.001,-0.002,-0.001,-0.432,0.278,-0.509,191.72,-0.150000
21:25:41:175,-0.002,-0.023,0.979,0.001,-0.002,-0.001,-0.436,0.281,-0.511,192.33,0.610000
21:25:41:175,-0.001,-0.021,0.981,0.001,-0.002,-0.001,-0.431,0.279,-0.513,191.61,-0.720000
21:25:41:176,-0.001,-0.022,0.982,0.001,-0.002,-0.001,-0.431,0.279,-0.513,192.16,0.550000
21:25:41:177,-0.000,-0.023,0.981,0.001,-0.002,-0.001,-0.433,0.280,-0.509,192.04,-0.120000
21:25:41:177,-0.002,-0.023,0.980,0.001,-0.002,-0.001,-0.429,0.280,-0.505,191.67,-0.370000
21:25:41:178,-0.001,-0.023,0.978,0.001,-0.002,-0.001,-0.432,0.281,-0.509,191.53,-0.140000
21:25:41:179,-0.001,-0.023,0.986,0.000,-0.002,-0.001,-0.429,0.277,-0.502,192.33,0.800000
21:25:41:179,-0.001,-0.021,0.980,0.001,-0.002,-0.001,-0.433,0.278,-0.503,192.49,0.160000
21:25:41:180,-0.000,-0.022,0.979,0.001,-0.002,-0.001,-0.428,0.280,-0.508,192.19,-0.300000
21:25:41:181,-0.001,-0.024,0.984,0.001,-0.002,-0.001,-0.428,0.280,-0.508,192.39,0.200000
21:25:41:182,-0.002,-0.023,0.982,0.001,-0.002,-0.001,-0.431,0.281,-0.506,192.13,-0.260000
21:25:41:182,-0.001,-0.023,0.980,0.001,-0.001,-0.001,-0.427,0.277,-0.511,191.77,-0.360000
21:25:41:183,-0.001,-0.022,0.980,0.001,-0.002,-0.001,-0.430,0.281,-0.507,192.32,0.550000
21:25:41:184,-0.001,-0.022,0.983,0.001,-0.001,-0.000,-0.429,0.280,-0.507,191.51,-0.810000
21:25:41:184,-0.000,-0.023,0.980,0.001,-0.002,-0.001,-0.433,0.277,-0.508,191.72,0.210000
21:25:41:185,-0.000,-0.023,0.980,0.001,-0.001,-0.001,-0.434,0.281,-0.506,191.75,0.030000
21:25:41:186,-0.002,-0.023,0.983,0.001,-0.002,-0.001,-0.434,0.281,-0.506,192.14,0.390000
21:25:41:186,-0.002,-0.023,0.984,0.000,-0.002,-0.001,-0.431,0.280,-0.504,192.24,0.100000
21:25:41:187,-0.000,-0.022,0.981,0.001,-0.002,-0.001,-0.431,0.280,-0.506,191.46,-0.780000
21:25:41:188,-0.001,-0.022,0.981,0.001,-0.002,-0.001,-0.429,0.276,-0.504,192.42,0.960000
21:25:41:188,-0.001,-0.023,0.982,0.001,-0.002,-0.001,-0.431,0.281,-0.509,192.40,-0.020000
21:25:41:189,-0.001,-0.022,0.979,0.001,-0.002,-0.001,-0.433,0.283,-0.512,192.07,-0.330000
21:25:41:190,-0.001,-0.022,0.980,0.001,-0.002,-0.001,-0.432,0.281,-0.507,191.72,-0.350000
21:25:41:190,-0.001,-0.022,0.980,0.001,-0.002,-0.001,-0.432,0.281,-0.507,191.72,0.000000
21:25:41:191,-0.002,-0.022,0.980,0.001,-0.002,-0.001,-0.432,0.285,-0.510,191.23,-0.490000
21:25:41:192,-0.001,-0.023,0.983,0.001,-0.001,-0.001,-0.434,0.281,-0.505,191.56,0.330000
21:25:41:192,-0.002,-0.022,0.981,0.001,-0.002,-0.001,-0.426,0.282,-0.501,192.30,0.740000
21:25:41:193,-0.001,-0.023,0.979,0.001,-0.002,-0.001,-0.431,0.282,-0.502,191.90,-0.400000
21:25:41:194,-0.001,-0.022,0.982,0.001,-0.002,-0.001,-0.430,0.281,-0.508,192.53,0.630000
21:25:41:195,-0.001,-0.022,0.982,0.001,-0.002,-0.001,-0.430,0.279,-0.504,191.71,-0.820000
21:25:41:195,-0.000,-0.022,0.981,0.001,-0.002,-0.001,-0.430,0.279,-0.504,192.03,0.320000
21:25:41:196,-0.001,-0.022,0.981,0.001,-0.002,-0.001,-0.432,0.277,-0.510,191.99,-0.040000
21:25:41:197,-0.002,-0.023,0.982,0.000,-0.002,-0.001,-0.427,0.277,-0.506,192.11,0.120000
21:25:41:197,-0.001,-0.022,0.981,0.001,-0.002,-0.001,-0.431,0.282,-0.507,191.75,-0.360000
21:25:41:198,-0.002,-0.023,0.982,-0.000,-0.002,-0.001,-0.430,0.276,-0.506,191.67,-0.080000
21:25:41:199,-0.000,-0.022,0.971,0.000,-0.001,-0.001,-0.432,0.279,-0.508,191.88,0.210000
21:25:41:199,-0.002,-0.024,0.999,-0.000,-0.001,-0.001,-0.432,0.278,-0.500,192.02,0.140000
21:25:41:200,-0.002,-0.022,0.981,0.001,-0.002,-0.001,-0.432,0.278,-0.500,191.25,-0.770000
21:25:41:201,-0.001,-0.021,0.971,0.001,-0.002,-0.001,-0.433,0.278,-0.504,191.88,0.630000
21:25:41:201,-0.001,-0.023,0.982,0.001,-0.002,-0.001,-0.429,0.274,-0.508,191.92,0.040000
21:25:41:202,-0.001,-0.023,0.982,0.001,-0.002,-0.001,-0.433,0.277,-0.510,192.51,0.590000
21:25:41:203,-0.003,-0.021,0.976,0.001,-0.002,-0.001,-0.430,0.278,-0.510,192.37,-0.140000
21:25:41:204,-0.000,-0.023,0.983,0.001,-0.002,-0.001,-0.434,0.278,-0.511,190.89,-1.480000
21:25:41:204,-0.003,-0.023,0.989,0.001,-0.002,-0.001,-0.428,0.278,-0.504,192.29,1.400000
21:25:41:205,0.001,-0.022,0.977,0.001,-0.002,-0.001,-0.428,0.278,-0.504,191.54,-0.750000
21:25:41:206,-0.001,-0.023,0.981,0.000,-0.001,-0.001,-0.435,0.280,-0.513,191.99,0.450000
21:25:41:206,-0.001,-0.022,0.982,0.000,-0.002,-0.001,-0.428,0.277,-0.506,191.98,-0.010000
21:25:41:207,-0.001,-0.023,0.983,0.001,-0.002,-0.001,-0.429,0.278,-0.515,192.03,0.050000
21:25:41:208,0.000,-0.021,0.977,0.001,-0.002,-0.001,-0.425,0.276,-0.506,192.56,0.530000
21:25:41:208,-0.001,-0.022,0.984,0.001,-0.002,-0.001,-0.429,0.278,-0.506,191.40,-1.160000
21:25:41:209,-0.001,-0.023,0.982,0.001,-0.001,-0.001,-0.430,0.272,-0.512,191.81,0.410000
21:25:41:210,-0.001,-0.022,0.979,0.001,-0.002,-0.001,-0.430,0.276,-0.511,191.60,-0.210000
21:25:41:210,-0.001,-0.022,0.982,0.001,-0.001,-0.001,-0.430,0.276,-0.511,192.23,0.630000
21:25:41:211,-0.002,-0.023,0.984,0.001,-0.002,-0.000,-0.430,0.279,-0.507,192.04,-0.190000
21:25:41:212,-0.003,-0.022,0.980,0.001,-0.002,-0.000,-0.427,0.278,-0.508,191.43,-0.610000
21:25:41:212,-0.002,-0.023,0.980,0.001,-0.002,-0.001,-0.431,0.276,-0.512,191.41,-0.020000
21:25:41:213,-0.001,-0.022,0.981,0.001,-0.002,-0.001,-0.425,0.278,-0.513,192.28,0.870000
21:25:41:214,-0.001,-0.022,0.981,0.001,-0.002,-0.000,-0.432,0.282,-0.515,191.83,-0.450000
21:25:41:214,-0.001,-0.022,0.978,0.001,-0.001,-0.001,-0.428,0.278,-0.512,192.11,0.280000
21:25:41:215,-0.001,-0.022,0.982,0.000,-0.001,-0.001,-0.428,0.278,-0.512,192.23,0.120000
21:25:41:216,-0.002,-0.024,0.984,0.001,-0.001,-0.001,-0.432,0.277,-0.507,191.94,-0.290000
21:25:41:216,-0.001,-0.024,0.982,0.001,-0.002,-0.001,-0.426,0.280,-0.506,192.29,0.350000
21:25:41:217,0.000,-0.022,0.979,0.001,-0.001,-0.001,-0.428,0.278,-0.509,192.13,-0.160000
21:25:41:217,-0.001,-0.021,0.982,0.000,-0.001,-0.001,-0.430,0.278,-0.511,191.93,-0.200000
21:25:41:218,-0.001,-0.023,0.982,0.000,-0.002,-0.001,-0.434,0.280,-0.509,191.74,-0.190000
21:25:41:218,-0.001,-0.022,0.979,0.001,-0.002,-0.001,-0.428,0.283,-0.508,191.74,0.000000
21:25:41:219,-0.002,-0.023,0.980,0.001,-0.002,-0.001,-0.428,0.283,-0.508,191.61,-0.130000
21:25:41:220,-0.001,-0.022,0.983,0.001,-0.002,-0.001,-0.431,0.283,-0.507,191.79,0.180000
21:25:41:220,-0.003,-0.023,0.981,0.001,-0.002,-0.001,-0.428,0.282,-0.511,191.52,-0.270000
21:25:41:221,-0.000,-0.022,0.981,0.000,-0.002,-0.001,-0.435,0.279,-0.511,191.72,0.200000
21:25:41:221,-0.001,-0.023,0.983,0.001,-0.001,-0.001,-0.431,0.277,-0.513,191.71,-0.010000
21:25:41:222,-0.002,-0.023,0.982,0.001,-0.001,-0.001,-0.431,0.281,-0.514,191.87,0.160000
21:25:41:222,-0.001,-0.022,0.980,0.001,-0.002,-0.001,-0.435,0.282,-0.515,191.62,-0.250000
21:25:41:223,-0.000,-0.021,0.981,0.001,-0.002,-0.001,-0.435,0.282,-0.515,191.97,0.350000
21:25:41:224,-0.003,-0.022,0.980,0.001,-0.001,-0.001,-0.432,0.284,-0.510,192.19,0.220000
21:25:41:224,-0.002,-0.023,0.981,0.001,-0.002,-0.001,-0.436,0.278,-0.511,191.70,-0.490000
21:25:41:225,-0.000,-0.021,0.981,0.001,-0.002,-0.001,-0.430,0.283,-0.513,192.16,0.460000
21:25:41:225,-0.000,-0.022,0.982,0.000,-0.001,-0.001,-0.430,0.282,-0.513,192.02,-0.140000
21:25:41:226,-0.002,-0.022,0.981,0.001,-0.002,-0.001,-0.429,0.277,-0.504,192.19,0.170000
21:25:41:226,-0.002,-0.022,0.980,0.001,-0.002,-0.001,-0.428,0.281,-0.503,192.15,-0.040000
21:25:41:227,-0.001,-0.022,0.982,0.001,-0.002,-0.001,-0.428,0.281,-0.503,192.37,0.220000
21:25:41:228,-0.000,-0.022,0.982,0.001,-0.002,-0.001,-0.436,0.281,-0.507,191.80,-0.570000
21:25:41:228,-0.001,-0.022,0.979,0.001,-0.001,-0.001,-0.429,0.280,-0.508,192.36,0.560000
21:25:41:229,-0.000,-0.023,0.981,0.001,-0.001,-0.001,-0.424,0.284,-0.503,192.70,0.340000
21:25:41:229,-0.001,-0.023,0.982,0.000,-0.001,-0.001,-0.428,0.278,-0.505,191.89,-0.810000
21:25:41:230,0.000,-0.022,0.982,0.001,-0.002,-0.001,-0.431,0.278,-0.509,191.58,-0.310000
21:25:41:230,-0.002,-0.024,0.981,0.000,-0.002,-0.001,-0.423,0.278,-0.515,192.42,0.840000
21:25:41:231,-0.003,-0.022,0.983,0.000,-0.002,-0.001,-0.423,0.278,-0.515,191.60,-0.820000
21:25:41:231,-0.002,-0.022,0.981,0.001,-0.002,-0.001,-0.425,0.278,-0.507,192.20,0.600000
21:25:41:232,-0.002,-0.023,0.979,0.001,-0.002,-0.001,-0.426,0.281,-0.512,191.82,-0.380000
21:25:41:233,-0.001,-0.023,0.980,0.001,-0.002,-0.001,-0.429,0.281,-0.505,191.84,0.020000
21:25:41:233,-0.001,-0.021,0.982,0.000,-0.001,-0.001,-0.430,0.279,-0.509,192.06,0.220000
21:25:41:234,-0.001,-0.023,0.980,0.000,-0.002,-0.001,-0.433,0.275,-0.509,191.90,-0.160000
21:25:41:234,-0.001,-0.022,0.980,0.000,-0.002,-0.001,-0.429,0.277,-0.510,192.14,0.240000
21:25:41:235,-0.001,-0.021,0.981,0.000,-0.001,-0.001,-0.429,0.277,-0.510,192.40,0.260000
21:25:41:235,-0.001,-0.023,0.980,0.001,-0.002,-0.001,-0.433,0.276,-0.508,192.43,0.030000
21:25:41:236,-0.001,-0.022,0.980,0.001,-0.001,-0.001,-0.431,0.276,-0.509,192.29,-0.140000
21:25:41:237,-0.002,-0.023,0.982,0.001,-0.001,-0.001,-0.431,0.277,-0.508,191.91,-0.380000
21:25:41:237,-0.000,-0.022,0.981,0.000,-0.001,-0.001,-0.432,0.277,-0.508,191.25,-0.660000
21:25:41:238,0.001,-0.022,0.980,0.000,-0.002,-0.001,-0.430,0.280,-0.512,191.94,0.690000
21:25:41:238,0.000,-0.022,0.981,0.001,-0.001,-0.000,-0.428,0.281,-0.499,192.37,0.430000
21:25:41:239,-0.001,-0.023,0.982,0.001,-0.002,-0.001,-0.428,0.281,-0.499,191.46,-0.910000
21:25:41:239,-0.001,-0.022,0.981,0.001,-0.002,-0.001,-0.431,0.282,-0.506,191.52,0.060000
21:25:41:240,-0.000,-0.023,0.982,0.001,-0.002,-0.001,-0.431,0.282,-0.502,191.74,0.220000
21:25:41:240,-0.001,-0.023,0.982,0.001,-0.001,-0.001,-0.431,0.279,-0.502,192.09,0.350000
21:25:41:241,-0.001,-0.022,0.981,0.001,-0.002,-0.001,-0.427,0.277,-0.500,191.83,-0.260000
21:25:41:242,-0.002,-0.022,0.982,0.001,-0.002,-0.001,-0.431,0.280,-0.500,192.33,0.500000
21:25:41:242,-0.002,-0.022,0.981,0.001,-0.001,-0.001,-0.432,0.279,-0.506,192.05,-0.280000
21:25:41:243,-0.002,-0.022,0.981,0.000,-0.002,-0.001,-0.432,0.279,-0.506,192.45,0.400000
21:25:41:243,-0.001,-0.023,0.980,0.000,-0.001,-0.001,-0.431,0.280,-0.506,192.16,-0.290000
21:25:41:244,-0.001,-0.023,0.981,0.000,-0.001,-0.001,-0.432,0.279,-0.505,191.84,-0.320000
21:25:41:244,-0.002,-0.022,0.982,0.000,-0.002,-0.001,-0.432,0.281,-0.503,191.90,0.060000
21:25:41:245,-0.001,-0.022,0.981,0.000,-0.002,-0.000,-0.434,0.283,-0.505,191.94,0.040000
21:25:41:247,-0.000,-0.023,0.980,0.001,-0.001,-0.001,-0.430,0.276,-0.498,191.95,0.010000
21:25:41:258,-0.001,-0.021,0.980,0.000,-0.001,-0.001,-0.429,0.275,-0.497,192.15,0.200000
21:25:41:269,-0.001,-0.022,0.982,0.000,-0.001,-0.001,-0.429,0.278,-0.505,192.09,-0.060000
21:25:41:280,-0.003,-0.023,0.980,0.000,-0.001,-0.001,-0.430,0.278,-0.505,191.96,-0.130000
21:25:41:291,-0.000,-0.023,0.981,0.000,-0.001,-0.001,-0.430,0.277,-0.504,191.72,-0.240000
21:25:41:302,0.000,-0.023,0.984,0.000,-0.001,-0.001,-0.430,0.275,-0.505,191.94,0.220000
21:25:41:313,-0.001,-0.024,0.984,0.001,-0.002,-0.001,-0.434,0.277,-0.501,191.60,-0.340000
21:25:41:324,-0.002,-0.022,0.979,0.001,-0.002,-0.001,-0.428,0.284,-0.496,192.01,0.410000
21:25:41:335,-0.002,-0.023,0.980,0.001,-0.002,-0.001,-0.433,0.285,-0.510,191.73,-0.280000
21:25:41:346,-0.002,-0.023,0.982,0.000,-0.001,-0.001,-0.428,0.279,-0.498,192.28,0.550000
21:25:41:357,-0.001,-0.022,0.980,0.000,-0.002,-0.001,-0.428,0.279,-0.498,191.74,-0.540000
21:25:41:368,-0.001,-0.023,0.980,0.000,-0.002,-0.001,-0.428,0.276,-0.500,192.09,0.350000
21:25:41:379,-0.001,-0.021,0.981,0.001,-0.002,-0.001,-0.431,0.277,-0.505,191.63,-0.460000
21:25:41:390,-0.000,-0.021,0.982,0.001,-0.002,-0.001,-0.428,0.276,-0.506,192.49,0.860000
21:25:41:401,-0.001,-0.022,0.981,0.001,-0.001,-0.001,-0.427,0.279,-0.502,191.54,-0.950000
21:25:41:412,0.000,-0.022,0.982,0.001,-0.001,-0.001,-0.430,0.283,-0.503,191.87,0.330000
21:25:41:423,-0.000,-0.023,0.982,0.001,-0.001,-0.001,-0.426,0.279,-0.507,191.70,-0.170000
21:25:41:434,-0.001,-0.022,0.981,0.001,-0.002,-0.001,-0.426,0.279,-0.507,191.72,0.020000
21:25:41:445,-0.002,-0.022,0.980,0.001,-0.001,-0.001,-0.429,0.277,-0.506,191.96,0.240000
21:25:41:456,-0.001,-0.023,0.982,0.001,-0.001,-0.001,-0.427,0.277,-0.505,192.03,0.070000
21:25:41:467,-0.002,-0.023,0.982,0.000,-0.002,-0.001,-0.429,0.276,-0.506,191.40,-0.630000
21:25:41:478,-0.001,-0.021,0.980,0.000,-0.002,-0.001,-0.431,0.277,-0.506,191.67,0.270000
21:25:41:489,-0.000,-0.023,0.980,0.001,-0.002,-0.001,-0.430,0.279,-0.510,192.08,0.410000
21:25:41:500,0.000,-0.023,0.982,0.001,-0.001,-0.001,-0.432,0.279,-0.507,192.05,-0.030000
21:25:41:511,-0.001,-0.023,0.982,0.001,-0.002,-0.001,-0.432,0.279,-0.507,192.27,0.220000
21:25:41:522,-0.001,-0.023,0.980,0.001,-0.001,-0.001,-0.425,0.279,-0.505,191.74,-0.530000
21:25:41:533,-0.002,-0.022,0.981,0.001,-0.001,-0.001,-0.426,0.281,-0.506,191.16,-0.580000
21:25:41:544,-0.001,-0.022,0.980,0.001,-0.002,-0.001,-0.431,0.285,-0.512,191.73,0.570000
21:25:41:555,-0.001,-0.022,0.980,0.001,-0.002,-0.001,-0.430,0.284,-0.509,191.68,-0.050000
21:25:41:566,-0.002,-0.023,0.981,0.001,-0.002,-0.001,-0.432,0.278,-0.505,191.94,0.260000
21:25:41:577,-0.002,-0.023,0.981,0.001,-0.002,-0.001,-0.432,0.281,-0.509,191.94,0.000000
21:25:41:588,-0.000,-0.022,0.980,0.001,-0.002,-0.001,-0.432,0.281,-0.509,192.37,0.430000
21:25:41:599,-0.002,-0.024,0.980,0.001,-0.002,-0.001,-0.432,0.280,-0.510,191.79,-0.580000
21:25:41:610,-0.002,-0.024,0.983,0.001,-0.002,-0.001,-0.432,0.277,-0.509,192.36,0.570000
21:25:41:621,-0.002,-0.023,0.982,0.001,-0.001,-0.001,-0.433,0.276,-0.503,192.01,-0.350000
21:25:41:632,-0.001,-0.022,0.981,0.001,-0.002,-0.001,-0.434,0.284,-0.508,192.10,0.090000
21:25:41:643,-0.002,-0.023,0.982,0.001,-0.002,-0.001,-0.428,0.279,-0.503,191.82,-0.280000
21:25:41:654,-0.001,-0.022,0.981,0.001,-0.002,-0.001,-0.433,0.280,-0.507,191.98,0.160000
21:25:41:665,-0.001,-0.023,0.979,0.001,-0.002,-0.001,-0.433,0.280,-0.507,192.01,0.030000
21:25:41:676,-0.001,-0.023,0.981,0.001,-0.002,-0.001,-0.437,0.285,-0.500,191.73,-0.280000
21:25:41:687,-0.001,-0.022,0.981,0.001,-0.001,-0.001,-0.435,0.285,-0.507,191.37,-0.360000
21:25:41:698,-0.001,-0.022,0.983,0.000,-0.001,-0.001,-0.433,0.281,-0.505,191.60,0.230000
21:25:41:709,-0.001,-0.023,0.981,0.001,-0.002,-0.001,-0.434,0.284,-0.504,191.75,0.150000
21:25:41:720,-0.001,-0.022,0.981,0.001,-0.001,-0.001,-0.431,0.281,-0.507,192.05,0.300000
21:25:41:731,-0.001,-0.023,0.980,0.001,-0.002,-0.001,-0.434,0.277,-0.503,191.21,-0.840000
21:25:41:742,-0.001,-0.022,0.981,0.001,-0.002,-0.001,-0.434,0.277,-0.503,191.72,0.510000
21:25:41:753,-0.001,-0.023,0.983,0.000,-0.002,-0.001,-0.436,0.277,-0.505,192.27,0.550000
21:25:41:764,-0.001,-0.023,0.982,0.001,-0.001,-0.001,-0.430,0.285,-0.504,191.94,-0.330000
21:25:41:775,-0.002,-0.022,0.982,0.001,-0.001,-0.001,-0.428,0.282,-0.500,191.65,-0.290000
21:25:41:786,-0.001,-0.023,0.982,0.001,-0.002,-0.001,-0.429,0.277,-0.506,191.46,-0.190000
21:25:41:797,-0.002,-0.022,0.982,0.001,-0.002,-0.001,-0.432,0.282,-0.502,191.80,0.340000
21:25:41:808,-0.001,-0.022,0.979,0.001,-0.002,-0.001,-0.429,0.278,-0.505,192.13,0.330000
21:25:41:819,-0.001,-0.023,0.981,0.001,-0.002,-0.001,-0.429,0.278,-0.512,191.40,-0.730000
21:25:41:830,0.000,-0.022,0.982,0.001,-0.001,-0.001,-0.431,0.278,-0.512,191.82,0.420000
21:25:41:841,-0.001,-0.021,0.981,0.000,-0.001,-0.001,-0.434,0.282,-0.510,191.71,-0.110000
21:25:41:852,-0.001,-0.023,0.980,0.001,-0.002,-0.001,-0.430,0.280,-0.507,192.01,0.300000
21:25:41:863,-0.002,-0.022,0.981,0.001,-0.002,-0.001,-0.432,0.277,-0.505,192.20,0.190000
21:25:41:874,-0.001,-0.022,0.981,0.001,-0.002,-0.001,-0.434,0.281,-0.508,191.53,-0.670000
21:25:41:885,-0.001,-0.023,0.980,0.001,-0.002,-0.001,-0.432,0.279,-0.507,191.73,0.200000
21:25:41:896,-0.001,-0.022,0.981,0.001,-0.002,-0.001,-0.432,0.280,-0.503,192.20,0.470000
21:25:41:907,-0.001,-0.022,0.981,0.000,-0.002,-0.001,-0.430,0.280,-0.503,191.75,-0.450000
21:25:41:918,-0.002,-0.022,0.981,0.001,-0.002,-0.001,-0.430,0.282,-0.501,191.43,-0.320000
21:25:41:929,-0.001,-0.022,0.981,0.000,-0.002,-0.001,-0.430,0.279,-0.502,191.73,0.300000
21:25:41:940,-0.001,-0.022,0.982,0.001,-0.001,-0.001,-0.433,0.280,-0.508,192.05,0.320000
21:25:41:951,-0.002,-0.023,0.980,0.001,-0.002,-0.001,-0.430,0.280,-0.513,191.76,-0.290000
21:25:41:962,-0.001,-0.022,0.982,0.001,-0.002,-0.001,-0.429,0.280,-0.508,192.07,0.310000
21:25:41:973,-0.001,-0.023,0.980,0.001,-0.001,-0.001,-0.432,0.281,-0.512,191.94,-0.130000
21:25:41:984,-0.000,-0.021,0.982,0.001,-0.001,-0.001,-0.432,0.281,-0.512,191.56,-0.380000
21:25:41:995,-0.001,-0.023,0.981,0.000,-0.002,-0.001,-0.431,0.280,-0.508,191.52,-0.040000
21:25:42:006,-0.002,-0.023,0.982,0.001,-0.001,-0.001,-0.429,0.276,-0.507,191.81,0.290000
21:25:42:017,-0.001,-0.023,0.982,0.000,-0.002,-0.001,-0.425,0.283,-0.510,192.02,0.210000
21:25:42:028,-0.001,-0.022,0.981,0.001,-0.002,-0.001,-0.429,0.284,-0.512,191.64,-0.380000
21:25:42:039,-0.001,-0.023,0.981,0.001,-0.001,-0.001,-0.427,0.282,-0.508,192.28,0.640000
21:25:42:050,-0.001,-0.023,0.981,0.001,-0.001,-0.001,-0.431,0.282,-0.504,191.86,-0.420000
21:25:42:061,-0.000,-0.021,0.982,0.001,-0.001,-0.001,-0.431,0.282,-0.504,192.22,0.360000
21:25:42:072,-0.001,-0.022,0.980,0.001,-0.002,-0.001,-0.431,0.282,-0.507,191.67,-0.550000
21:25:42:083,-0.001,-0.023,0.981,0.001,-0.002,-0.001,-0.430,0.286,-0.504,191.64,-0.030000
21:25:42:094,-0.000,-0.021,0.981,0.001,-0.002,-0.001,-0.435,0.287,-0.505,191.78,0.140000
21:25:42:105,-0.002,-0.023,0.982,0.001,-0.001,-0.001,-0.431,0.283,-0.506,191.98,0.200000
21:25:42:116,-0.002,-0.023,0.980,0.001,-0.001,-0.001,-0.430,0.284,-0.506,192.20,0.220000
21:25:42:127,-0.002,-0.022,0.982,0.001,-0.002,-0.001,-0.428,0.285,-0.513,192.26,0.060000
21:25:42:138,-0.001,-0.022,0.983,0.001,-0.002,-0.001,-0.428,0.285,-0.513,192.03,-0.230000
21:25:42:149,-0.001,-0.022,0.980,0.001,-0.002,-0.001,-0.427,0.283,-0.511,191.62,-0.410000
21:25:42:160,-0.001,-0.021,0.980,0.001,-0.002,-0.001,-0.430,0.283,-0.505,191.86,0.240000
21:25:42:171,-0.002,-0.024,0.988,0.001,-0.002,-0.001,-0.434,0.277,-0.510,191.85,-0.010000
21:25:42:182,-0.001,-0.023,0.980,0.002,-0.002,-0.001,-0.428,0.281,-0.513,192.24,0.390000
21:25:42:193,-0.001,-0.023,0.976,0.002,-0.002,-0.001,-0.430,0.281,-0.512,191.82,-0.420000
21:25:42:204,-0.001,-0.022,0.981,0.001,-0.002,-0.001,-0.435,0.278,-0.503,191.65,-0.170000
21:25:42:215,-0.002,-0.022,0.981,0.001,-0.002,-0.001,-0.435,0.278,-0.503,192.18,0.530000
21:25:42:226,0.000,-0.022,0.978,0.001,-0.002,-0.001,-0.431,0.286,-0.511,191.97,-0.210000
21:25:42:237,-0.002,-0.021,0.980,0.001,-0.002,-0.001,-0.431,0.282,-0.502,191.82,-0.150000
21:25:42:248,-0.001,-0.023,0.986,0.001,-0.002,-0.001,-0.434,0.283,-0.508,192.04,0.220000
21:25:42:259,-0.002,-0.023,0.982,0.001,-0.002,-0.001,-0.434,0.286,-0.509,192.10,0.060000
21:25:42:270,-0.001,-0.022,0.978,0.001,-0.002,-0.001,-0.429,0.283,-0.512,192.06,-0.040000
21:25:42:281,-0.002,-0.023,0.984,0.001,-0.002,-0.001,-0.431,0.282,-0.504,191.17,-0.890000
21:25:42:292,-0.001,-0.022,0.980,0.002,-0.002,-0.001,-0.431,0.282,-0.504,191.75,0.580000
21:25:42:303,-0.001,-0.023,0.978,0.001,-0.002,-0.001,-0.432,0.284,-0.501,191.29,-0.460000
21:25:42:314,-0.001,-0.021,0.979,0.001,-0.002,-0.001,-0.434,0.283,-0.508,192.04,0.750000
