timestamp,ax,ay,az,gx,gy,gz,mx,my,mz,altitude,relative_altitude
201125_15.30.03.018,-0.00400,-0.01900,1.00100,0.08700,-0.14000,-0.01800,-0.41900,0.16400,-0.54300,188.20000,0.00000
201125_15.30.03.029,-0.00300,-0.01700,1.00000,0.07000,-0.12300,-0.03500,-0.41900,0.16300,-0.55000,188.64000,0.44000
201125_15.30.03.041,-0.00400,-0.01700,1.00100,0.08700,-0.12300,-0.03500,-0.41900,0.16400,-0.53900,188.49000,-0.15000
201125_15.30.03.052,-0.00400,-0.01700,0.99900,0.08700,-0.12300,-0.01800,-0.42100,0.16400,-0.54200,188.68000,0.19000
201125_15.30.03.064,-0.00400,-0.01800,1.00200,0.07000,-0.12300,-0.01800,-0.42400,0.16600,-0.54300,188.74000,0.06000
201125_15.30.03.075,-0.00200,-0.01800,1.00000,0.07000,-0.10500,-0.03500,-0.42300,0.15900,-0.54400,188.81000,0.07000
201125_15.30.03.087,-0.00400,-0.01800,1.00300,0.08700,-0.14000,-0.03500,-0.42000,0.16400,-0.55200,188.70000,-0.11000
201125_15.30.03.098,-0.00300,-0.01800,1.00200,0.05300,-0.10500,-0.01800,-0.42400,0.16300,-0.54400,188.22000,-0.48000
201125_15.30.03.109,-0.00400,-0.01700,1.00200,0.07000,-0.10500,-0.03500,-0.42200,0.16200,-0.54100,188.60000,0.38000
201125_15.30.03.120,-0.00400,-0.01900,0.99900,0.08700,-0.12300,-0.01800,-0.42100,0.16100,-0.54300,188.56000,-0.04000
201125_15.30.03.131,-0.00400,-0.01800,1.00000,0.07000,-0.12300,-0.01800,-0.42400,0.16500,-0.54400,188.47000,-0.09000
201125_15.30.03.143,-0.00200,-0.01800,1.00200,0.08700,-0.12300,-0.03500,-0.42400,0.16400,-0.54200,188.39000,-0.08000
201125_15.30.03.154,-0.00500,-0.01800,1.00200,0.07000,-0.14000,-0.01800,-0.42200,0.16500,-0.54500,188.16000,-0.23000
201125_15.30.03.165,-0.00500,-0.01800,1.00000,0.08700,-0.10500,-0.01800,-0.42500,0.16300,-0.54100,187.89000,-0.27000
201125_15.30.03.176,-0.00400,-0.01700,1.00000,0.08700,-0.10500,-0.01800,-0.42400,0.16100,-0.54100,188.69000,0.80000
201125_15.30.03.187,-0.00400,-0.01700,1.00100,0.08700,-0.12300,-0.03500,-0.42100,0.16200,-0.54600,188.15000,-0.54000
201125_15.30.03.198,-0.00400,-0.01800,1.00100,0.05300,-0.14000,-0.01800,-0.42100,0.16000,-0.54400,188.34000,0.19000
201125_15.30.03.210,-0.00300,-0.01800,0.99900,0.07000,-0.14000,-0.01800,-0.42300,0.16200,-0.54200,188.30000,-0.04000
201125_15.30.03.221,-0.00500,-0.01800,1.00100,0.08700,-0.14000,-0.01800,-0.42000,0.16000,-0.54800,188.64000,0.34000
201125_15.30.03.232,-0.00400,-0.01800,1.00000,0.07000,-0.10500,-0.03500,-0.42300,0.16000,-0.54700,188.40000,-0.24000
201125_15.30.03.243,-0.00300,-0.01800,0.99900,0.07000,-0.12300,-0.03500,-0.42700,0.16600,-0.54800,188.09000,-0.31000
201125_15.30.03.254,-0.00400,-0.01900,0.99900,0.07000,-0.12300,-0.01800,-0.42400,0.16700,-0.54700,188.42000,0.33000
201125_15.30.03.265,-0.00400,-0.01800,1.00100,0.07000,-0.12300,0.00000,-0.42200,0.16300,-0.54600,187.75000,-0.67000
201125_15.30.03.276,-0.00400,-0.01900,1.00100,0.08700,-0.12300,-0.01800,-0.42300,0.16300,-0.54600,188.45000,0.70000
201125_15.30.03.288,-0.00400,-0.01900,1.00000,0.08700,-0.14000,-0.01800,-0.42300,0.16500,-0.54500,188.01000,-0.44000
201125_15.30.03.299,-0.00500,-0.01700,1.00000,0.08700,-0.10500,-0.01800,-0.42200,0.15800,-0.54200,188.16000,0.15000
201125_15.30.03.310,-0.00400,-0.01700,1.00100,0.07000,-0.10500,-0.05300,-0.41800,0.16200,-0.54800,188.14000,-0.02000
201125_15.30.03.322,-0.00500,-0.01800,0.99900,0.07000,-0.12300,0.00000,-0.41900,0.15900,-0.54000,188.67000,0.53000
201125_15.30.03.333,-0.00400,-0.01800,1.00100,0.08700,-0.12300,-0.01800,-0.42300,0.16100,-0.54100,188.26000,-0.41000
201125_15.30.03.344,-0.00400,-0.01800,0.99900,0.07000,-0.12300,-0.01800,-0.41900,0.16300,-0.54200,188.75000,0.49000
201125_15.30.03.355,-0.00400,-0.01800,1.00000,0.08700,-0.12300,-0.01800,-0.42300,0.15900,-0.53800,188.04000,-0.71000
201125_15.30.03.366,-0.00500,-0.01800,1.00000,0.08700,-0.10500,-0.01800,-0.42500,0.15900,-0.54300,188.33000,0.29000
201125_15.30.03.377,-0.00400,-0.01800,1.00100,0.08700,-0.12300,-0.03500,-0.42100,0.16100,-0.53900,188.33000,0.00000
201125_15.30.03.388,-0.00400,-0.01900,0.99900,0.05300,-0.12300,-0.01800,-0.42400,0.16200,-0.54500,188.72000,0.39000
201125_15.30.03.399,-0.00500,-0.01900,0.99900,0.07000,-0.12300,0.00000,-0.42400,0.16200,-0.54600,187.79000,-0.93000
201125_15.30.03.411,-0.00400,-0.01900,1.00100,0.08700,-0.14000,-0.03500,-0.42200,0.15900,-0.53800,188.82000,1.03000
201125_15.30.03.422,-0.00400,-0.01800,1.00000,0.07000,-0.14000,-0.03500,-0.42300,0.16000,-0.54100,188.76000,-0.06000
201125_15.30.03.433,-0.00300,-0.01700,1.00500,0.08700,-0.10500,-0.01800,-0.42200,0.15900,-0.55100,188.57000,-0.19000
201125_15.30.03.444,-0.00300,-0.01900,0.99700,0.07000,-0.14000,-0.01800,-0.42200,0.15700,-0.54300,188.30000,-0.27000
201125_15.30.03.455,-0.00400,-0.01700,1.00300,0.07000,-0.12300,-0.03500,-0.42000,0.15700,-0.54200,188.53000,0.23000
201125_15.30.03.466,-0.00400,-0.01800,0.99900,0.07000,-0.14000,-0.05300,-0.42200,0.16000,-0.54400,188.09000,-0.44000
201125_15.30.03.477,-0.00400,-0.01900,1.00000,0.08700,-0.14000,-0.01800,-0.42000,0.15900,-0.54000,187.83000,-0.26000
201125_15.30.03.489,-0.00300,-0.01900,1.00100,0.05300,-0.12300,-0.03500,-0.42000,0.16000,-0.54900,188.98000,1.15000
201125_15.30.03.500,-0.00400,-0.01900,1.00000,0.05300,-0.08700,-0.03500,-0.41900,0.15900,-0.54800,188.28000,-0.70000
201125_15.30.03.511,-0.00400,-0.01800,1.00000,0.05300,-0.10500,-0.01800,-0.42300,0.16100,-0.54300,188.23000,-0.05000
201125_15.30.03.523,-0.00300,-0.01800,1.00000,0.08700,-0.08700,-0.01800,-0.42100,0.15900,-0.54300,188.23000,0.00000
201125_15.30.03.534,-0.00400,-0.01900,1.00000,0.08700,-0.10500,-0.03500,-0.42000,0.16000,-0.54400,188.89000,0.66000
201125_15.30.03.545,-0.00400,-0.01800,0.99900,0.07000,-0.12300,-0.03500,-0.42400,0.16000,-0.54200,188.67000,-0.22000
201125_15.30.03.557,-0.00500,-0.01800,0.99900,0.08700,-0.10500,0.01800,-0.42000,0.15700,-0.53900,188.69000,0.02000
201125_15.30.03.568,-0.00400,-0.01800,1.00000,0.10500,-0.10500,-0.03500,-0.42200,0.16300,-0.53600,187.59000,-1.10000
201125_15.30.03.579,-0.00400,-0.01800,1.00000,0.07000,-0.12300,-0.01800,-0.42100,0.15600,-0.54100,188.93000,1.34000
201125_15.30.03.590,-0.00500,-0.01800,0.99900,0.08700,-0.12300,-0.01800,-0.42100,0.15800,-0.53400,188.32000,-0.61000
201125_15.30.03.601,-0.00400,-0.01800,1.00100,0.05300,-0.12300,-0.03500,-0.41900,0.16200,-0.54500,187.86000,-0.46000
201125_15.30.03.612,-0.00300,-0.01600,1.00000,0.08700,-0.12300,-0.01800,-0.41400,0.15800,-0.54000,187.89000,0.03000
201125_15.30.03.622,-0.00400,-0.01700,1.00000,0.08700,-0.12300,-0.01800,-0.42100,0.16300,-0.54500,188.29000,0.40000
201125_15.30.03.634,-0.00400,-0.01800,0.99900,0.07000,-0.12300,-0.01800,-0.42200,0.16400,-0.53500,188.32000,0.03000
201125_15.30.03.645,-0.00400,-0.01800,1.00100,0.08700,-0.12300,-0.01800,-0.41900,0.16100,-0.54600,188.46000,0.14000
201125_15.30.03.657,-0.00400,-0.01800,1.00000,0.05300,-0.10500,-0.05300,-0.41700,0.16000,-0.54900,188.94000,0.48000
201125_15.30.03.668,-0.00400,-0.01800,1.00000,0.07000,-0.10500,-0.01800,-0.42000,0.16200,-0.55300,188.37000,-0.57000
201125_15.30.03.679,-0.00400,-0.01800,1.00000,0.07000,-0.12300,-0.03500,-0.42300,0.16200,-0.54400,188.75000,0.38000
201125_15.30.03.690,-0.00400,-0.01800,0.99900,0.08700,-0.12300,-0.01800,-0.42200,0.16000,-0.54600,188.86000,0.11000
201125_15.30.03.702,-0.00400,-0.01800,1.00000,0.10500,-0.10500,-0.01800,-0.41900,0.16200,-0.55000,188.17000,-0.69000
201125_15.30.03.713,-0.00400,-0.01800,1.00000,0.07000,-0.10500,-0.01800,-0.42000,0.16100,-0.55100,188.41000,0.24000
201125_15.30.03.724,-0.00500,-0.01800,1.00000,0.08700,-0.12300,-0.01800,-0.42100,0.16100,-0.54400,188.48000,0.07000
201125_15.30.03.735,-0.00300,-0.01800,0.99900,0.07000,-0.10500,-0.01800,-0.42200,0.15700,-0.54100,188.25000,-0.23000
201125_15.30.03.746,-0.00400,-0.01900,1.00100,0.08700,-0.14000,-0.01800,-0.41900,0.16200,-0.54100,188.59000,0.34000
201125_15.30.03.758,-0.00300,-0.01800,1.00000,0.07000,-0.12300,-0.05300,-0.41900,0.15900,-0.54500,187.96000,-0.63000
201125_15.30.03.769,-0.00400,-0.01700,1.00100,0.08700,-0.12300,-0.03500,-0.42000,0.15700,-0.54100,188.31000,0.35000
201125_15.30.03.780,-0.00400,-0.01800,1.00000,0.08700,-0.12300,-0.03500,-0.41600,0.15200,-0.53800,188.58000,0.27000
201125_15.30.03.791,-0.00400,-0.01800,1.00000,0.10500,-0.14000,-0.01800,-0.41600,0.16100,-0.54400,188.53000,-0.05000
201125_15.30.03.802,-0.00300,-0.01800,1.00000,0.07000,-0.10500,-0.01800,-0.41800,0.15800,-0.53900,188.42000,-0.11000
201125_15.30.03.813,-0.00300,-0.01800,1.00100,0.08700,-0.12300,-0.03500,-0.41500,0.16200,-0.53500,188.53000,0.11000
201125_15.30.03.824,-0.00400,-0.01800,1.00000,0.07000,-0.12300,0.00000,-0.41400,0.16200,-0.53900,188.35000,-0.18000
201125_15.30.03.835,-0.00300,-0.01800,1.00000,0.08700,-0.12300,-0.01800,-0.41500,0.15900,-0.54300,187.59000,-0.76000
201125_15.30.03.847,-0.00300,-0.01800,1.00000,0.08700,-0.14000,-0.03500,-0.41700,0.15700,-0.54700,188.26000,0.67000
201125_15.30.03.857,-0.00400,-0.01800,1.00100,0.07000,-0.12300,-0.01800,-0.41300,0.16000,-0.54600,188.97000,0.71000
201125_15.30.03.869,-0.00400,-0.01800,1.00000,0.08700,-0.12300,-0.01800,-0.41700,0.16200,-0.54500,188.20000,-0.77000
201125_15.30.03.880,-0.00500,-0.01800,1.00000,0.07000,-0.08700,-0.01800,-0.41300,0.16100,-0.54200,188.83000,0.63000
201125_15.30.03.891,-0.00400,-0.01900,1.00100,0.07000,-0.14000,-0.03500,-0.41700,0.16000,-0.53300,188.44000,-0.39000
201125_15.30.03.902,-0.00300,-0.01800,0.99900,0.08700,-0.12300,-0.01800,-0.41700,0.16200,-0.53400,188.50000,0.06000
201125_15.30.03.914,-0.00300,-0.01800,1.00000,0.07000,-0.10500,-0.01800,-0.41600,0.15700,-0.54100,188.06000,-0.44000
201125_15.30.03.925,-0.00300,-0.01900,0.99900,0.08700,-0.12300,-0.01800,-0.41800,0.15700,-0.53800,188.30000,0.24000
201125_15.30.03.936,-0.00400,-0.01800,1.00100,0.07000,-0.14000,0.00000,-0.42000,0.16200,-0.54400,188.40000,0.10000
201125_15.30.03.947,-0.00300,-0.01900,1.00000,0.07000,-0.10500,-0.03500,-0.42100,0.15900,-0.54600,188.04000,-0.36000
201125_15.30.03.958,-0.00300,-0.01800,0.99900,0.10500,-0.12300,-0.03500,-0.41800,0.15800,-0.54200,188.52000,0.48000
201125_15.30.03.969,-0.00400,-0.01800,0.99900,0.08700,-0.12300,-0.01800,-0.42000,0.15600,-0.54400,188.07000,-0.45000
201125_15.30.03.980,-0.00400,-0.01700,1.00100,0.08700,-0.12300,-0.01800,-0.41400,0.16000,-0.54000,189.30000,1.23000
201125_15.30.03.992,-0.00400,-0.01800,0.99900,0.08700,-0.12300,-0.03500,-0.42000,0.15700,-0.54400,188.43000,-0.87000
201125_15.30.04.003,-0.00400,-0.01800,1.00000,0.08700,-0.12300,-0.01800,-0.41400,0.16200,-0.54200,188.40000,-0.03000
201125_15.30.04.014,-0.00500,-0.01900,1.00100,0.10500,-0.12300,-0.01800,-0.41700,0.16100,-0.54700,187.94000,-0.46000
201125_15.30.04.025,-0.00400,-0.01800,1.00000,0.07000,-0.12300,-0.03500,-0.42000,0.16200,-0.54500,187.62000,-0.32000
201125_15.30.04.036,-0.00400,-0.01800,0.99900,0.07000,-0.10500,-0.01800,-0.41700,0.16100,-0.54800,188.25000,0.63000
201125_15.30.04.047,-0.00400,-0.01900,0.99900,0.08700,-0.12300,-0.03500,-0.42200,0.16300,-0.54700,188.86000,0.61000
201125_15.30.04.059,-0.00400,-0.01800,1.00000,0.08700,-0.14000,-0.03500,-0.42100,0.16000,-0.54600,188.30000,-0.56000
201125_15.30.04.070,-0.00300,-0.01900,1.00100,0.08700,-0.10500,-0.03500,-0.41800,0.16000,-0.54900,188.05000,-0.25000
201125_15.30.04.082,-0.00400,-0.01800,1.00100,0.07000,-0.14000,-0.01800,-0.41700,0.16100,-0.54400,187.77000,-0.28000
201125_15.30.04.093,-0.00400,-0.01800,0.99900,0.05300,-0.12300,-0.01800,-0.41600,0.15800,-0.54800,188.25000,0.48000
201125_15.30.04.104,-0.00400,-0.01900,1.00000,0.07000,-0.12300,-0.01800,-0.41800,0.15700,-0.54300,188.02000,-0.23000
201125_15.30.04.115,-0.00300,-0.01900,1.00000,0.08700,-0.10500,-0.01800,-0.42000,0.15900,-0.54700,188.14000,0.12000
201125_15.30.04.126,-0.00400,-0.01800,1.00000,0.10500,-0.14000,-0.01800,-0.41900,0.15900,-0.54200,188.19000,0.05000
201125_15.30.04.138,-0.00400,-0.01900,1.00100,0.08700,-0.10500,-0.03500,-0.41600,0.16000,-0.53800,188.74000,0.55000
201125_15.30.04.149,-0.00400,-0.01700,1.00000,0.07000,-0.12300,-0.01800,-0.41200,0.16000,-0.53700,187.97000,-0.77000
201125_15.30.04.160,-0.00400,-0.01800,1.00000,0.07000,-0.12300,-0.03500,-0.41600,0.16200,-0.53900,188.75000,0.78000
201125_15.30.04.171,-0.00300,-0.01800,1.00000,0.07000,-0.12300,-0.01800,-0.41900,0.16000,-0.53700,188.47000,-0.28000
201125_15.30.04.183,-0.00400,-0.01700,1.00000,0.08700,-0.10500,-0.01800,-0.42000,0.15700,-0.54200,188.82000,0.35000
201125_15.30.04.194,-0.00300,-0.01800,1.00000,0.08700,-0.12300,-0.01800,-0.41700,0.15900,-0.54300,188.39000,-0.43000
201125_15.30.04.205,-0.00400,-0.01800,1.00000,0.08700,-0.10500,-0.01800,-0.41700,0.15700,-0.54000,188.27000,-0.12000
201125_15.30.04.216,-0.00300,-0.01900,1.00100,0.07000,-0.10500,-0.03500,-0.41900,0.15900,-0.53800,188.27000,0.00000
201125_15.30.04.227,-0.00300,-0.01800,1.00000,0.07000,-0.10500,-0.01800,-0.42000,0.15500,-0.53600,188.51000,0.24000
201125_15.30.04.238,-0.00300,-0.01900,0.99900,0.07000,-0.10500,-4.48000,-0.41400,0.15900,-0.53300,187.58000,-0.93000
201125_15.30.04.250,-0.00500,-0.01900,0.99900,0.05300,-0.12300,-0.01800,-0.42100,0.15900,-0.53900,188.26000,0.68000
201125_15.30.04.261,-0.00500,-0.01900,1.00000,0.05300,-0.12300,-0.03500,-0.42300,0.16300,-0.53600,188.53000,0.27000
201125_15.30.04.272,-0.00300,-0.01800,1.00100,0.10500,-0.12300,-0.05300,-0.41700,0.16300,-0.54100,188.17000,-0.36000
201125_15.30.04.283,-0.00400,-0.01800,1.00100,0.08700,-0.14000,-0.01800,-0.41800,0.16200,-0.53400,188.50000,0.33000
201125_15.30.04.295,-0.00400,-0.01800,1.00000,0.08700,-0.08700,-0.01800,-0.41500,0.16100,-0.54300,188.59000,0.09000
201125_15.30.04.305,-0.00300,-0.01800,1.00000,0.07000,-0.12300,-0.01800,-0.42100,0.16000,-0.53700,188.56000,-0.03000
201125_15.30.04.317,-0.00500,-0.01900,1.00000,0.07000,-0.14000,-0.03500,-0.41800,0.16300,-0.54500,188.42000,-0.14000
201125_15.30.04.328,-0.00500,-0.01700,1.00000,0.10500,-0.10500,-0.01800,-0.42000,0.15900,-0.54200,188.03000,-0.39000
201125_15.30.04.339,-0.00400,-0.01800,1.00100,0.07000,-0.10500,-0.03500,-0.41700,0.15800,-0.54700,189.13000,1.10000
201125_15.30.04.351,-0.00400,-0.01800,0.99900,0.07000,-0.12300,-0.01800,-0.42000,0.15900,-0.55000,188.43000,-0.70000
201125_15.30.04.362,-0.00400,-0.01800,1.00000,0.07000,-0.14000,-0.03500,-0.41800,0.15600,-0.54200,188.41000,-0.02000
201125_15.30.04.373,-0.00400,-0.01800,0.99900,0.07000,-0.12300,-0.01800,-0.41700,0.15700,-0.54500,188.21000,-0.20000
201125_15.30.04.384,-0.00400,-0.01800,1.00000,0.08700,-0.12300,-0.01800,-0.41900,0.15900,-0.54400,187.77000,-0.44000
201125_15.30.04.395,-0.00400,-0.01800,0.99900,0.07000,-0.12300,-0.03500,-0.41600,0.15700,-0.53900,188.50000,0.73000
201125_15.30.04.406,-0.00400,-0.01700,1.00000,0.07000,-0.12300,-0.03500,-0.41600,0.16000,-0.54100,188.11000,-0.39000
201125_15.30.04.417,-0.00400,-0.01900,1.00100,0.05300,-0.14000,-0.01800,-0.41500,0.16100,-0.54500,187.52000,-0.59000
201125_15.30.04.428,-0.00400,-0.01800,1.00000,0.07000,-0.10500,-0.01800,-0.41700,0.15900,-0.54100,188.45000,0.93000
201125_15.30.04.439,-0.00300,-0.01700,1.00000,0.08700,-0.10500,-0.03500,-0.41500,0.16400,-0.53800,188.35000,-0.10000
201125_15.30.04.450,-0.00300,-0.01900,1.00000,0.10500,-0.14000,-0.01800,-0.41800,0.15800,-0.54600,188.95000,0.60000
201125_15.30.04.461,-0.00500,-0.01800,1.00000,0.05300,-0.10500,-0.01800,-0.41700,0.15900,-0.54500,188.32000,-0.63000
201125_15.30.04.472,-0.00400,-0.01800,1.00100,0.07000,-0.08700,-0.01800,-0.41600,0.16300,-0.54300,188.27000,-0.05000
201125_15.30.04.483,-0.00300,-0.01800,1.00100,0.08700,-0.12300,-0.01800,-0.41300,0.15900,-0.53900,188.54000,0.27000
201125_15.30.04.495,-0.00500,-0.01800,0.99900,0.10500,-0.14000,-0.01800,-0.41600,0.16400,-0.54100,187.97000,-0.57000
201125_15.30.04.506,-0.00200,-0.01700,1.00100,0.08700,-0.12300,-0.01800,-0.41600,0.16100,-0.53600,188.88000,0.91000
201125_15.30.04.517,-0.00400,-0.01800,0.99900,0.08700,-0.12300,-0.03500,-0.41600,0.16300,-0.53900,188.19000,-0.69000
201125_15.30.04.528,-0.00400,-0.01800,1.00000,0.07000,-0.12300,-0.01800,-0.41400,0.16000,-0.54600,188.07000,-0.12000
201125_15.30.04.539,-0.00500,-0.01800,1.00100,0.07000,-0.10500,-0.03500,-0.41600,0.15900,-0.54700,188.46000,0.39000
201125_15.30.04.550,-0.00300,-0.01800,1.00000,0.08700,-0.14000,-0.03500,-0.41800,0.16000,-0.55200,188.20000,-0.26000
201125_15.30.04.562,-0.00400,-0.01700,0.99900,0.07000,-0.12300,-0.01800,-0.41700,0.16100,-0.54500,188.05000,-0.15000
201125_15.30.04.573,-0.00400,-0.01900,1.00000,0.07000,-0.15700,-0.01800,-0.41400,0.15900,-0.54400,189.12000,1.07000
201125_15.30.04.584,-0.00200,-0.01800,1.00000,0.07000,-0.12300,-0.01800,-0.41700,0.16200,-0.54000,188.34000,-0.78000
201125_15.30.04.595,-0.00400,-0.01800,1.00000,0.07000,-0.08700,-0.01800,-0.41600,0.16100,-0.54300,188.33000,-0.01000
201125_15.30.04.606,-0.00400,-0.01800,1.00000,0.08700,-0.10500,-0.03500,-0.41800,0.16000,-0.54900,188.42000,0.09000
201125_15.30.04.617,-0.00400,-0.01800,1.00000,0.10500,-0.12300,-0.01800,-0.41700,0.16200,-0.54800,188.38000,-0.04000
201125_15.30.04.628,-0.00400,-0.01900,1.00100,0.08700,-0.12300,-0.01800,-0.41800,0.16200,-0.54800,187.87000,-0.51000
201125_15.30.04.640,-0.00300,-0.01800,1.00000,0.10500,-0.10500,-0.01800,-0.42400,0.16300,-0.54200,188.40000,0.53000
201125_15.30.04.651,-0.00400,-0.01900,1.00000,0.08700,-0.14000,-0.01800,-0.41800,0.15900,-0.55100,189.30000,0.90000
201125_15.30.04.662,-0.00400,-0.01800,0.99900,0.07000,-0.12300,-0.03500,-0.41600,0.15900,-0.54700,187.94000,-1.36000
201125_15.30.04.673,-0.00400,-0.01800,1.00000,0.07000,-0.10500,-0.03500,-0.41600,0.16200,-0.54500,188.80000,0.86000
201125_15.30.04.685,-0.00400,-0.01700,1.00100,0.07000,-0.12300,-0.01800,-0.41600,0.16100,-0.54700,188.53000,-0.27000
201125_15.30.04.696,-0.00400,-0.01800,1.00000,0.07000,-0.10500,-0.01800,-0.42000,0.16200,-0.54300,188.22000,-0.31000
201125_15.30.04.708,-0.00400,-0.01800,1.00000,0.07000,-0.12300,-0.01800,-0.41600,0.16200,-0.54200,188.37000,0.15000
201125_15.30.04.719,-0.00300,-0.01800,1.00000,0.08700,-0.12300,-0.03500,-0.41900,0.15700,-0.54300,188.12000,-0.25000
201125_15.30.04.730,-0.00400,-0.01700,0.99900,0.10500,-0.10500,-0.03500,-0.41700,0.16300,-0.54000,188.92000,0.80000
201125_15.30.04.741,-0.00300,-0.01800,1.00000,0.08700,-0.12300,-0.01800,-0.41900,0.16400,-0.54600,188.84000,-0.08000
201125_15.30.04.752,-0.00400,-0.01700,1.00000,0.05300,-0.12300,-0.01800,-0.41700,0.15800,-0.54500,188.24000,-0.60000
201125_15.30.04.763,-0.00300,-0.01800,1.00100,0.07000,-0.12300,-0.01800,-0.41800,0.16300,-0.54400,188.55000,0.31000
201125_15.30.04.774,-0.00300,-0.01700,1.00100,0.05300,-0.14000,-0.03500,-0.41400,0.16500,-0.54900,188.99000,0.44000
201125_15.30.04.785,-0.00400,-0.01800,1.00100,0.08700,-0.10500,-0.03500,-0.41400,0.16100,-0.54800,188.49000,-0.50000
201125_15.30.04.796,-0.00300,-0.01800,1.00000,0.07000,-0.12300,-0.01800,-0.41600,0.16100,-0.54200,188.65000,0.16000
201125_15.30.04.807,-0.00300,-0.01800,1.00000,0.07000,-0.12300,0.00000,-0.41300,0.15800,-0.54800,188.62000,-0.03000
201125_15.30.04.818,-0.00400,-0.01800,1.00000,0.07000,-0.12300,-0.01800,-0.41700,0.15400,-0.54300,188.43000,-0.19000
201125_15.30.04.829,-0.00400,-0.01800,1.00200,0.10500,-0.12300,-0.01800,-0.41900,0.15600,-0.54400,188.64000,0.21000
201125_15.30.04.841,-0.00300,-0.01800,1.00000,0.08700,-0.10500,-0.01800,-0.41800,0.15700,-0.54200,188.77000,0.13000
201125_15.30.04.852,-0.00400,-0.01800,0.99900,0.07000,-0.12300,-0.01800,-0.42100,0.15600,-0.54500,188.32000,-0.45000
201125_15.30.04.864,-0.00400,-0.01700,1.00100,0.07000,-0.10500,-0.01800,-0.41900,0.15600,-0.54700,188.65000,0.33000
201125_15.30.04.875,-0.00300,-0.01800,0.99900,0.08700,-0.10500,-0.03500,-0.42100,0.15700,-0.54600,188.63000,-0.02000
201125_15.30.04.886,-0.00400,-0.01800,0.99800,0.07000,-0.12300,-0.03500,-0.41700,0.15700,-0.54600,188.63000,0.00000
201125_15.30.04.898,-0.00300,-0.01900,1.00200,0.07000,-0.14000,-0.03500,-0.42000,0.16100,-0.54100,188.04000,-0.59000
201125_15.30.04.909,-0.00300,-0.01700,1.00100,0.07000,-0.12300,-0.01800,-0.41700,0.16000,-0.54300,188.43000,0.39000
201125_15.30.04.920,-0.00400,-0.01700,0.99900,0.07000,-0.12300,-0.03500,-0.41900,0.15600,-0.54800,188.23000,-0.20000
201125_15.30.04.931,-0.00400,-0.01700,0.99900,0.07000,-0.10500,-0.03500,-0.41800,0.16100,-0.54700,188.50000,0.27000
201125_15.30.04.942,-0.00400,-0.01800,1.00000,0.07000,-0.12300,-0.01800,-0.41900,0.15800,-0.54500,188.75000,0.25000
201125_15.30.04.954,-0.00400,-0.01800,1.00000,0.08700,-0.08700,-0.01800,-0.41700,0.15600,-0.55300,188.25000,-0.50000
201125_15.30.04.965,-0.00500,-0.02000,0.99900,0.07000,-0.12300,-0.03500,-0.41500,0.15900,-0.54800,187.83000,-0.42000
201125_15.30.04.976,-0.00400,-0.01800,1.00100,0.07000,-0.10500,-0.01800,-0.41300,0.16200,-0.55000,188.14000,0.31000
201125_15.30.04.988,-0.00400,-0.01800,1.00000,0.08700,-0.12300,-0.03500,-0.41300,0.15800,-0.54800,188.35000,0.21000
201125_15.30.04.999,-0.00300,-0.01900,1.00000,0.08700,-0.08700,-0.01800,-0.41300,0.15800,-0.54800,188.77000,0.42000
201125_15.30.05.010,-0.00400,-0.01800,1.00100,0.05300,-0.12300,-0.03500,-0.41300,0.15900,-0.54800,188.92000,0.15000
201125_15.30.05.022,-0.00300,-0.01800,1.00000,0.07000,-0.12300,-0.03500,-0.41600,0.16400,-0.55100,188.40000,-0.52000
201125_15.30.05.033,-0.00300,-0.01800,1.00100,0.08700,-0.12300,-0.03500,-0.41500,0.16200,-0.54500,188.63000,0.23000
201125_15.30.05.044,-0.00300,-0.01800,1.00000,0.08700,-0.12300,-0.01800,-0.41500,0.15800,-0.54700,188.32000,-0.31000
201125_15.30.05.055,-0.00300,-0.01600,1.00100,0.05300,-0.12300,-0.01800,-0.41700,0.15700,-0.54000,188.46000,0.14000
201125_15.30.05.067,-0.00400,-0.01800,1.00000,0.07000,-0.10500,-0.01800,-0.41900,0.15700,-0.53900,188.25000,-0.21000
201125_15.30.05.078,-0.00300,-0.01800,0.99800,0.05300,-0.12300,-0.01800,-0.41600,0.15700,-0.54400,188.74000,0.49000
201125_15.30.05.089,-0.00400,-0.01900,0.99900,0.07000,-0.14000,-0.03500,-0.41400,0.15700,-0.54500,188.06000,-0.68000
201125_15.30.05.100,-0.00400,-0.01900,1.00000,0.07000,-0.14000,-0.01800,-0.41500,0.16300,-0.53900,188.62000,0.56000
201125_15.30.05.111,-0.00400,-0.01800,1.00100,0.08700,-0.14000,-0.03500,-0.41800,0.16400,-0.53900,189.09000,0.47000
201125_15.30.05.123,-0.00500,-0.01800,0.99700,0.07000,-0.12300,-0.03500,-0.41700,0.16400,-0.53900,188.15000,-0.94000
201125_15.30.05.134,-0.00300,-0.01800,1.00100,0.07000,-0.12300,-0.01800,-0.41600,0.16400,-0.53900,188.84000,0.69000
201125_15.30.05.145,-0.00500,-0.01800,1.00100,0.07000,-0.14000,-0.01800,-0.41700,0.15900,-0.54700,188.05000,-0.79000
201125_15.30.05.156,-0.00400,-0.01700,0.99900,0.07000,-0.12300,-0.01800,-0.41900,0.15800,-0.55000,188.35000,0.30000
201125_15.30.05.167,-0.00500,-0.01800,0.99800,0.08700,-0.12300,-0.03500,-0.42000,0.16400,-0.55400,188.11000,-0.24000
201125_15.30.05.178,-0.00400,-0.01900,1.00100,0.07000,-0.12300,-0.01800,-0.42100,0.15700,-0.55200,188.32000,0.21000
201125_15.30.05.190,-0.00400,-0.01800,0.99800,0.07000,-0.10500,-0.01800,-0.42000,0.16300,-0.54100,188.87000,0.55000
201125_15.30.05.200,-0.00300,-0.01800,0.99800,0.07000,-0.12300,-0.03500,-0.41300,0.16200,-0.54500,188.60000,-0.27000
201125_15.30.05.211,-0.00300,-0.01800,1.00100,0.05300,-0.12300,-0.01800,-0.41600,0.16500,-0.54000,187.93000,-0.67000
201125_15.30.05.223,-0.00400,-0.01800,0.99900,0.07000,-0.12300,-0.01800,-0.41600,0.15900,-0.54300,188.58000,0.65000
201125_15.30.05.234,-0.00400,-0.01800,1.00000,0.07000,-0.10500,-0.03500,-0.41800,0.16400,-0.54400,188.43000,-0.15000
201125_15.30.05.245,-0.00400,-0.01800,1.00000,0.07000,-0.10500,-0.01800,-0.41800,0.16500,-0.53900,188.43000,0.00000
201125_15.30.05.256,-0.00500,-0.01800,1.00000,0.05300,-0.14000,-0.03500,-0.41800,0.16300,-0.54300,188.43000,0.00000
201125_15.30.05.267,-0.00300,-0.01700,1.00100,0.07000,-0.12300,-0.03500,-0.41700,0.15800,-0.54300,188.71000,0.28000
201125_15.30.05.278,-0.00400,-0.01800,1.00000,0.08700,-0.14000,-0.03500,-0.41800,0.16100,-0.54700,188.41000,-0.30000
201125_15.30.05.289,-0.00200,-0.01800,1.00100,0.08700,-0.14000,-0.01800,-0.41900,0.15800,-0.54600,188.91000,0.50000
201125_15.30.05.300,-0.00400,-0.01800,0.99900,0.07000,-0.12300,-0.01800,-0.42000,0.15900,-0.54600,187.90000,-1.01000
201125_15.30.05.311,-0.00500,-0.01800,1.00100,0.08700,-0.12300,-0.03500,-0.41600,0.15800,-0.54700,188.56000,0.66000
201125_15.30.05.323,-0.00400,-0.01800,0.99800,0.08700,-0.10500,0.00000,-0.41900,0.15700,-0.54800,188.17000,-0.39000
201125_15.30.05.334,-0.00400,-0.01800,1.00100,0.08700,-0.14000,-0.01800,-0.41400,0.15800,-0.54200,188.89000,0.72000
201125_15.30.05.345,-0.00400,-0.01700,1.00200,0.08700,-0.12300,-0.01800,-0.41700,0.15800,-0.54100,188.05000,-0.84000
201125_15.30.05.356,-0.00400,-0.01800,1.00000,0.07000,-0.10500,0.00000,-0.41800,0.16300,-0.55000,188.53000,0.48000
201125_15.30.05.367,-0.00400,-0.01900,1.00000,0.07000,-0.14000,-0.01800,-0.42200,0.15800,-0.54100,187.90000,-0.63000
201125_15.30.05.378,-0.00300,-0.01900,1.00000,0.08700,-0.12300,-0.01800,-0.42000,0.15600,-0.54300,188.41000,0.51000
201125_15.30.05.389,-0.00400,-0.01800,1.00100,0.08700,-0.14000,0.00000,-0.41700,0.16200,-0.54700,188.60000,0.19000
201125_15.30.05.401,-0.00400,-0.01800,1.00000,0.05300,-0.12300,-0.01800,-0.41700,0.15900,-0.54300,188.51000,-0.09000
201125_15.30.05.412,-0.00300,-0.01800,1.00100,0.07000,-0.12300,-0.03500,-0.41800,0.16000,-0.54100,188.76000,0.25000
201125_15.30.05.423,-0.00300,-0.01700,1.00000,0.08700,-0.10500,-0.03500,-0.42200,0.16100,-0.54700,188.35000,-0.41000
201125_15.30.05.435,-0.00400,-0.01800,1.00100,0.07000,-0.12300,-0.05300,-0.42100,0.16200,-0.53800,188.32000,-0.03000
201125_15.30.05.446,-0.00300,-0.01800,1.00000,0.05300,-0.12300,0.00000,-0.41500,0.15700,-0.54700,188.34000,0.02000
201125_15.30.05.458,-0.00500,-0.01800,1.00000,0.08700,-0.12300,-0.01800,-0.41600,0.16100,-0.54500,188.33000,-0.01000
201125_15.30.05.469,-0.00400,-0.01800,1.00100,0.07000,-0.12300,-0.01800,-0.41500,0.16000,-0.54400,188.47000,0.14000
201125_15.30.05.480,-0.00400,-0.01900,1.00000,0.08700,-0.12300,0.00000,-0.42000,0.15800,-0.54700,187.95000,-0.52000
201125_15.30.05.492,-0.00400,-0.01800,1.00000,0.08700,-0.12300,-0.03500,-0.41500,0.16200,-0.54400,188.34000,0.39000
201125_15.30.05.503,-0.00300,-0.01900,1.00100,0.07000,-0.12300,-0.03500,-0.41700,0.16200,-0.54400,188.15000,-0.19000
201125_15.30.05.515,-0.00400,-0.01800,1.00100,0.07000,-0.12300,-0.03500,-0.41500,0.16200,-0.54300,188.78000,0.63000
201125_15.30.05.526,-0.00400,-0.01700,1.00000,0.05300,-0.12300,-0.01800,-0.42000,0.16200,-0.54500,189.09000,0.31000
201125_15.30.05.537,-0.00400,-0.01900,1.00100,0.08700,-0.14000,-0.03500,-0.41800,0.16200,-0.54500,188.31000,-0.78000
201125_15.30.05.549,-0.00300,-0.01800,0.99900,0.08700,-0.12300,-0.01800,-0.41700,0.15900,-0.55100,188.10000,-0.21000
201125_15.30.05.560,-0.00500,-0.01800,1.00000,0.07000,-0.10500,-0.03500,-0.41900,0.16300,-0.54500,188.14000,0.04000
201125_15.30.05.572,-0.00300,-0.01800,1.00000,0.05300,-0.12300,-0.01800,-0.41900,0.15800,-0.54900,189.31000,1.17000
201125_15.30.05.583,-0.00400,-0.01800,1.00100,0.07000,-0.14000,-0.01800,-0.41400,0.16100,-0.54600,188.89000,-0.42000
201125_15.30.05.594,-0.00400,-0.01700,0.99900,0.08700,-0.14000,-0.03500,-0.41800,0.16300,-0.54100,187.95000,-0.94000
201125_15.30.05.605,-0.00400,-0.01800,1.00000,0.08700,-0.10500,-0.05300,-0.41700,0.16300,-0.54400,189.12000,1.17000
201125_15.30.05.617,-0.00300,-0.01800,1.00000,0.08700,-0.12300,-0.01800,-0.41600,0.16700,-0.54800,188.25000,-0.87000
201125_15.30.05.629,-0.00400,-0.01600,1.00100,0.08700,-0.12300,-0.03500,-0.41700,0.16200,-0.54600,188.10000,-0.15000
201125_15.30.05.641,-0.00500,-0.01700,0.99900,0.08700,-0.12300,-0.03500,-0.41500,0.16300,-0.54600,188.18000,0.08000
201125_15.30.05.652,-0.00200,-0.02000,1.00100,0.07000,-0.10500,-0.01800,-0.41700,0.15700,-0.54800,188.52000,0.34000
201125_15.30.05.663,-0.00300,-0.01700,1.00000,0.07000,-0.12300,-0.01800,-0.41700,0.15900,-0.55000,188.14000,-0.38000
201125_15.30.05.675,-0.00400,-0.01800,1.00100,0.08700,-0.10500,-0.01800,-0.41500,0.16300,-0.54700,188.18000,0.04000
201125_15.30.05.686,-0.00400,-0.01700,0.99900,0.07000,-0.12300,0.00000,-0.41800,0.16100,-0.54900,189.02000,0.84000
201125_15.30.05.698,-0.00500,-0.01900,1.00100,0.08700,-0.14000,-0.01800,-0.41600,0.16000,-0.54800,188.22000,-0.80000
201125_15.30.05.709,-0.00300,-0.01700,1.00000,0.08700,-0.10500,-0.01800,-0.41700,0.16200,-0.54600,188.33000,0.11000
201125_15.30.05.720,-0.00400,-0.01700,0.99900,0.07000,-0.12300,-0.01800,-0.41500,0.16000,-0.54400,188.14000,-0.19000
201125_15.30.05.731,-0.00400,-0.01800,0.99900,0.08700,-0.10500,-0.03500,-0.41600,0.16700,-0.54100,188.52000,0.38000
201125_15.30.05.743,-0.00400,-0.01900,1.00000,0.07000,-0.12300,-0.01800,-0.41600,0.16000,-0.53900,188.12000,-0.40000
201125_15.30.05.754,-0.00300,-0.01700,1.00000,0.08700,-0.12300,-0.03500,-0.41300,0.15900,-0.54000,188.82000,0.70000
201125_15.30.05.766,-0.00300,-0.01900,1.00000,0.08700,-0.14000,0.00000,-0.41700,0.15800,-0.54100,188.70000,-0.12000
201125_15.30.05.777,-0.00300,-0.01700,1.00100,0.08700,-0.14000,-0.01800,-0.41200,0.15900,-0.53800,188.65000,-0.05000
201125_15.30.05.788,-0.00300,-0.01800,0.99800,0.08700,-0.12300,-0.01800,-0.41800,0.16200,-0.54000,189.26000,0.61000
201125_15.30.05.800,-0.00400,-0.01800,1.00100,0.08700,-0.12300,-0.01800,-0.41800,0.16100,-0.54600,188.47000,-0.79000
201125_15.30.05.811,-0.00400,-0.01800,0.99700,0.05300,-0.10500,-0.03500,-0.41400,0.15700,-0.54300,188.44000,-0.03000
201125_15.30.05.822,-0.00300,-0.01800,1.00100,0.05300,-0.10500,-0.01800,-0.41400,0.15700,-0.54200,187.94000,-0.50000
201125_15.30.05.834,-0.00400,-0.01800,0.99800,0.05300,-0.12300,-0.01800,-0.41400,0.16100,-0.54300,187.87000,-0.07000
201125_15.30.05.845,-0.00300,-0.01700,0.99900,0.07000,-0.14000,-0.03500,-0.41700,0.16400,-0.54400,187.45000,-0.42000
201125_15.30.05.856,-0.00400,-0.01800,0.99800,0.08700,-0.12300,-0.01800,-0.41700,0.16100,-0.54000,188.56000,1.11000
201125_15.30.05.868,-0.00500,-0.01800,1.00000,0.10500,-0.14000,-0.01800,-0.41300,0.15800,-0.54800,188.45000,-0.11000
201125_15.30.05.879,-0.00400,-0.01700,1.00000,0.08700,-0.14000,-0.01800,-0.41500,0.16000,-0.54500,188.78000,0.33000
201125_15.30.05.891,-0.00400,-0.01800,0.99800,0.07000,-0.14000,-0.01800,-0.41600,0.16100,-0.54400,188.12000,-0.66000
201125_15.30.05.902,-0.00400,-0.01700,0.99900,0.08700,-0.14000,-0.01800,-0.41300,0.15600,-0.54700,188.35000,0.23000
201125_15.30.05.913,-0.00300,-0.01800,1.00100,0.08700,-0.14000,-0.01800,-0.41200,0.15900,-0.54300,188.13000,-0.22000
201125_15.30.05.924,-0.00400,-0.01800,1.00000,0.07000,-0.14000,-0.03500,-0.41000,0.16100,-0.53700,188.11000,-0.02000
201125_15.30.05.936,-0.00400,-0.01800,0.99800,0.07000,-0.12300,-0.01800,-0.41000,0.16100,-0.54400,188.33000,0.22000
201125_15.30.05.947,-0.00400,-0.01800,1.00100,0.10500,-0.14000,-0.01800,-0.41000,0.16400,-0.54500,188.43000,0.10000
201125_15.30.05.959,-0.00400,-0.01900,1.00100,0.08700,-0.12300,-0.03500,-0.41500,0.15900,-0.55100,188.59000,0.16000
201125_15.30.05.970,-0.00400,-0.01900,0.99900,0.08700,-0.12300,-0.01800,-0.41600,0.16300,-0.55100,188.46000,-0.13000
201125_15.30.05.981,-0.00500,-0.01800,1.00000,0.08700,-0.10500,-0.03500,-0.41700,0.16100,-0.54400,188.45000,-0.01000
201125_15.30.05.992,-0.00300,-0.01800,1.00000,0.08700,-0.12300,-0.01800,-0.41600,0.15900,-0.55400,187.56000,-0.89000
201125_15.30.06.003,-0.00400,-0.01800,0.99800,0.07000,-0.12300,0.00000,-0.41600,0.16300,-0.55300,188.49000,0.93000
201125_15.30.06.015,-0.00300,-0.01800,1.00100,0.07000,-0.10500,0.00000,-0.41500,0.16100,-0.55100,188.33000,-0.16000
201125_15.30.06.026,-0.00300,-0.01800,1.00000,0.07000,-0.14000,-0.03500,-0.41400,0.16300,-0.54900,188.21000,-0.12000
201125_15.30.06.037,-0.00400,-0.01800,1.00000,0.08700,-0.12300,-0.03500,-0.41500,0.16200,-0.54500,187.87000,-0.34000
201125_15.30.06.048,-0.00400,-0.01800,1.00100,0.05300,-0.12300,-0.03500,-0.41800,0.16300,-0.55200,188.13000,0.26000
201125_15.30.06.060,-0.00500,-0.02000,0.99800,0.08700,-0.08700,-0.01800,-0.41900,0.15900,-0.55300,187.94000,-0.19000
201125_15.30.06.071,-0.00400,-0.01700,1.00000,0.07000,-0.12300,-0.03500,-0.41700,0.15900,-0.55000,188.78000,0.84000
201125_15.30.06.083,-0.00400,-0.01700,1.00100,0.10500,-0.12300,-0.03500,-0.41600,0.16100,-0.54700,188.17000,-0.61000
201125_15.30.06.094,-0.00400,-0.01800,1.00000,0.10500,-0.10500,-0.03500,-0.41800,0.16500,-0.55100,188.56000,0.39000
201125_15.30.06.105,-0.00400,-0.01800,1.00100,0.07000,-0.14000,-0.01800,-0.41700,0.16500,-0.54600,188.66000,0.10000
201125_15.30.06.116,-0.00300,-0.01800,1.03100,0.07000,-0.12300,-0.03500,-0.41800,0.16200,-0.54300,188.49000,-0.17000
201125_15.30.06.128,-0.00400,-0.01800,1.00000,0.07000,-0.12300,-0.03500,-0.41800,0.16200,-0.54900,188.51000,0.02000
201125_15.30.06.139,-0.00300,-0.01800,1.00000,0.07000,-0.12300,-0.03500,-0.41500,0.15900,-0.54600,188.05000,-0.46000
201125_15.30.06.150,-0.00300,-0.01900,1.00100,0.07000,-0.12300,-0.01800,-0.41700,0.15900,-0.54600,188.11000,0.06000
201125_15.30.06.162,-0.00400,-0.01800,1.00300,0.07000,-0.12300,-0.01800,-0.41600,0.15800,-0.54300,188.62000,0.51000
201125_15.30.06.173,-0.00400,-0.01900,0.98700,0.12300,-0.12300,-0.03500,-0.41900,0.15200,-0.54900,188.13000,-0.49000
201125_15.30.06.185,-0.00300,-0.01800,1.01400,0.08700,-0.14000,0.00000,-0.41800,0.15600,-0.55100,188.72000,0.59000
201125_15.30.06.196,-0.00300,-0.01800,0.99900,0.07000,-0.10500,-0.01800,-0.41800,0.15500,-0.54700,188.52000,-0.20000
201125_15.30.06.208,-0.00400,-0.01900,1.00200,0.08700,-0.14000,-0.01800,-0.41700,0.15900,-0.54300,188.39000,-0.13000
201125_15.30.06.219,-0.00400,-0.01800,0.99700,0.05300,-0.10500,-0.03500,-0.41600,0.16000,-0.54000,188.29000,-0.10000
201125_15.30.06.230,-0.00400,-0.02000,1.00200,0.07000,-0.14000,0.00000,-0.41200,0.15600,-0.54800,188.46000,0.17000
201125_15.30.06.242,-0.00300,-0.01800,1.00100,0.07000,-0.10500,-0.01800,-0.41500,0.15800,-0.54500,188.60000,0.14000
201125_15.30.06.253,-0.00500,-0.01800,1.00000,0.07000,-0.12300,-0.03500,-0.41600,0.15700,-0.54400,188.86000,0.26000
201125_15.30.06.265,-0.00400,-0.01800,1.00100,0.05300,-0.12300,-0.01800,-0.41400,0.15900,-0.54700,188.73000,-0.13000
201125_15.30.06.276,-0.00400,-0.01800,0.99900,0.08700,-0.12300,-0.01800,-0.41400,0.15500,-0.54900,188.25000,-0.48000
201125_15.30.06.287,-0.00400,-0.01800,1.00000,0.08700,-0.14000,-0.01800,-0.41500,0.16000,-0.54200,188.24000,-0.01000
201125_15.30.06.298,-0.00400,-0.01900,0.99900,0.07000,-0.12300,-0.01800,-0.41400,0.16000,-0.54500,188.00000,-0.24000
201125_15.30.06.309,-0.00400,-0.01800,0.99600,0.07000,-0.10500,-0.01800,-0.42100,0.16000,-0.54900,188.76000,0.76000
201125_15.30.06.321,-0.00300,-0.01800,1.00300,0.07000,-0.15700,-0.03500,-0.41400,0.15800,-0.54500,188.69000,-0.07000
201125_15.30.06.333,-0.00400,-0.01800,0.99900,0.10500,-0.10500,-0.01800,-0.41500,0.15800,-0.54500,188.30000,-0.39000
201125_15.30.06.344,-0.00400,-0.01900,1.00100,0.08700,-0.12300,-0.01800,-0.41700,0.15600,-0.54600,188.44000,0.14000
201125_15.30.06.356,-0.00300,-0.01900,1.00400,0.08700,-0.12300,-0.01800,-0.42000,0.15900,-0.54300,188.28000,-0.16000
201125_15.30.06.367,-0.00300,-0.01800,0.99800,0.07000,-0.12300,0.00000,-0.41900,0.15800,-0.54400,188.70000,0.42000
201125_15.30.06.379,-0.00500,-0.01800,1.00000,0.08700,-0.15700,-0.03500,-0.41700,0.15500,-0.54000,188.13000,-0.57000
201125_15.30.06.390,-0.00300,-0.01700,1.00200,0.07000,-0.12300,-0.01800,-0.41700,0.15600,-0.54500,188.17000,0.04000
201125_15.30.06.401,-0.00300,-0.01800,1.00000,0.08700,-0.12300,0.00000,-0.41800,0.15600,-0.54400,188.50000,0.33000
201125_15.30.06.412,-0.00400,-0.01800,1.00000,0.05300,-0.12300,-0.03500,-0.42000,0.15900,-0.54600,187.94000,-0.56000
201125_15.30.06.424,-0.00500,-0.01800,1.00000,0.07000,-0.10500,-0.01800,-0.42300,0.15900,-0.54400,188.89000,0.95000
201125_15.30.06.435,-0.00400,-0.01700,0.99900,0.08700,-0.10500,-0.01800,-0.42000,0.15900,-0.54200,188.30000,-0.59000
201125_15.30.06.446,-0.00300,-0.01900,1.00100,0.07000,-0.12300,-0.01800,-0.42500,0.15900,-0.53800,188.84000,0.54000
201125_15.30.06.457,-0.00300,-0.01700,1.00100,0.08700,-0.12300,0.00000,-0.42100,0.15500,-0.54100,188.14000,-0.70000
201125_15.30.06.469,-0.00400,-0.01700,0.99900,0.07000,-0.10500,-0.01800,-0.42100,0.15800,-0.53700,188.52000,0.38000
201125_15.30.06.480,-0.00300,-0.01900,1.00000,0.07000,-0.10500,-0.01800,-0.41800,0.15600,-0.54100,188.54000,0.02000
201125_15.30.06.491,-0.00500,-0.01800,1.00100,0.08700,-0.10500,-0.01800,-0.41800,0.15900,-0.53700,188.91000,0.37000
201125_15.30.06.502,-0.00300,-0.01700,0.99900,0.08700,-0.12300,-0.03500,-0.41700,0.15600,-0.54600,187.86000,-1.05000
201125_15.30.06.514,-0.00500,-0.01800,1.00100,0.07000,-0.14000,-0.03500,-0.41900,0.15800,-0.54100,188.21000,0.35000
201125_15.30.06.525,-0.00400,-0.01700,0.99900,0.08700,-0.12300,-0.01800,-0.42300,0.16300,-0.53900,188.64000,0.43000
201125_15.30.06.536,-0.00400,-0.01800,0.99900,0.08700,-0.10500,-0.01800,-0.42000,0.15700,-0.54100,188.08000,-0.56000
201125_15.30.06.548,-0.00300,-0.01900,1.00000,0.10500,-0.12300,-0.01800,-0.42300,0.16300,-0.53800,188.49000,0.41000
201125_15.30.06.559,-0.00500,-0.01900,1.00000,0.07000,-0.14000,-0.03500,-0.42000,0.15900,-0.54000,187.94000,-0.55000
201125_15.30.06.571,-0.00400,-0.01800,1.00000,0.07000,-0.14000,-0.03500,-0.41500,0.16000,-0.53600,188.16000,0.22000
201125_15.30.06.583,-0.00300,-0.01800,1.00100,0.10500,-0.12300,-0.01800,-0.42000,0.15800,-0.53700,188.45000,0.29000
201125_15.30.06.594,-0.00300,-0.01700,0.99900,0.07000,-0.10500,-0.03500,-0.41800,0.16100,-0.53900,188.29000,-0.16000
201125_15.30.06.605,-0.00300,-0.01800,1.00100,0.08700,-0.12300,-0.03500,-0.42000,0.15800,-0.54100,189.17000,0.88000
201125_15.30.06.617,-0.00400,-0.01700,1.00100,0.08700,-0.10500,-0.01800,-0.42000,0.16000,-0.54400,189.20000,0.03000
201125_15.30.06.629,-0.00400,-0.01800,1.00000,0.07000,-0.10500,-0.01800,-0.41600,0.15900,-0.54600,188.13000,-1.07000
201125_15.30.06.640,-0.00400,-0.01800,1.00000,0.07000,-0.12300,-0.03500,-0.41900,0.16000,-0.54100,188.11000,-0.02000
201125_15.30.06.651,-0.00400,-0.01800,1.00100,0.08700,-0.10500,-0.01800,-0.41500,0.16200,-0.54400,188.05000,-0.06000
201125_15.30.06.663,-0.00400,-0.01700,1.00000,0.07000,-0.12300,0.00000,-0.41200,0.16200,-0.53800,188.19000,0.14000
201125_15.30.06.674,-0.00500,-0.01800,1.00000,0.08700,-0.14000,-0.01800,-0.41400,0.16300,-0.54300,188.15000,-0.04000
201125_15.30.06.686,-0.00400,-0.01800,1.00100,0.08700,-0.14000,-0.03500,-0.41600,0.15900,-0.54000,188.37000,0.22000
201125_15.30.06.698,-0.00300,-0.01700,1.00000,0.07000,-0.10500,-0.03500,-0.41900,0.16300,-0.54200,188.18000,-0.19000
201125_15.30.06.709,-0.00400,-0.01800,0.99900,0.03500,-0.12300,-0.01800,-0.41500,0.16300,-0.54200,188.41000,0.23000
201125_15.30.06.720,-0.00300,-0.01800,1.00000,0.08700,-0.12300,-0.01800,-0.41900,0.16000,-0.54500,187.61000,-0.80000
201125_15.30.06.732,-0.00400,-0.01800,1.00100,0.08700,-0.10500,-0.03500,-0.41600,0.16000,-0.54500,188.33000,0.72000
201125_15.30.06.743,-0.00400,-0.01800,0.99900,0.08700,-0.14000,-0.03500,-0.42000,0.15900,-0.53900,188.70000,0.37000
201125_15.30.06.755,-0.00400,-0.01700,1.00000,0.10500,-0.12300,-0.03500,-0.41700,0.16000,-0.53500,188.45000,-0.25000
201125_15.30.06.766,-0.00500,-0.01700,0.99900,0.08700,-0.10500,-0.03500,-0.42500,0.16300,-0.54200,188.23000,-0.22000
201125_15.30.06.777,-0.00400,-0.01900,1.00000,0.07000,-0.10500,-0.01800,-0.42400,0.16100,-0.54000,188.40000,0.17000
201125_15.30.06.789,-0.00400,-0.01800,0.99900,0.07000,-0.12300,-0.03500,-0.42100,0.16500,-0.54200,188.52000,0.12000
201125_15.30.06.800,-0.00300,-0.01800,1.00100,0.08700,-0.10500,-0.03500,-0.41800,0.16500,-0.53400,188.53000,0.01000
201125_15.30.06.811,-0.00300,-0.01700,0.99900,0.10500,-0.10500,0.00000,-0.41900,0.16200,-0.54100,187.87000,-0.66000
201125_15.30.06.823,-0.00300,-0.01800,0.99800,0.07000,-0.14000,-0.01800,-0.42200,0.16200,-0.53700,188.14000,0.27000
201125_15.30.06.834,-0.00400,-0.01800,1.00000,0.10500,-0.14000,-0.03500,-0.41900,0.15700,-0.53900,188.55000,0.41000
201125_15.30.06.846,-0.00200,-0.01700,0.99600,0.05300,-0.10500,-0.03500,-0.42000,0.15700,-0.54100,188.38000,-0.17000
201125_15.30.06.857,-0.00300,-0.01700,1.00100,0.07000,-0.12300,-0.01800,-0.42200,0.15900,-0.54000,189.04000,0.66000
201125_15.30.06.868,-0.00400,-0.01700,0.99700,0.07000,-0.08700,-0.01800,-0.42000,0.15800,-0.54000,188.83000,-0.21000
201125_15.30.06.879,-0.00300,-0.01800,0.99700,0.08700,-0.10500,-0.01800,-0.42400,0.15800,-0.53600,188.93000,0.10000
201125_15.30.06.891,-0.00300,-0.01800,0.99700,0.07000,-0.12300,-0.01800,-0.42400,0.16000,-0.53400,188.18000,-0.75000
201125_15.30.06.902,-0.00300,-0.01800,0.99900,0.05300,-0.12300,-0.01800,-0.42200,0.16000,-0.53600,188.49000,0.31000
201125_15.30.06.914,-0.00400,-0.01800,0.99800,0.05300,-0.12300,-0.03500,-0.42300,0.15800,-0.54000,188.57000,0.08000
201125_15.30.06.925,-0.00300,-0.01800,1.00100,0.08700,-0.12300,-0.05300,-0.42000,0.15900,-0.53500,188.02000,-0.55000
201125_15.30.06.937,-0.00500,-0.01700,1.00100,0.07000,-0.10500,-0.03500,-0.42100,0.16000,-0.53600,187.38000,-0.64000
201125_15.30.06.948,-0.00400,-0.01900,0.99800,0.07000,-0.10500,-0.01800,-0.41900,0.15900,-0.53100,188.40000,1.02000
201125_15.30.06.960,-0.00500,-0.01800,1.00100,0.05300,-0.10500,-0.03500,-0.41800,0.16000,-0.53400,188.57000,0.17000
201125_15.30.06.972,-0.00400,-0.01800,1.00100,0.07000,-0.12300,-0.03500,-0.42100,0.15900,-0.53300,188.62000,0.05000
201125_15.30.06.983,-0.00200,-0.01800,1.00000,0.05300,-0.10500,-0.01800,-0.41900,0.15700,-0.54200,188.57000,-0.05000
201125_15.30.06.994,-0.00500,-0.01800,0.99900,0.08700,-0.12300,-0.01800,-0.41800,0.15900,-0.53800,188.12000,-0.45000
201125_15.30.07.005,-0.00300,-0.01800,1.00100,0.07000,-0.10500,-0.03500,-0.41700,0.16100,-0.53400,188.90000,0.78000
201125_15.30.07.017,-0.00500,-0.01900,1.00100,0.07000,-0.10500,-0.03500,-0.42000,0.16000,-0.53100,188.18000,-0.72000
201125_15.30.07.028,-0.00300,-0.01700,1.00000,0.07000,-0.12300,-0.01800,-0.41700,0.15900,-0.54000,188.44000,0.26000
201125_15.30.07.039,-0.00400,-0.01800,1.00000,0.07000,-0.14000,-0.01800,-0.42000,0.16100,-0.54100,188.28000,-0.16000
201125_15.30.07.051,-0.00300,-0.01700,1.00000,0.07000,-0.12300,-0.01800,-0.41700,0.16400,-0.54000,187.78000,-0.50000
201125_15.30.07.062,-0.00400,-0.01800,1.00000,0.08700,-0.14000,-0.03500,-0.41900,0.16100,-0.53800,188.29000,0.51000
201125_15.30.07.074,-0.00300,-0.01900,1.00000,0.07000,-0.12300,-0.03500,-0.42300,0.15600,-0.53800,188.31000,0.02000
201125_15.30.07.085,-0.00200,-0.01800,1.00100,0.05300,-0.10500,-0.03500,-0.42200,0.15500,-0.54200,188.85000,0.54000
201125_15.30.07.097,-0.00400,-0.01700,1.00000,0.07000,-0.10500,-0.01800,-0.42000,0.16000,-0.53500,188.60000,-0.25000
201125_15.30.07.108,-0.00500,-0.01800,1.00000,0.07000,-0.12300,-0.01800,-0.42000,0.15500,-0.53800,188.27000,-0.33000
201125_15.30.07.120,-0.00300,-0.01700,0.99900,0.08700,-0.12300,-0.01800,-0.42100,0.16000,-0.53800,187.88000,-0.39000
201125_15.30.07.131,-0.00400,-0.01900,1.00000,0.10500,-0.12300,-0.01800,-0.41900,0.15800,-0.53600,188.35000,0.47000
201125_15.30.07.143,-0.00200,-0.01700,1.00100,0.08700,-0.10500,-0.01800,-0.41800,0.16100,-0.53700,188.04000,-0.31000
201125_15.30.07.154,-0.00300,-0.01700,1.00000,0.07000,-0.12300,-0.01800,-0.41700,0.16000,-0.53600,188.94000,0.90000
201125_15.30.07.165,-0.00500,-0.01800,0.99900,0.07000,-0.12300,-0.03500,-0.42200,0.15700,-0.54000,188.23000,-0.71000
201125_15.30.07.177,-0.00300,-0.01800,0.99800,0.07000,-0.14000,-0.01800,-0.42100,0.15900,-0.54200,188.18000,-0.05000
201125_15.30.07.189,-0.00200,-0.01800,1.00100,0.08700,-0.12300,-0.01800,-0.42100,0.15200,-0.53900,188.42000,0.24000
201125_15.30.07.200,-0.00500,-0.01800,0.99900,0.07000,-0.14000,-0.01800,-0.42000,0.15500,-0.54000,188.05000,-0.37000
201125_15.30.07.212,-0.00300,-0.01900,1.00200,0.08700,-0.10500,-0.01800,-0.42100,0.15800,-0.53300,187.72000,-0.33000
201125_15.30.07.223,-0.00300,-0.01900,1.00000,0.05300,-0.12300,-0.03500,-0.42200,0.16200,-0.54100,188.50000,0.78000
201125_15.30.07.235,-0.00400,-0.01700,1.00000,0.07000,-0.12300,-0.01800,-0.42000,0.16100,-0.53400,188.68000,0.18000
201125_15.30.07.246,-0.00300,-0.01700,1.00000,0.07000,-0.12300,-0.01800,-0.41900,0.15900,-0.54100,188.85000,0.17000
201125_15.30.07.257,-0.00300,-0.01800,1.00000,0.07000,-0.14000,-0.01800,-0.42300,0.16300,-0.53900,188.99000,0.14000
201125_15.30.07.269,-0.00400,-0.01700,1.00000,0.08700,-0.12300,-0.01800,-0.42000,0.16000,-0.53200,188.58000,-0.41000
201125_15.30.07.280,-0.00400,-0.01800,1.00000,0.08700,-0.10500,-0.01800,-0.42100,0.16400,-0.53700,188.21000,-0.37000
201125_15.30.07.291,-0.00400,-0.01900,1.00000,0.07000,-0.10500,-0.01800,-0.42100,0.16300,-0.54300,188.18000,-0.03000
201125_15.30.07.302,-0.00400,-0.01900,1.00100,0.07000,-0.12300,-0.01800,-0.42000,0.16100,-0.54300,188.52000,0.34000
201125_15.30.07.313,-0.00300,-0.01800,1.00000,0.07000,-0.12300,-0.01800,-0.41800,0.16300,-0.53800,188.33000,-0.19000
201125_15.30.07.325,-0.00400,-0.01800,1.00000,0.07000,-0.12300,-0.01800,-0.41800,0.16000,-0.53800,188.62000,0.29000
201125_15.30.07.336,-0.00400,-0.01800,1.00100,0.07000,-0.10500,-0.03500,-0.42000,0.16200,-0.53700,188.55000,-0.07000
201125_15.30.07.348,-0.00400,-0.01700,1.00000,0.05300,-0.10500,-0.03500,-0.42200,0.16200,-0.53800,188.69000,0.14000
201125_15.30.07.359,-0.00400,-0.01800,1.00000,0.07000,-0.12300,-0.03500,-0.42200,0.16300,-0.54000,188.47000,-0.22000
201125_15.30.07.370,-0.00400,-0.01800,1.00000,0.07000,-0.10500,-0.01800,-0.42400,0.16000,-0.54100,188.69000,0.22000
201125_15.30.07.382,-0.00300,-0.01800,1.00100,0.08700,-0.10500,-0.01800,-0.41800,0.16000,-0.53900,188.59000,-0.10000
201125_15.30.07.393,-0.00400,-0.01800,0.99900,0.07000,-0.14000,-0.01800,-0.41300,0.16000,-0.53900,188.28000,-0.31000
201125_15.30.07.405,-0.00400,-0.01800,0.99900,0.08700,-0.14000,-0.03500,-0.42100,0.16000,-0.54000,188.12000,-0.16000
201125_15.30.07.416,-0.00400,-0.01800,1.00100,0.05300,-0.10500,-0.03500,-0.41700,0.16200,-0.54200,187.61000,-0.51000
201125_15.30.07.427,-0.00400,-0.01900,0.99900,0.05300,-0.14000,-0.03500,-0.42200,0.15800,-0.53800,188.12000,0.51000
201125_15.30.07.438,-0.00300,-0.01900,1.00100,0.07000,-0.10500,-0.05300,-0.42100,0.16100,-0.53700,188.42000,0.30000
201125_15.30.07.450,-0.00300,-0.01800,1.00100,0.07000,-0.12300,0.00000,-0.41600,0.15500,-0.54600,188.76000,0.34000
201125_15.30.07.461,-0.00300,-0.01700,1.00000,0.07000,-0.12300,-0.03500,-0.41800,0.15900,-0.54500,188.30000,-0.46000
201125_15.30.07.473,-0.00300,-0.01800,1.00100,0.05300,-0.10500,-0.03500,-0.41800,0.15800,-0.54200,188.40000,0.10000
201125_15.30.07.484,-0.00500,-0.01800,1.00100,0.07000,-0.12300,-0.01800,-0.41500,0.16000,-0.54100,187.95000,-0.45000
201125_15.30.07.496,-0.00400,-0.01800,1.00000,0.08700,-0.12300,-0.01800,-0.41500,0.15900,-0.54600,187.87000,-0.08000
201125_15.30.07.507,-0.00500,-0.01800,1.00000,0.07000,-0.12300,-0.03500,-0.41400,0.16300,-0.54100,188.98000,1.11000
201125_15.30.07.518,-0.00500,-0.01800,1.00000,0.08700,-0.10500,-0.03500,-0.42000,0.16100,-0.54500,188.09000,-0.89000
201125_15.30.07.529,-0.00300,-0.01900,1.00100,0.08700,-0.10500,-0.01800,-0.41700,0.16100,-0.54200,188.63000,0.54000
201125_15.30.07.540,-0.00300,-0.01700,0.99900,0.08700,-0.12300,-0.05300,-0.42600,0.16600,-0.54700,188.54000,-0.09000
201125_15.30.07.552,-0.00300,-0.01700,1.00000,0.08700,-0.10500,-0.01800,-0.41900,0.15900,-0.54900,187.67000,-0.87000
201125_15.30.07.563,-0.00300,-0.01900,0.99900,0.08700,-0.12300,-0.03500,-0.42000,0.16400,-0.54500,187.86000,0.19000
201125_15.30.07.575,-0.00400,-0.01800,1.00000,0.07000,-0.12300,-0.01800,-0.42000,0.16200,-0.53900,188.78000,0.92000
201125_15.30.07.586,-0.00400,-0.01900,1.00000,0.07000,-0.12300,-0.01800,-0.41900,0.16100,-0.54400,187.90000,-0.88000
201125_15.30.07.597,-0.00400,-0.01900,0.99900,0.08700,-0.12300,-0.01800,-0.41800,0.16100,-0.54000,188.60000,0.70000
201125_15.30.07.608,-0.00300,-0.01800,1.00100,0.08700,-0.14000,-0.01800,-0.41600,0.16300,-0.53300,188.67000,0.07000
201125_15.30.07.620,-0.00400,-0.01800,1.00000,0.07000,-0.14000,-0.03500,-0.41600,0.16100,-0.53900,188.60000,-0.07000
201125_15.30.07.631,-0.00300,-0.01700,1.00100,0.07000,-0.10500,-0.01800,-0.41500,0.15800,-0.54100,188.12000,-0.48000
201125_15.30.07.642,-0.00500,-0.01900,0.99900,0.07000,-0.10500,-0.01800,-0.41700,0.16200,-0.54300,188.07000,-0.05000
201125_15.30.07.653,-0.00400,-0.01800,0.99800,0.10500,-0.12300,-0.01800,-0.42000,0.16100,-0.53600,188.50000,0.43000
201125_15.30.07.664,-0.00500,-0.01700,0.99800,0.10500,-0.12300,-0.03500,-0.41700,0.16000,-0.54000,188.10000,-0.40000
201125_15.30.07.676,-0.00400,-0.01800,0.99700,0.08700,-0.14000,-0.05300,-0.42200,0.15900,-0.53800,188.75000,0.65000
201125_15.30.07.687,-0.00300,-0.01800,1.00100,0.07000,-0.10500,-0.03500,-0.41700,0.16100,-0.54500,188.18000,-0.57000
201125_15.30.07.699,-0.00300,-0.01700,0.99700,0.05300,-0.14000,-0.03500,-0.41700,0.16300,-0.54500,188.47000,0.29000
201125_15.30.07.710,-0.00400,-0.01700,1.00000,0.07000,-0.12300,0.00000,-0.42100,0.15900,-0.54500,188.66000,0.19000
201125_15.30.07.721,-0.00500,-0.01800,0.99900,0.07000,-0.12300,0.00000,-0.41700,0.16200,-0.54100,187.73000,-0.93000
201125_15.30.07.733,-0.00500,-0.01900,1.00000,0.07000,-0.10500,0.00000,-0.42200,0.16400,-0.54400,187.92000,0.19000
201125_15.30.07.744,-0.00300,-0.01700,0.99900,0.05300,-0.08700,-0.03500,-0.42300,0.16400,-0.54000,188.13000,0.21000
201125_15.30.07.755,-0.00400,-0.01800,0.99900,0.08700,-0.10500,-0.03500,-0.41900,0.15800,-0.54800,187.92000,-0.21000
201125_15.30.07.767,-0.00400,-0.01900,0.99900,0.07000,-0.14000,-0.01800,-0.42400,0.16400,-0.54300,188.23000,0.31000
201125_15.30.07.778,-0.00300,-0.01900,1.00000,0.07000,-0.10500,-0.03500,-0.42100,0.16000,-0.54400,188.44000,0.21000
201125_15.30.07.789,-0.00400,-0.01800,1.00100,0.07000,-0.12300,-0.01800,-0.41800,0.15800,-0.54400,188.17000,-0.27000
201125_15.30.07.800,-0.00400,-0.01800,1.00100,0.07000,-0.12300,-0.03500,-0.41600,0.15700,-0.54000,188.58000,0.41000
201125_15.30.07.812,-0.00400,-0.01700,0.99900,0.07000,-0.10500,-0.03500,-0.41900,0.16100,-0.54000,188.92000,0.34000
201125_15.30.07.823,-0.00300,-0.01800,1.00000,0.08700,-0.10500,-0.03500,-0.41600,0.16100,-0.54200,188.70000,-0.22000
201125_15.30.07.834,-0.00300,-0.01900,0.99900,0.07000,-0.12300,-0.01800,-0.41300,0.16000,-0.54100,187.83000,-0.87000
201125_15.30.07.846,-0.00500,-0.01700,1.00000,0.05300,-0.12300,-0.03500,-0.41600,0.16200,-0.55000,188.46000,0.63000
201125_15.30.07.857,-0.00400,-0.01700,0.99900,0.07000,-0.10500,-0.01800,-0.41700,0.16300,-0.54300,187.92000,-0.54000
201125_15.30.07.868,-0.00400,-0.01800,1.00000,0.08700,-0.14000,-0.01800,-0.42000,0.16100,-0.54200,187.90000,-0.02000
201125_15.30.07.879,-0.00400,-0.01800,0.99900,0.10500,-0.12300,-0.03500,-0.41800,0.15700,-0.53300,188.15000,0.25000
201125_15.30.07.891,-0.00400,-0.01800,1.00100,0.08700,-0.12300,-0.01800,-0.41900,0.15700,-0.53800,188.93000,0.78000
201125_15.30.07.902,-0.00200,-0.01800,0.99900,0.07000,-0.10500,-0.03500,-0.41400,0.15700,-0.53400,188.53000,-0.40000
201125_15.30.07.913,-0.00300,-0.01800,0.99800,0.08700,-0.12300,-0.03500,-0.42000,0.15700,-0.53500,188.52000,-0.01000
201125_15.30.07.925,-0.00400,-0.01800,1.00200,0.10500,-0.14000,-0.01800,-0.41800,0.15800,-0.54400,188.31000,-0.21000
201125_15.30.07.936,-0.00200,-0.01800,0.99900,0.08700,-0.12300,-0.01800,-0.41900,0.16000,-0.53800,188.26000,-0.05000
201125_15.30.07.947,-0.00400,-0.01900,1.00100,0.08700,-0.12300,-0.01800,-0.42000,0.15700,-0.53800,188.70000,0.44000
201125_15.30.07.959,-0.00500,-0.01700,0.99900,0.08700,-0.10500,-0.03500,-0.41900,0.15800,-0.53400,188.47000,-0.23000
201125_15.30.07.970,-0.00400,-0.01900,1.00100,0.07000,-0.12300,-0.03500,-0.41800,0.15300,-0.53600,188.45000,-0.02000
201125_15.30.07.982,-0.00400,-0.01700,1.00000,0.07000,-0.12300,-0.03500,-0.41600,0.15900,-0.54300,188.22000,-0.23000
201125_15.30.07.993,-0.00300,-0.01800,1.00100,0.07000,-0.12300,-0.03500,-0.41800,0.15800,-0.53500,188.82000,0.60000
201125_15.30.08.005,-0.00500,-0.01800,0.99800,0.07000,-0.12300,-0.05300,-0.42100,0.15800,-0.53200,188.52000,-0.30000
201125_15.30.08.016,-0.00400,-0.01800,1.00000,0.05300,-0.12300,-0.01800,-0.41900,0.15900,-0.53900,187.80000,-0.72000
201125_15.30.08.027,-0.00400,-0.01800,1.00100,0.07000,-0.12300,-0.03500,-0.41600,0.15800,-0.54400,188.33000,0.53000
201125_15.30.08.038,-0.00300,-0.01800,1.00000,0.07000,-0.12300,-0.05300,-0.41800,0.15900,-0.54400,188.60000,0.27000
201125_15.30.08.049,-0.00300,-0.01800,1.00000,0.08700,-0.10500,-0.01800,-0.42100,0.16000,-0.53200,188.60000,0.00000
201125_15.30.08.061,-0.00400,-0.01800,1.00000,0.10500,-0.12300,-0.01800,-0.42400,0.15700,-0.53500,188.16000,-0.44000
201125_15.30.08.072,-0.00300,-0.01800,1.00100,0.07000,-0.14000,-0.03500,-0.42400,0.15800,-0.53800,187.88000,-0.28000
201125_15.30.08.083,-0.00400,-0.01800,1.00000,0.08700,-0.12300,-0.03500,-0.42000,0.15600,-0.53300,188.55000,0.67000
201125_15.30.08.095,-0.00400,-0.01800,0.99800,0.08700,-0.12300,-0.01800,-0.41800,0.15600,-0.53800,187.71000,-0.84000
201125_15.30.08.106,-0.00400,-0.01800,1.00100,0.08700,-0.14000,-0.01800,-0.41700,0.15600,-0.53600,188.03000,0.32000
201125_15.30.08.117,-0.00400,-0.01800,1.00100,0.08700,-0.12300,-0.03500,-0.41700,0.15900,-0.53700,188.11000,0.08000
201125_15.30.08.129,-0.00400,-0.01800,1.00100,0.07000,-0.12300,-0.01800,-0.41900,0.15600,-0.53500,188.32000,0.21000
201125_15.30.08.140,-0.00400,-0.01800,1.00100,0.07000,-0.10500,-0.01800,-0.41700,0.16000,-0.53100,188.30000,-0.02000
201125_15.30.08.152,-0.00400,-0.01700,0.99900,0.08700,-0.12300,-0.03500,-0.42000,0.16000,-0.53500,187.89000,-0.41000
201125_15.30.08.163,-0.00300,-0.01800,0.99900,0.08700,-0.12300,-0.01800,-0.41800,0.16200,-0.54200,187.86000,-0.03000
201125_15.30.08.174,-0.00400,-0.01800,1.00100,0.08700,-0.12300,-0.01800,-0.41600,0.15700,-0.53500,188.65000,0.79000
201125_15.30.08.186,-0.00400,-0.01900,0.99900,0.07000,-0.12300,-0.03500,-0.41800,0.15700,-0.54000,188.14000,-0.51000
201125_15.30.08.197,-0.00300,-0.01900,1.00000,0.10500,-0.12300,-0.03500,-0.42000,0.15900,-0.53700,188.22000,0.08000
201125_15.30.08.208,-0.00500,-0.01900,1.00100,0.08700,-0.14000,-0.01800,-0.41500,0.16000,-0.54100,188.07000,-0.15000
201125_15.30.08.220,-0.00300,-0.01700,0.99900,0.05300,-0.12300,-0.03500,-0.41900,0.15800,-0.54100,188.74000,0.67000
201125_15.30.08.231,-0.00400,-0.01900,1.00000,0.07000,-0.12300,-0.03500,-0.41600,0.15800,-0.53000,188.16000,-0.58000
201125_15.30.08.243,-0.00500,-0.01800,0.99900,0.08700,-0.14000,-0.03500,-0.41900,0.15500,-0.53400,187.85000,-0.31000
201125_15.30.08.254,-0.00500,-0.01900,1.00100,0.08700,-0.12300,-0.01800,-0.41500,0.15700,-0.53900,189.22000,1.37000
201125_15.30.08.266,-0.00400,-0.01800,0.99900,0.07000,-0.10500,-0.03500,-0.41900,0.15800,-0.53900,188.00000,-1.22000
201125_15.30.08.278,-0.00300,-0.01800,1.00100,0.08700,-0.08700,-0.01800,-0.41600,0.16000,-0.53800,188.57000,0.57000
201125_15.30.08.289,-0.00400,-0.01800,1.00100,0.05300,-0.14000,-0.01800,-0.41600,0.16000,-0.53300,188.49000,-0.08000
201125_15.30.08.300,-0.00300,-0.01800,1.00100,0.05300,-0.12300,-0.01800,-0.42000,0.15900,-0.53600,187.98000,-0.51000
201125_15.30.08.311,-0.00300,-0.01800,1.00100,0.07000,-0.10500,-0.01800,-0.41700,0.16200,-0.53300,188.51000,0.53000
201125_15.30.08.323,-0.00400,-0.01800,1.00000,0.08700,-0.10500,-0.03500,-0.42100,0.15900,-0.53500,188.47000,-0.04000
201125_15.30.08.334,-0.00400,-0.01800,1.00000,0.08700,-0.12300,-0.03500,-0.41800,0.15900,-0.53900,188.62000,0.15000
201125_15.30.08.345,-0.00400,-0.01800,1.00000,0.07000,-0.12300,-0.01800,-0.41700,0.15900,-0.53500,187.79000,-0.83000
201125_15.30.08.356,-0.00500,-0.01900,1.00100,0.05300,-0.12300,-0.03500,-0.41600,0.16200,-0.53800,188.35000,0.56000
201125_15.30.08.368,-0.00400,-0.01700,0.99900,0.08700,-0.10500,-0.03500,-0.42200,0.16000,-0.54100,187.94000,-0.41000
201125_15.30.08.380,-0.00400,-0.01800,1.00100,0.10500,-0.12300,-0.03500,-0.41700,0.16000,-0.54100,188.40000,0.46000
201125_15.30.08.391,-0.00400,-0.01700,1.00100,0.08700,-0.15700,-0.01800,-0.41600,0.16000,-0.54000,188.37000,-0.03000
201125_15.30.08.403,-0.00300,-0.01800,1.00000,0.08700,-0.14000,-0.01800,-0.41600,0.16000,-0.54300,188.53000,0.16000
201125_15.30.08.414,-0.00400,-0.01800,1.00000,0.07000,-0.14000,-0.03500,-0.41500,0.15500,-0.54400,188.73000,0.20000
201125_15.30.08.425,-0.00300,-0.01900,0.99900,0.07000,-0.12300,0.00000,-0.41000,0.15600,-0.54300,188.78000,0.05000
201125_15.30.08.437,-0.00400,-0.01800,1.00000,0.07000,-0.10500,-0.03500,-0.41300,0.16200,-0.53800,188.07000,-0.71000
201125_15.30.08.448,-0.00500,-0.01700,1.00000,0.07000,-0.10500,-0.03500,-0.41100,0.15500,-0.54200,188.60000,0.53000
201125_15.30.08.459,-0.00300,-0.01900,1.00100,0.05300,-0.12300,-0.03500,-0.41600,0.15700,-0.54200,188.46000,-0.14000
201125_15.30.08.471,-0.00400,-0.01900,0.99900,0.07000,-0.12300,-0.05300,-0.41800,0.16100,-0.54000,188.06000,-0.40000
201125_15.30.08.482,-0.00400,-0.01800,1.00000,0.05300,-0.10500,-0.03500,-0.41700,0.16000,-0.54100,188.64000,0.58000
201125_15.30.08.494,-0.00300,-0.01800,1.00000,0.07000,-0.10500,-0.03500,-0.41300,0.16000,-0.54000,187.91000,-0.73000
201125_15.30.08.505,-0.00400,-0.01800,1.00100,0.07000,-0.14000,-0.03500,-0.41600,0.16200,-0.54500,188.58000,0.67000
201125_15.30.08.516,-0.00400,-0.01900,0.99900,0.08700,-0.14000,-0.01800,-0.41800,0.15900,-0.53800,188.93000,0.35000
201125_15.30.08.527,-0.00400,-0.01800,1.00000,0.08700,-0.12300,-0.01800,-0.41500,0.16200,-0.53300,188.39000,-0.54000
201125_15.30.08.538,-0.00400,-0.01800,1.00000,0.10500,-0.10500,0.00000,-0.41400,0.16400,-0.54100,188.05000,-0.34000
201125_15.30.08.549,-0.00400,-0.01800,1.00000,0.08700,-0.12300,-0.01800,-0.41500,0.16200,-0.54000,188.35000,0.30000
201125_15.30.08.560,-0.00300,-0.01800,1.00000,0.07000,-0.12300,-0.01800,-0.41600,0.15900,-0.53800,188.13000,-0.22000
201125_15.30.08.572,-0.00400,-0.01800,1.00000,0.08700,-0.14000,-0.03500,-0.41600,0.16300,-0.54100,187.98000,-0.15000
201125_15.30.08.583,-0.00300,-0.01800,1.00000,0.07000,-0.10500,-0.03500,-0.41900,0.16300,-0.53800,188.11000,0.13000
201125_15.30.08.595,-0.00300,-0.01800,1.00000,0.10500,-0.10500,-0.03500,-0.41400,0.16500,-0.53400,187.92000,-0.19000
201125_15.30.08.606,-0.00400,-0.01900,1.00000,0.07000,-0.12300,-0.03500,-0.41800,0.16300,-0.53700,188.70000,0.78000
201125_15.30.08.617,-0.00400,-0.01800,1.00000,0.07000,-0.14000,-0.03500,-0.41500,0.16300,-0.54000,188.27000,-0.43000
201125_15.30.08.629,-0.00400,-0.01800,1.00000,0.07000,-0.12300,-0.03500,-0.41600,0.16100,-0.53900,188.24000,-0.03000
201125_15.30.08.640,-0.00400,-0.01800,1.00000,0.08700,-0.10500,0.00000,-0.41700,0.16000,-0.54000,187.88000,-0.36000
201125_15.30.08.651,-0.00300,-0.01800,1.00000,0.08700,-0.12300,-0.03500,-0.42000,0.15900,-0.54100,188.31000,0.43000
201125_15.30.08.663,-0.00500,-0.01800,1.00000,0.08700,-0.14000,-0.01800,-0.41800,0.16000,-0.53900,187.98000,-0.33000
201125_15.30.08.675,-0.00300,-0.01800,1.00000,0.08700,-0.14000,-0.03500,-0.41700,0.15700,-0.53000,188.66000,0.68000
201125_15.30.08.686,-0.00500,-0.01900,1.00000,0.07000,-0.10500,-0.03500,-0.42100,0.15900,-0.53600,188.05000,-0.61000
201125_15.30.08.697,-0.00300,-0.01800,1.00000,0.07000,-0.14000,-0.01800,-0.41400,0.15800,-0.53400,188.65000,0.60000
201125_15.30.08.708,-0.00400,-0.01700,1.00000,0.07000,-0.12300,-0.01800,-0.41400,0.15700,-0.53800,188.53000,-0.12000
201125_15.30.08.719,-0.00400,-0.01800,1.00200,0.07000,-0.12300,-0.03500,-0.41500,0.15700,-0.53900,188.64000,0.11000
201125_15.30.08.730,-0.00500,-0.01700,0.99800,0.07000,-0.10500,-0.03500,-0.41700,0.15800,-0.53000,188.54000,-0.10000
201125_15.30.08.742,-0.00300,-0.01900,1.00100,0.07000,-0.12300,-0.01800,-0.42000,0.16000,-0.53500,188.56000,0.02000
201125_15.30.08.754,-0.00400,-0.01800,1.00000,0.05300,-0.12300,-0.03500,-0.41700,0.15600,-0.53700,188.62000,0.06000
201125_15.30.08.765,-0.00400,-0.01800,1.00100,0.07000,-0.12300,-0.03500,-0.41700,0.15900,-0.53500,188.40000,-0.22000
201125_15.30.08.776,-0.00300,-0.01800,1.00000,0.07000,-0.12300,-0.01800,-0.41300,0.15700,-0.53900,188.40000,0.00000
201125_15.30.08.788,-0.00400,-0.01700,1.00000,0.07000,-0.10500,-0.01800,-0.41700,0.15700,-0.53700,188.34000,-0.06000
201125_15.30.08.799,-0.00500,-0.01800,0.99900,0.07000,-0.10500,-0.01800,-0.41600,0.15900,-0.53700,188.17000,-0.17000
201125_15.30.08.810,-0.00300,-0.01800,0.99900,0.07000,-0.14000,-0.01800,-0.41800,0.15800,-0.54100,187.78000,-0.39000
201125_15.30.08.821,-0.00400,-0.01800,1.00100,0.07000,-0.12300,-0.01800,-0.41800,0.16200,-0.53800,188.36000,0.58000
201125_15.30.08.832,-0.00400,-0.01600,0.99900,0.08700,-0.10500,-0.03500,-0.41600,0.16600,-0.54200,188.14000,-0.22000
201125_15.30.08.844,-0.00300,-0.01900,0.99900,0.08700,-0.10500,-0.03500,-0.42000,0.16000,-0.53600,188.05000,-0.09000
201125_15.30.08.855,-0.00400,-0.01800,1.00100,0.08700,-0.12300,-0.01800,-0.42200,0.16100,-0.54200,188.38000,0.33000
201125_15.30.08.866,-0.00300,-0.01800,1.00000,0.07000,-0.14000,-0.01800,-0.42100,0.16000,-0.53800,188.96000,0.58000
201125_15.30.08.877,-0.00400,-0.01900,1.00000,0.08700,-0.12300,-0.03500,-0.41600,0.16000,-0.52900,188.40000,-0.56000
201125_15.30.08.888,-0.00400,-0.01800,1.00000,0.07000,-0.12300,-0.01800,-0.41800,0.16100,-0.53100,187.98000,-0.42000
201125_15.30.08.899,-0.00400,-0.01800,1.00000,0.05300,-0.10500,-0.01800,-0.42000,0.15700,-0.53500,188.30000,0.32000
201125_15.30.08.910,-0.00400,-0.01800,1.00100,0.08700,-0.12300,-0.01800,-0.41500,0.15800,-0.54100,188.55000,0.25000
201125_15.30.08.922,-0.00400,-0.01800,0.99900,0.07000,-0.10500,-0.03500,-0.42000,0.15900,-0.54300,188.29000,-0.26000
201125_15.30.08.933,-0.00400,-0.01900,1.00100,0.07000,-0.12300,-0.03500,-0.41700,0.16200,-0.54000,188.03000,-0.26000
201125_15.30.08.945,-0.00400,-0.01800,1.00000,0.05300,-0.12300,-0.03500,-0.41600,0.16100,-0.54300,187.86000,-0.17000
201125_15.30.08.957,-0.00300,-0.01800,1.00000,0.05300,-0.10500,-0.03500,-0.42200,0.16000,-0.53600,188.18000,0.32000
201125_15.30.08.968,-0.00500,-0.01800,0.99900,0.08700,-0.12300,-0.05300,-0.41900,0.16200,-0.54900,188.67000,0.49000
201125_15.30.08.979,-0.00400,-0.01800,1.00100,0.08700,-0.12300,-0.01800,-0.42000,0.16100,-0.54400,188.23000,-0.44000
201125_15.30.08.991,-0.00300,-0.01700,1.00000,0.07000,-0.10500,-0.05300,-0.42400,0.16500,-0.53200,187.83000,-0.40000
201125_15.30.09.002,-0.00300,-0.01700,1.00000,0.05300,-0.12300,-0.03500,-0.41800,0.15900,-0.53800,188.59000,0.76000
201125_15.30.09.013,-0.00400,-0.01800,0.99900,0.05300,-0.12300,-0.05300,-0.41800,0.16100,-0.53100,188.18000,-0.41000
201125_15.30.09.024,-0.00400,-0.01800,0.99300,0.07000,-0.14000,-0.03500,-0.42000,0.15900,-0.52900,187.61000,-0.57000
201125_15.30.09.036,-0.00400,-0.01800,1.01000,0.08700,-0.19200,-0.05300,-0.41600,0.16100,-0.52800,188.20000,0.59000
201125_15.30.09.047,-0.00400,-0.01700,0.97700,0.07000,-0.03500,-0.01800,-0.41900,0.15900,-0.53200,187.90000,-0.30000
201125_15.30.09.058,-0.00300,-0.01800,1.00400,0.07000,-0.07000,-0.05300,-0.42200,0.16400,-0.53600,188.40000,0.50000
201125_15.30.09.069,-0.00400,-0.01800,0.99400,0.05300,-0.10500,-0.01800,-0.41700,0.16100,-0.53800,189.39000,0.99000
201125_15.30.09.081,-0.00400,-0.01600,0.99200,0.07000,-0.10500,-0.01800,-0.42000,0.16500,-0.53600,187.60000,-1.79000
201125_15.30.09.092,-0.00200,-0.01700,1.00600,0.07000,-0.08700,-0.01800,-0.42300,0.16200,-0.53600,187.87000,0.27000
201125_15.30.09.103,-0.00600,-0.01700,0.97600,0.08700,-0.17500,-0.03500,-0.42100,0.15600,-0.54100,188.01000,0.14000
201125_15.30.09.114,-0.00400,-0.01900,1.03400,0.12300,-0.21000,-0.03500,-0.41700,0.15500,-0.53600,188.13000,0.12000
201125_15.30.09.126,-0.00500,-0.01900,0.96500,0.07000,-0.05300,-0.03500,-0.41800,0.15900,-0.53500,187.78000,-0.35000
201125_15.30.09.137,-0.00300,-0.01800,1.01100,0.07000,-0.08700,-0.03500,-0.41700,0.16000,-0.53900,188.16000,0.38000
201125_15.30.09.148,-0.00300,-0.01700,0.99200,0.07000,-0.08700,-0.01800,-0.41600,0.15700,-0.54300,188.27000,0.11000
201125_15.30.09.160,-0.00500,-0.01900,1.00300,0.08700,-0.14000,-0.03500,-0.41700,0.15700,-0.53700,188.41000,0.14000
201125_15.30.09.171,-0.00200,-0.01700,0.99700,0.07000,-0.14000,-0.01800,-0.42300,0.16000,-0.53300,188.28000,-0.13000
201125_15.30.09.182,-0.00500,-0.01800,1.00200,0.07000,-0.08700,-0.03500,-0.42400,0.15900,-0.53300,187.65000,-0.63000
201125_15.30.09.193,-0.00300,-0.01600,0.99300,0.07000,-0.12300,-0.01800,-0.42300,0.16000,-0.54400,188.36000,0.71000
201125_15.30.09.205,-0.00400,-0.01800,1.02100,0.10500,-0.17500,0.00000,-0.42000,0.16400,-0.53800,188.33000,-0.03000
201125_15.30.09.216,-0.00400,-0.01700,0.97800,0.10500,-0.08700,-0.01800,-0.42300,0.16000,-0.54500,188.06000,-0.27000
201125_15.30.09.227,-0.00500,-0.01800,1.01000,0.10500,-0.21000,-0.01800,-0.42100,0.16400,-0.54500,188.02000,-0.04000
201125_15.30.09.238,-0.00300,-0.01700,0.99400,0.07000,-0.08700,-0.03500,-0.41700,0.16600,-0.54500,189.09000,1.07000
201125_15.30.09.250,-0.00400,-0.01800,1.00300,0.08700,-0.15700,-0.03500,-0.42000,0.16600,-0.53900,188.21000,-0.88000
201125_15.30.09.261,-0.00400,-0.01900,1.00500,0.07000,-0.14000,-0.03500,-0.41600,0.16500,-0.53900,188.01000,-0.20000
201125_15.30.09.272,-0.00400,-0.01700,0.99600,0.07000,-0.08700,-0.01800,-0.41800,0.16700,-0.54000,188.45000,0.44000
201125_15.30.09.284,-0.00300,-0.01800,1.01700,0.07000,-0.15700,-0.03500,-0.41900,0.16500,-0.54700,188.40000,-0.05000
201125_15.30.09.295,-0.00400,-0.01700,0.98700,0.07000,-0.08700,-0.03500,-0.41700,0.16600,-0.54000,187.92000,-0.48000
201125_15.30.09.307,-0.00400,-0.01800,1.01000,0.08700,-0.15700,-0.01800,-0.41700,0.16700,-0.54200,188.60000,0.68000
201125_15.30.09.318,-0.00300,-0.01700,0.99700,0.08700,-0.10500,-0.03500,-0.41700,0.16400,-0.53500,188.61000,0.01000
201125_15.30.09.329,-0.00500,-0.01700,1.00400,0.07000,-0.12300,-0.03500,-0.41700,0.16300,-0.53400,188.16000,-0.45000
201125_15.30.09.340,-0.00500,-0.01800,1.00000,0.07000,-0.12300,-0.03500,-0.42200,0.16100,-0.53900,188.05000,-0.11000
201125_15.30.09.351,-0.00400,-0.01900,1.02600,0.07000,-0.22800,-0.01800,-0.41800,0.16000,-0.54300,188.20000,0.15000
201125_15.30.09.362,-0.00400,-0.01600,0.98100,0.05300,-0.08700,-0.01800,-0.42400,0.16400,-0.54000,187.98000,-0.22000
201125_15.30.09.373,-0.00400,-0.01800,1.00700,0.08700,-0.10500,-0.03500,-0.41600,0.16100,-0.53900,188.50000,0.52000
201125_15.30.09.385,-0.00300,-0.01700,0.99500,0.08700,-0.08700,-0.01800,-0.41900,0.16600,-0.53600,188.35000,-0.15000
201125_15.30.09.396,-0.00400,-0.01800,1.00700,0.08700,-0.12300,-0.03500,-0.41400,0.16100,-0.54300,188.13000,-0.22000
201125_15.30.09.408,-0.00400,-0.01800,0.99800,0.07000,-0.14000,-0.05300,-0.41800,0.16300,-0.54000,188.12000,-0.01000
201125_15.30.09.420,-0.00400,-0.01600,0.99900,0.07000,-0.12300,-0.03500,-0.41900,0.16100,-0.53800,188.65000,0.53000
201125_15.30.09.431,-0.00300,-0.01900,1.02000,0.07000,-0.17500,-0.03500,-0.41700,0.16200,-0.53900,188.41000,-0.24000
201125_15.30.09.442,-0.00500,-0.01800,0.99300,0.08700,-0.14000,-0.03500,-0.42300,0.16100,-0.53900,188.57000,0.16000
201125_15.30.09.453,-0.00500,-0.01900,1.00900,0.08700,-0.15700,-0.03500,-0.42000,0.16500,-0.53600,188.52000,-0.05000
201125_15.30.09.464,-0.00400,-0.01800,0.99500,0.07000,-0.08700,-0.01800,-0.42200,0.16200,-0.54100,188.58000,0.06000
201125_15.30.09.476,-0.00400,-0.01800,0.99700,0.07000,-0.12300,-0.03500,-0.42300,0.16100,-0.54100,188.53000,-0.05000
201125_15.30.09.487,-0.00300,-0.01800,0.99800,0.05300,-0.08700,-0.01800,-0.42100,0.16400,-0.54200,188.55000,0.02000
201125_15.30.09.498,-0.00300,-0.01700,0.99400,0.05300,-0.10500,-0.03500,-0.42100,0.16500,-0.54200,187.36000,-1.19000
201125_15.30.09.509,-0.00400,-0.01900,1.00100,0.07000,-0.14000,-0.03500,-0.42200,0.15800,-0.53700,188.57000,1.21000
201125_15.30.09.521,-0.00300,-0.01900,1.00400,0.08700,-0.14000,-0.01800,-0.42200,0.16100,-0.54100,188.26000,-0.31000
201125_15.30.09.532,-0.00300,-0.01700,0.99900,0.07000,-0.10500,-0.01800,-0.42100,0.16100,-0.54200,188.10000,-0.16000
201125_15.30.09.543,-0.00300,-0.01900,1.00200,0.05300,-0.10500,-0.05300,-0.42200,0.16400,-0.54500,188.60000,0.50000
201125_15.30.09.555,-0.00500,-0.02000,1.00600,0.10500,-0.12300,-0.01800,-0.42300,0.16200,-0.54300,188.38000,-0.22000
201125_15.30.09.566,-0.00300,-0.01800,1.01400,0.05300,-0.07000,-0.03500,-0.42100,0.16100,-0.54100,188.30000,-0.08000
201125_15.30.09.578,-0.00500,-0.02000,0.99700,0.08700,-0.14000,-0.03500,-0.42200,0.16100,-0.53900,188.30000,0.00000
201125_15.30.09.589,-0.00300,-0.01700,1.00100,0.07000,-0.12300,-0.03500,-0.42200,0.16200,-0.54000,187.76000,-0.54000
201125_15.30.09.600,-0.00400,-0.01700,1.00400,0.08700,-0.12300,-0.03500,-0.42100,0.16000,-0.54000,188.07000,0.31000
201125_15.30.09.611,-0.00500,-0.01900,0.99800,0.05300,-0.10500,-0.03500,-0.41800,0.16300,-0.53900,188.99000,0.92000
201125_15.30.09.622,-0.00300,-0.01700,0.99700,0.08700,-0.10500,-0.01800,-0.41700,0.16300,-0.54000,188.39000,-0.60000
201125_15.30.09.633,-0.00300,-0.02000,1.02100,0.08700,-0.19200,-0.03500,-0.41900,0.15700,-0.54300,188.88000,0.49000
201125_15.30.09.645,-0.00300,-0.01700,0.99800,0.07000,-0.10500,-0.03500,-0.41900,0.16000,-0.54400,188.41000,-0.47000
201125_15.30.09.656,-0.00500,-0.01900,1.00700,0.07000,-0.15700,-0.03500,-0.41900,0.15800,-0.54300,188.10000,-0.31000
201125_15.30.09.667,-0.00300,-0.01700,0.99500,0.07000,-0.12300,-0.03500,-0.41600,0.15900,-0.54200,188.42000,0.32000
201125_15.30.09.679,-0.00300,-0.01800,1.00500,0.10500,-0.12300,-0.01800,-0.41600,0.15600,-0.54000,188.44000,0.02000
201125_15.30.09.690,-0.00400,-0.01800,0.99600,0.08700,-0.12300,-0.01800,-0.42000,0.16100,-0.55000,188.47000,0.03000
201125_15.30.09.702,-0.00300,-0.01800,1.00200,0.08700,-0.12300,-0.01800,-0.41700,0.16200,-0.54500,188.20000,-0.27000
201125_15.30.09.713,-0.00400,-0.01700,0.99800,0.05300,-0.12300,-0.01800,-0.41700,0.16100,-0.54900,188.54000,0.34000
201125_15.30.09.724,-0.00400,-0.01800,0.99900,0.03500,-0.12300,-0.01800,-0.42200,0.16200,-0.54600,188.17000,-0.37000
201125_15.30.09.736,-0.00500,-0.01800,1.00900,0.08700,-0.14000,-0.03500,-0.41700,0.16400,-0.54300,188.16000,-0.01000
201125_15.30.09.747,-0.00500,-0.01800,0.98900,0.07000,-0.12300,-0.03500,-0.41600,0.16300,-0.53900,188.49000,0.33000
201125_15.30.09.758,-0.00300,-0.01900,1.00600,0.08700,-0.12300,-0.01800,-0.42000,0.15900,-0.54500,188.05000,-0.44000
201125_15.30.09.770,-0.00300,-0.01800,0.98500,0.07000,-0.07000,-0.03500,-0.41900,0.15800,-0.53400,187.70000,-0.35000
201125_15.30.09.781,-0.00400,-0.01800,1.00700,0.07000,-0.08700,-0.01800,-0.42100,0.16700,-0.54500,188.02000,0.32000
201125_15.30.09.792,-0.00300,-0.01800,0.99500,0.10500,-0.15700,-0.01800,-0.41800,0.16400,-0.54100,188.25000,0.23000
201125_15.30.09.804,-0.00400,-0.01700,1.01000,0.08700,-0.14000,-0.03500,-0.42200,0.16200,-0.53800,188.68000,0.43000
201125_15.30.09.815,-0.00400,-0.02000,0.99600,0.07000,-0.12300,-0.01800,-0.42100,0.16500,-0.54100,188.20000,-0.48000
201125_15.30.09.827,-0.00500,-0.01900,1.00300,0.07000,-0.14000,-0.03500,-0.42000,0.16300,-0.54200,188.02000,-0.18000
201125_15.30.09.838,-0.00300,-0.01700,1.00000,0.08700,-0.12300,0.00000,-0.42000,0.16200,-0.53800,188.62000,0.60000
201125_15.30.09.850,-0.00400,-0.01700,1.00200,0.10500,-0.14000,-0.03500,-0.42100,0.16400,-0.53900,187.92000,-0.70000
201125_15.30.09.861,-0.00400,-0.01700,0.99600,0.08700,-0.12300,-0.01800,-0.41900,0.16400,-0.53500,188.08000,0.16000
201125_15.30.09.872,-0.00400,-0.01900,1.00200,0.07000,-0.12300,-0.03500,-0.41800,0.16200,-0.53600,188.41000,0.33000
201125_15.30.09.883,-0.00400,-0.01700,0.99900,0.07000,-0.12300,-0.03500,-0.41800,0.16500,-0.54300,188.43000,0.02000
201125_15.30.09.894,-0.00400,-0.01900,1.00000,0.08700,-0.10500,-0.01800,-0.42000,0.16000,-0.53600,188.56000,0.13000
201125_15.30.09.905,-0.00300,-0.01800,0.99900,0.07000,-0.12300,-0.03500,-0.42300,0.16600,-0.53200,188.07000,-0.49000
201125_15.30.09.916,-0.00400,-0.01800,0.99800,0.07000,-0.12300,-0.01800,-0.42200,0.16400,-0.54400,188.29000,0.22000
201125_15.30.09.927,-0.00400,-0.01800,1.00000,0.07000,-0.14000,0.00000,-0.42000,0.16300,-0.54400,188.53000,0.24000
201125_15.30.09.938,-0.00400,-0.01800,1.00100,0.10500,-0.12300,-0.01800,-0.41900,0.16100,-0.54200,188.43000,-0.10000
201125_15.30.09.950,-0.00300,-0.01800,0.99900,0.08700,-0.10500,0.00000,-0.41900,0.16100,-0.54700,188.45000,0.02000
201125_15.30.09.961,-0.00400,-0.01900,1.00000,0.05300,-0.10500,-0.01800,-0.42100,0.16500,-0.54300,188.61000,0.16000
201125_15.30.09.973,-0.00300,-0.01800,1.00000,0.07000,-0.12300,-0.01800,-0.41700,0.16400,-0.53900,188.18000,-0.43000
201125_15.30.09.984,-0.00300,-0.01800,1.00000,0.07000,-0.12300,-0.03500,-0.42000,0.16100,-0.53900,188.28000,0.10000
201125_15.30.09.995,-0.00500,-0.01700,1.00100,0.07000,-0.14000,-0.01800,-0.42300,0.16100,-0.53500,188.24000,-0.04000
201125_15.30.10.006,-0.00400,-0.01900,1.00200,0.05300,-0.10500,-0.03500,-0.42200,0.16300,-0.53900,187.91000,-0.33000
201125_15.30.10.018,-0.00300,-0.01800,0.99700,0.08700,-0.10500,0.00000,-0.42000,0.16300,-0.54400,188.49000,0.58000
201125_15.30.10.029,-0.00400,-0.01900,0.99900,0.08700,-0.15700,0.00000,-0.42100,0.16200,-0.53900,187.91000,-0.58000
201125_15.30.10.040,-0.00400,-0.01700,0.99700,0.07000,-0.12300,-0.03500,-0.42100,0.16200,-0.53900,188.18000,0.27000
201125_15.30.10.051,-0.00400,-0.01800,0.99800,0.07000,-0.07000,-0.01800,-0.42300,0.16300,-0.54200,188.06000,-0.12000
201125_15.30.10.062,-0.00400,-0.01900,1.00400,0.07000,-0.14000,-0.01800,-0.42100,0.16400,-0.53900,188.70000,0.64000
201125_15.30.10.074,-0.00300,-0.01800,0.99900,0.08700,-0.10500,-0.03500,-0.42100,0.15800,-0.54000,188.64000,-0.06000
201125_15.30.10.085,-0.00400,-0.01800,0.99900,0.10500,-0.10500,-0.03500,-0.42400,0.16300,-0.54400,188.32000,-0.32000
201125_15.30.10.096,-0.00400,-0.01800,1.00000,0.07000,-0.08700,-0.03500,-0.42400,0.16200,-0.53900,188.52000,0.20000
201125_15.30.10.107,-0.00400,-0.02000,1.00100,0.08700,-0.12300,-0.03500,-0.42000,0.16200,-0.54000,188.24000,-0.28000
201125_15.30.10.119,-0.00400,-0.01800,1.00000,0.08700,-0.14000,-0.03500,-0.42100,0.16000,-0.53700,188.50000,0.26000
