timestamp,ax,ay,az,gx,gy,gz,mx,my,mz,altitude,relative_altitude
191125_17.20.30.507,-0.02300,0.01000,0.98700,-153.84200,478.36200,-405.65000,0.05200,0.51100,-0.58800,159.24000,0.00000
191125_17.20.30.508,-0.02400,0.01100,0.99100,0.07000,-0.10500,-0.05300,0.05400,0.51100,-0.59000,158.65000,-0.59000
191125_17.20.30.508,-0.02400,0.01100,0.98900,0.05300,-0.12300,-0.07000,0.05400,0.50800,-0.59700,158.61000,-0.04000
191125_17.20.30.509,-0.02500,0.01000,0.98800,0.07000,-0.10500,-0.05300,0.05100,0.51500,-0.59400,158.48000,-0.13000
191125_17.20.30.510,-0.02400,0.01100,0.98900,0.05300,-0.08700,-0.07000,0.05400,0.51100,-0.59400,158.99000,0.51000
191125_17.20.30.511,-0.02500,0.01000,0.98900,0.07000,-0.08700,-0.07000,0.05400,0.51300,-0.59100,158.97000,-0.02000
191125_17.20.30.512,-0.02500,0.01000,0.98800,0.05300,-0.10500,-0.05300,0.05000,0.51000,-0.58800,158.80000,-0.17000
191125_17.20.30.513,-0.02500,0.01100,0.98700,0.08700,-0.10500,-0.05300,0.05200,0.51100,-0.58400,158.05000,-0.75000
191125_17.20.30.513,-0.02400,0.01000,0.99000,0.07000,-0.08700,-0.05300,0.05000,0.51100,-0.58600,159.00000,0.95000
191125_17.20.30.514,-0.02500,0.01100,0.98800,0.07000,-0.08700,-0.07000,0.04800,0.51000,-0.59000,158.75000,-0.25000
191125_17.20.30.515,-0.02400,0.01000,0.98700,0.07000,-0.08700,-0.05300,0.04900,0.51300,-0.59200,158.88000,0.13000
191125_17.20.30.515,-0.02400,0.01200,0.99000,0.07000,-0.10500,-0.07000,0.04700,0.50900,-0.58700,158.91000,0.03000
191125_17.20.30.516,-0.02400,0.01200,0.98700,0.08700,-0.08700,-0.07000,0.05200,0.51000,-0.59000,158.22000,-0.69000
191125_17.20.30.517,-0.02500,0.01000,0.98700,0.07000,-0.12300,-0.03500,0.05300,0.51100,-0.58900,158.62000,0.40000
191125_17.20.30.518,-0.02500,0.01100,0.98900,0.07000,-0.12300,-0.03500,0.05500,0.51400,-0.58300,158.81000,0.19000
191125_17.20.30.518,-0.02400,0.01100,0.99000,0.07000,-0.12300,-0.05300,0.05300,0.50900,-0.59500,158.76000,-0.05000
191125_17.20.30.519,-0.02500,0.01100,0.98900,0.05300,-0.10500,-0.07000,0.05300,0.51000,-0.59000,158.84000,0.08000
191125_17.20.30.520,-0.02600,0.01000,0.98800,0.05300,-0.10500,-0.07000,0.04600,0.51100,-0.59100,159.09000,0.25000
191125_17.20.30.520,-0.02500,0.01000,0.98600,0.08700,-0.10500,-0.05300,0.05300,0.50700,-0.59200,157.93000,-1.16000
191125_17.20.30.521,-0.02500,0.01000,0.98900,0.05300,-0.10500,-0.05300,0.05300,0.51000,-0.59200,158.84000,0.91000
191125_17.20.30.522,-0.02500,0.01000,0.98800,0.07000,-0.08700,-0.05300,0.05200,0.51300,-0.58600,158.62000,-0.22000
191125_17.20.30.522,-0.02400,0.01000,0.98800,0.07000,-0.10500,-0.05300,0.05200,0.51300,-0.59800,158.92000,0.30000
191125_17.20.30.523,-0.02400,0.01000,0.98700,0.05300,-0.08700,-0.05300,0.04900,0.51100,-0.59600,158.30000,-0.62000
191125_17.20.30.524,-0.02500,0.01000,0.98800,0.05300,-0.08700,-0.05300,0.05300,0.51400,-0.58800,158.74000,0.44000
191125_17.20.30.525,-0.02500,0.01000,0.98900,0.07000,-0.08700,-0.07000,0.05400,0.51100,-0.59300,158.66000,-0.08000
191125_17.20.30.525,-0.02500,0.01000,0.99000,0.05300,-0.08700,-0.07000,0.05200,0.51200,-0.58900,159.07000,0.41000
191125_17.20.30.526,-0.02500,0.01000,0.98900,0.08700,-0.07000,-0.07000,0.05100,0.51600,-0.59500,159.09000,0.02000
191125_17.20.30.527,-0.02400,0.01100,0.98800,0.07000,-0.12300,-0.03500,0.05100,0.51100,-0.59600,158.67000,-0.42000
191125_17.20.30.528,-0.02400,0.01000,0.98500,0.08700,-0.08700,-0.05300,0.05100,0.50900,-0.58900,158.45000,-0.22000
191125_17.20.30.528,-0.02500,0.01000,0.99000,0.07000,-0.08700,-0.03500,0.04900,0.50900,-0.59000,158.77000,0.32000
191125_17.20.30.529,-0.02500,0.01100,0.99000,0.08700,-0.10500,-0.03500,0.04800,0.51400,-0.58900,158.55000,-0.22000
191125_17.20.30.530,-0.02500,0.01000,0.98700,0.07000,-0.08700,-0.05300,0.05200,0.51000,-0.59600,158.47000,-0.08000
191125_17.20.30.531,-0.02500,0.01000,0.98900,0.08700,-0.10500,-0.05300,0.05200,0.50900,-0.59500,158.83000,0.36000
191125_17.20.30.532,-0.02300,0.01100,0.99100,0.08700,-0.12300,-0.05300,0.05200,0.51100,-0.58600,158.51000,-0.32000
191125_17.20.30.532,-0.02400,0.01000,0.98600,0.07000,-0.10500,-0.05300,0.05200,0.50800,-0.59000,158.89000,0.38000
191125_17.20.30.533,-0.02600,0.01000,0.99000,0.07000,-0.08700,-0.05300,0.05500,0.50800,-0.59100,158.68000,-0.21000
191125_17.20.30.534,-0.02400,0.01000,0.98900,0.05300,-0.12300,-0.05300,0.05200,0.50900,-0.58500,158.45000,-0.23000
191125_17.20.30.535,-0.02400,0.01100,0.98700,0.07000,-0.08700,-0.07000,0.05400,0.51000,-0.59400,158.69000,0.24000
191125_17.20.30.536,-0.02600,0.01000,0.98700,0.07000,-0.08700,-0.05300,0.05500,0.50800,-0.58200,158.84000,0.15000
191125_17.20.30.536,-0.02500,0.01000,0.99000,0.05300,-0.08700,-0.05300,0.05500,0.51300,-0.58200,158.28000,-0.56000
191125_17.20.30.537,-0.02400,0.01000,0.99100,0.07000,-0.08700,-0.05300,0.05600,0.51200,-0.58500,159.19000,0.91000
191125_17.20.30.538,-0.02500,0.01000,0.98800,0.07000,-0.08700,-0.07000,0.05500,0.51000,-0.59400,158.47000,-0.72000
191125_17.20.30.539,-0.02500,0.01100,0.98800,0.05300,-0.10500,-0.05300,0.05200,0.50900,-0.59500,158.43000,-0.04000
191125_17.20.30.539,-0.02400,0.01100,0.98800,0.08700,-0.08700,-0.05300,0.05100,0.51000,-0.59200,158.48000,0.05000
191125_17.20.30.540,-0.02500,0.01100,0.99100,0.03500,-0.12300,-0.05300,0.05500,0.50800,-0.58900,158.96000,0.48000
191125_17.20.30.541,-0.02400,0.01000,0.98800,0.05300,-0.10500,-0.05300,0.05400,0.50900,-0.59100,158.37000,-0.59000
191125_17.20.30.542,-0.02500,0.01200,0.98700,0.07000,-0.12300,-0.05300,0.05300,0.50800,-0.58600,158.75000,0.38000
191125_17.20.30.542,-0.02400,0.01100,0.98700,0.07000,-0.12300,-0.03500,0.05400,0.51100,-0.59100,158.45000,-0.30000
191125_17.20.30.543,-0.02300,0.01100,0.99000,0.03500,-0.08700,-0.05300,0.05200,0.51200,-0.58800,158.90000,0.45000
191125_17.20.30.544,-0.02400,0.01000,0.98900,0.05300,-0.10500,-0.05300,0.05300,0.51000,-0.58900,159.13000,0.23000
191125_17.20.30.545,-0.02400,0.01000,0.98800,0.05300,-0.12300,-0.03500,0.05600,0.51300,-0.58400,158.61000,-0.52000
191125_17.20.30.545,-0.02500,0.01000,0.99000,0.07000,-0.10500,-0.05300,0.05100,0.51100,-0.58400,158.48000,-0.13000
191125_17.20.30.546,-0.02500,0.01000,0.98900,0.03500,-0.08700,-0.08700,0.05100,0.51200,-0.58600,158.38000,-0.10000
191125_17.20.30.547,-0.02500,0.01000,0.98700,0.07000,-0.10500,-0.03500,0.05100,0.50600,-0.58500,158.46000,0.08000
191125_17.20.30.548,-0.02500,0.00900,0.99000,0.07000,-0.07000,-0.05300,0.05100,0.50800,-0.59100,158.31000,-0.15000
191125_17.20.30.548,-0.02400,0.01000,0.98800,0.08700,-0.10500,-0.05300,0.05100,0.50600,-0.58500,158.79000,0.48000
191125_17.20.30.549,-0.02500,0.01100,0.98800,0.05300,-0.12300,-0.03500,0.05200,0.50900,-0.58700,158.21000,-0.58000
191125_17.20.30.550,-0.02500,0.01100,0.98700,0.08700,-0.10500,-0.03500,0.05500,0.51000,-0.58600,158.47000,0.26000
191125_17.20.30.550,-0.02500,0.01100,0.98700,0.08700,-0.10500,-0.05300,0.05300,0.50900,-0.59200,158.79000,0.32000
191125_17.20.30.551,-0.02500,0.01000,0.98900,0.07000,-0.10500,-0.05300,0.05100,0.50700,-0.58800,158.61000,-0.18000
191125_17.20.30.552,-0.02500,0.01000,0.98900,0.08700,-0.12300,-0.05300,0.05400,0.51000,-0.59000,158.88000,0.27000
191125_17.20.30.553,-0.02600,0.01000,0.98800,0.05300,-0.12300,-0.05300,0.05300,0.51000,-0.59300,158.44000,-0.44000
191125_17.20.30.553,-0.02400,0.01000,0.98800,0.08700,-0.12300,-0.03500,0.05600,0.51100,-0.58900,159.07000,0.63000
191125_17.20.30.554,-0.02500,0.01000,0.98900,0.07000,-0.10500,-0.05300,0.05400,0.51000,-0.58600,158.98000,-0.09000
191125_17.20.30.555,-0.02500,0.01000,0.98900,0.05300,-0.08700,-0.03500,0.05900,0.50700,-0.58900,158.44000,-0.54000
191125_17.20.30.555,-0.02400,0.01000,0.98800,0.05300,-0.08700,-0.07000,0.05600,0.50900,-0.59700,158.84000,0.40000
191125_17.20.30.556,-0.02500,0.01000,0.98500,0.08700,-0.12300,-0.03500,0.05400,0.51100,-0.58800,158.15000,-0.69000
191125_17.20.30.557,-0.02500,0.01000,0.98400,0.05300,-0.08700,-0.05300,0.05300,0.50800,-0.58900,158.71000,0.56000
191125_17.20.30.558,-0.02400,0.01000,0.99000,0.08700,-0.08700,-0.07000,0.05700,0.50800,-0.58500,158.97000,0.26000
191125_17.20.30.559,-0.02500,0.00900,0.99000,0.05300,-0.08700,-0.07000,0.05400,0.51000,-0.58600,158.70000,-0.27000
191125_17.20.30.559,-0.02500,0.01000,0.98800,0.07000,-0.10500,-0.05300,0.05500,0.50700,-0.58800,158.81000,0.11000
191125_17.20.30.560,-0.02500,0.01000,0.98700,0.07000,-0.08700,-0.03500,0.05700,0.50900,-0.58900,158.50000,-0.31000
191125_17.20.30.561,-0.02500,0.01100,0.98900,0.07000,-0.07000,-0.05300,0.05600,0.51700,-0.59100,158.34000,-0.16000
191125_17.20.30.562,-0.02500,0.01000,0.98900,0.05300,-0.10500,-0.07000,0.05200,0.50900,-0.58200,158.70000,0.36000
191125_17.20.30.562,-0.02500,0.01000,0.98900,0.03500,-0.10500,-0.07000,0.05400,0.51100,-0.58500,159.16000,0.46000
191125_17.20.30.563,-0.02500,0.01100,0.98800,0.05300,-0.10500,-0.05300,0.05300,0.51200,-0.58800,158.58000,-0.58000
191125_17.20.30.564,-0.02500,0.01000,0.98700,0.07000,-0.07000,-0.05300,0.05200,0.50900,-0.58800,158.88000,0.30000
191125_17.20.30.565,-0.02600,0.01100,0.99100,0.05300,-0.08700,-0.03500,0.05300,0.50800,-0.59200,158.70000,-0.18000
191125_17.20.30.565,-0.02600,0.01100,0.99000,0.07000,-0.10500,-0.05300,0.05300,0.51500,-0.59200,158.47000,-0.23000
191125_17.20.30.566,-0.02300,0.01000,0.98800,0.10500,-0.08700,-0.03500,0.05300,0.51400,-0.58700,159.34000,0.87000
191125_17.20.30.567,-0.02400,0.00900,0.98400,0.08700,-0.12300,-0.05300,0.05600,0.51400,-0.58500,159.06000,-0.28000
191125_17.20.30.567,-0.02500,0.01000,0.98700,0.05300,-0.12300,-0.05300,0.05000,0.51300,-0.58700,158.62000,-0.44000
191125_17.20.30.568,-0.02600,0.01000,0.99200,0.05300,-0.10500,-0.05300,0.05500,0.51000,-0.58300,158.83000,0.21000
191125_17.20.30.569,-0.02700,0.01100,0.98800,0.01800,-0.08700,-0.05300,0.05100,0.51200,-0.58400,159.10000,0.27000
191125_17.20.30.570,-0.02400,0.01100,0.98900,0.05300,-0.10500,-0.03500,0.05600,0.50800,-0.58700,158.85000,-0.25000
191125_17.20.30.570,-0.02500,0.01000,0.98500,0.07000,-0.08700,-0.05300,0.05300,0.51300,-0.58900,158.53000,-0.32000
191125_17.20.30.571,-0.02500,0.01000,0.99000,0.05300,-0.10500,-0.05300,0.05500,0.51400,-0.58800,158.08000,-0.45000
191125_17.20.30.572,-0.02500,0.01000,0.98800,0.05300,-0.14000,-0.05300,0.05200,0.51400,-0.58600,158.66000,0.58000
191125_17.20.30.572,-0.02600,0.01100,0.99100,0.05300,-0.12300,-0.07000,0.05300,0.50700,-0.58400,159.47000,0.81000
191125_17.20.30.573,-0.02500,0.01100,0.98700,0.07000,-0.12300,-0.05300,0.05400,0.50900,-0.58300,159.12000,-0.35000
191125_17.20.30.574,-0.02500,0.01000,0.99000,0.05300,-0.10500,-0.03500,0.05200,0.51200,-0.58900,159.58000,0.46000
191125_17.20.30.575,-0.02600,0.01100,0.99000,0.05300,-0.10500,-0.05300,0.05900,0.51000,-0.59400,158.32000,-1.26000
191125_17.20.30.575,-0.02500,0.01000,0.98900,0.05300,-0.10500,-0.05300,0.05000,0.51200,-0.58800,158.47000,0.15000
191125_17.20.30.576,-0.02400,0.01000,0.98900,0.05300,-0.10500,-0.05300,0.05700,0.50700,-0.59000,158.60000,0.13000
191125_17.20.30.577,-0.02400,0.01100,0.98800,0.07000,-0.12300,-0.03500,0.05400,0.50900,-0.58800,158.41000,-0.19000
191125_17.20.30.578,-0.02400,0.01000,0.98700,0.07000,-0.12300,-0.07000,0.05800,0.51200,-0.59000,158.30000,-0.11000
191125_17.20.30.578,-0.02500,0.01100,0.99300,0.03500,-0.07000,-0.03500,0.05900,0.51100,-0.59400,158.76000,0.46000
191125_17.20.30.579,-0.02500,0.01000,0.98700,0.05300,-0.10500,-0.05300,0.05100,0.51000,-0.58600,159.19000,0.43000
191125_17.20.30.580,-0.02400,0.01000,0.98500,0.05300,-0.10500,-0.05300,0.05500,0.51100,-0.58900,158.50000,-0.69000
191125_17.20.30.580,-0.02600,0.01000,0.99000,0.07000,-0.10500,-0.05300,0.05900,0.51100,-0.58600,158.53000,0.03000
191125_17.20.30.581,-0.02400,0.01100,0.98900,0.08700,-0.08700,-0.05300,0.05700,0.51100,-0.58300,158.29000,-0.24000
191125_17.20.30.582,-0.02400,0.01200,0.99000,0.08700,-0.10500,-0.07000,0.05200,0.51100,-0.58700,158.31000,0.02000
191125_17.20.30.583,-0.02500,0.01100,0.98900,0.05300,-0.10500,-0.05300,0.05500,0.51300,-0.58600,159.54000,1.23000
191125_17.20.30.583,-0.02500,0.01100,0.98800,0.07000,-0.08700,-0.05300,0.05800,0.51100,-0.59000,158.79000,-0.75000
191125_17.20.30.584,-0.02400,0.01100,0.98700,0.05300,-0.10500,-0.07000,0.05400,0.51100,-0.58500,158.15000,-0.64000
191125_17.20.30.585,-0.02500,0.01000,0.99000,0.03500,-0.10500,-0.05300,0.05400,0.51200,-0.59000,158.75000,0.60000
191125_17.20.30.585,-0.02500,0.01000,0.98600,0.07000,-0.10500,-0.07000,0.05400,0.51400,-0.59000,158.63000,-0.12000
191125_17.20.30.586,-0.02500,0.01100,0.99000,0.07000,-0.12300,-0.05300,0.05600,0.51500,-0.58900,158.84000,0.21000
191125_17.20.30.587,-0.02600,0.01100,0.98700,0.03500,-0.08700,-0.05300,0.05300,0.51900,-0.59000,159.12000,0.28000
191125_17.20.30.587,-0.02600,0.01000,0.98800,0.05300,-0.10500,-0.05300,0.05300,0.51400,-0.59600,158.94000,-0.18000
191125_17.20.30.588,-0.02500,0.01000,0.98800,0.07000,-0.10500,-0.05300,0.05300,0.51200,-0.59300,158.34000,-0.60000
191125_17.20.30.589,-0.02500,0.01000,0.98800,0.03500,-0.10500,-0.05300,0.05500,0.51300,-0.59300,158.46000,0.12000
191125_17.20.30.590,-0.02500,0.01000,0.98800,0.07000,-0.10500,-0.05300,0.05200,0.51500,-0.58900,158.64000,0.18000
191125_17.20.30.590,-0.02400,0.01000,0.98900,0.08700,-0.10500,-0.07000,0.05400,0.51400,-0.59000,158.66000,0.02000
191125_17.20.30.591,-0.02400,0.01000,0.98900,0.05300,-0.10500,-0.03500,0.05300,0.51100,-0.59300,158.34000,-0.32000
191125_17.20.30.592,-0.02400,0.01000,0.98800,0.05300,-0.08700,-0.07000,0.05100,0.51300,-0.59500,158.98000,0.64000
191125_17.20.30.593,-0.02500,0.01000,0.99000,0.03500,-0.08700,-0.07000,0.05500,0.51600,-0.59200,159.27000,0.29000
191125_17.20.30.593,-0.02400,0.01000,0.98800,0.08700,-0.10500,-0.05300,0.05600,0.51400,-0.58900,158.49000,-0.78000
191125_17.20.30.594,-0.02500,0.01000,0.98800,0.08700,-0.10500,-0.05300,0.05000,0.51500,-0.59000,158.82000,0.33000
191125_17.20.30.595,-0.02500,0.01100,0.99000,0.03500,-0.10500,-0.05300,0.05200,0.51700,-0.59200,158.80000,-0.02000
191125_17.20.30.595,-0.02500,0.01000,0.98900,0.05300,-0.08700,-0.03500,0.05500,0.51600,-0.58800,158.88000,0.08000
191125_17.20.30.596,-0.02500,0.01000,0.98800,0.05300,-0.10500,-0.05300,0.05500,0.51300,-0.59300,158.98000,0.10000
191125_17.20.30.597,-0.02500,0.01000,0.98800,0.05300,-0.08700,-0.05300,0.05600,0.51700,-0.58700,158.65000,-0.33000
191125_17.20.30.598,-0.02600,0.01100,0.98700,0.07000,-0.08700,-0.05300,0.04900,0.51300,-0.58900,158.90000,0.25000
191125_17.20.30.598,-0.02400,0.01000,0.99100,0.07000,-0.10500,-0.05300,0.05300,0.50900,-0.58800,158.91000,0.01000
191125_17.20.30.599,-0.02600,0.01000,0.99000,0.05300,-0.10500,-0.05300,0.05100,0.51200,-0.59000,159.09000,0.18000
191125_17.20.30.600,-0.02500,0.01000,0.98700,0.03500,-0.12300,-0.03500,0.05300,0.51000,-0.58200,158.13000,-0.96000
191125_17.20.30.601,-0.02500,0.01000,0.98800,0.07000,-0.10500,-0.05300,0.05500,0.51200,-0.58600,158.69000,0.56000
191125_17.20.30.601,-0.02400,0.01000,0.98700,0.07000,-0.12300,-0.05300,0.05400,0.51500,-0.58400,158.97000,0.28000
191125_17.20.30.602,-0.02500,0.01100,0.99000,0.05300,-0.10500,-0.05300,0.05300,0.50900,-0.58600,158.88000,-0.09000
191125_17.20.30.603,-0.02500,0.00900,0.98800,0.05300,-0.10500,-0.05300,0.05700,0.51300,-0.57900,159.27000,0.39000
191125_17.20.30.603,-0.02500,0.01000,0.98700,0.07000,-0.10500,-0.07000,0.05000,0.51600,-0.58700,159.03000,-0.24000
191125_17.20.30.604,-0.02500,0.01000,0.98700,0.07000,-0.10500,-0.05300,0.04900,0.51200,-0.58000,159.13000,0.10000
191125_17.20.30.605,-0.02400,0.01000,0.98900,0.07000,-0.10500,-0.05300,0.05000,0.51100,-0.58900,158.81000,-0.32000
191125_17.20.30.606,-0.02600,0.01100,0.98800,0.07000,-0.10500,-0.05300,0.04800,0.51600,-0.58400,158.85000,0.04000
191125_17.20.30.606,-0.02500,0.01000,0.99000,0.05300,-0.10500,-0.05300,0.04800,0.51500,-0.58700,159.01000,0.16000
191125_17.20.30.607,-0.02400,0.01100,0.98600,0.07000,-0.12300,-0.03500,0.04800,0.51000,-0.58800,158.28000,-0.73000
191125_17.20.30.608,-0.02600,0.01000,0.99000,0.05300,-0.10500,-0.05300,0.04900,0.51100,-0.59200,158.52000,0.24000
191125_17.20.30.609,-0.02600,0.01000,0.98900,0.05300,-0.12300,-0.05300,0.04900,0.51000,-0.59400,159.36000,0.84000
191125_17.20.30.609,-0.02300,0.01000,0.98600,0.07000,-0.10500,-0.05300,0.04800,0.51500,-0.58600,158.90000,-0.46000
191125_17.20.30.610,-0.02400,0.01100,0.98900,0.08700,-0.07000,-0.03500,0.05000,0.51100,-0.59100,158.97000,0.07000
191125_17.20.30.611,-0.02400,0.01100,0.98700,0.05300,-0.08700,-0.05300,0.04900,0.51600,-0.58800,158.79000,-0.18000
191125_17.20.30.613,-0.02500,0.01000,0.98700,0.05300,-0.08700,-0.05300,0.04900,0.51700,-0.58500,158.67000,-0.12000
191125_17.20.30.614,-0.02500,0.01000,0.99100,0.05300,-0.08700,-0.07000,0.05300,0.51200,-0.58400,158.97000,0.30000
191125_17.20.30.614,-0.02400,0.01000,0.98600,0.07000,-0.14000,-0.05300,0.05200,0.51900,-0.58800,158.14000,-0.83000
191125_17.20.30.615,-0.02500,0.01000,0.98700,0.08700,-0.10500,-0.05300,0.05200,0.51200,-0.58800,158.90000,0.76000
191125_17.20.30.616,-0.02500,0.01000,0.98400,0.08700,-0.08700,-0.05300,0.05300,0.51200,-0.58600,158.66000,-0.24000
191125_17.20.30.617,-0.02500,0.01000,0.99100,0.07000,-0.10500,-0.03500,0.05200,0.51400,-0.59300,158.59000,-0.07000
191125_17.20.30.617,-0.02500,0.01100,0.98900,0.05300,-0.10500,-0.05300,0.05500,0.51400,-0.59100,159.60000,1.01000
191125_17.20.30.618,-0.02400,0.01100,0.99000,0.07000,-0.10500,-0.05300,0.05100,0.51300,-0.59400,158.70000,-0.90000
191125_17.20.30.619,-0.02400,0.01000,0.98600,0.07000,-0.10500,-0.05300,0.05300,0.51400,-0.59500,158.99000,0.29000
191125_17.20.30.619,-0.02500,0.01000,0.98800,0.08700,-0.10500,-0.05300,0.05200,0.51300,-0.59000,158.56000,-0.43000
191125_17.20.30.620,-0.02500,0.01000,0.99100,0.05300,-0.08700,-0.07000,0.05100,0.51200,-0.59100,158.91000,0.35000
191125_17.20.30.621,-0.02500,0.01100,0.98700,0.05300,-0.08700,-0.05300,0.04600,0.51100,-0.59200,158.87000,-0.04000
191125_17.20.30.622,-0.02400,0.01000,0.98600,0.07000,-0.10500,-0.03500,0.04800,0.51100,-0.58800,158.33000,-0.54000
191125_17.20.30.622,-0.02500,0.01100,0.98900,0.08700,-0.10500,-0.05300,0.04700,0.50800,-0.58500,158.64000,0.31000
191125_17.20.30.623,-0.02400,0.01100,0.99000,0.05300,-0.08700,-0.05300,0.04700,0.51100,-0.59400,158.99000,0.35000
191125_17.20.30.624,-0.02500,0.01000,0.98900,0.08700,-0.12300,-0.07000,0.04600,0.51000,-0.58500,159.11000,0.12000
191125_17.20.30.624,-0.02400,0.00900,0.98600,0.05300,-0.10500,-0.05300,0.05200,0.51200,-0.58800,158.65000,-0.46000
191125_17.20.30.625,-0.02500,0.01000,0.98800,0.07000,-0.08700,-0.05300,0.05200,0.51100,-0.59000,158.85000,0.20000
191125_17.20.30.626,-0.02500,0.01100,0.98600,0.07000,-0.10500,-0.03500,0.05300,0.51400,-0.59400,158.74000,-0.11000
191125_17.20.30.627,-0.02300,0.01000,0.99000,0.10500,-0.08700,-0.05300,0.04800,0.51500,-0.59000,158.50000,-0.24000
191125_17.20.30.627,-0.02500,0.01000,0.98900,0.05300,-0.10500,-0.05300,0.05000,0.50900,-0.58700,158.48000,-0.02000
191125_17.20.30.628,-0.02500,0.01100,0.98600,0.08700,-0.10500,-0.05300,0.04800,0.51400,-0.59100,158.75000,0.27000
191125_17.20.30.629,-0.02400,0.01000,0.98600,0.07000,-0.12300,-0.05300,0.04700,0.51400,-0.59000,158.20000,-0.55000
191125_17.20.30.629,-0.02600,0.01000,0.99000,0.05300,-0.10500,-0.07000,0.04600,0.51100,-0.58900,158.54000,0.34000
191125_17.20.30.630,-0.02500,0.01000,0.99000,0.08700,-0.10500,-0.05300,0.04700,0.51300,-0.58900,158.64000,0.10000
191125_17.20.30.631,-0.02400,0.01000,0.98100,0.10500,-0.10500,-0.07000,0.04900,0.50600,-0.58800,159.22000,0.58000
191125_17.20.30.632,-0.02600,0.00900,1.01300,-0.07000,-0.03500,-0.03500,0.04700,0.51200,-0.59000,158.85000,-0.37000
191125_17.20.30.632,-0.02500,0.00900,0.99400,-0.14000,-0.05300,-0.03500,0.05100,0.51400,-0.59000,158.33000,-0.52000
191125_17.20.30.633,-0.02500,0.01100,0.99800,0.15700,-0.08700,-0.03500,0.04800,0.51400,-0.58900,158.39000,0.06000
191125_17.20.30.634,-0.02600,0.00900,1.00500,-0.08700,-0.07000,-0.05300,0.04800,0.51100,-0.59400,158.68000,0.29000
191125_17.20.30.634,-0.02300,0.01000,0.98900,-0.01800,-0.10500,-0.03500,0.04800,0.51200,-0.59200,158.77000,0.09000
191125_17.20.30.635,-0.02300,0.01000,0.98700,0.05300,-0.08700,-0.03500,0.05200,0.51100,-0.58800,158.62000,-0.15000
191125_17.20.30.636,-0.02400,0.01000,0.99200,0.03500,-0.08700,-0.05300,0.05100,0.50900,-0.59000,158.90000,0.28000
191125_17.20.30.637,-0.02500,0.01100,0.99700,-0.03500,-0.07000,-0.05300,0.05100,0.50800,-0.59300,158.91000,0.01000
191125_17.20.30.638,-0.02500,0.01000,0.98600,0.03500,-0.10500,-0.05300,0.05000,0.51300,-0.58700,158.88000,-0.03000
191125_17.20.30.638,-0.02500,0.01000,0.99200,0.03500,-0.10500,-0.05300,0.05300,0.51000,-0.59200,158.86000,-0.02000
191125_17.20.30.639,-0.02500,0.01000,0.98900,0.01800,-0.10500,-0.05300,0.05000,0.51200,-0.59600,158.92000,0.06000
191125_17.20.30.640,-0.02500,0.01000,0.99200,0.05300,-0.10500,-0.05300,0.05400,0.51500,-0.58900,159.07000,0.15000
191125_17.20.30.641,-0.02500,0.01100,0.98900,0.05300,-0.10500,-0.05300,0.05200,0.51500,-0.58700,158.78000,-0.29000
191125_17.20.30.641,-0.02600,0.00900,0.99100,0.00000,-0.10500,-0.05300,0.04700,0.51400,-0.59100,158.62000,-0.16000
191125_17.20.30.642,-0.02400,0.01000,0.98700,0.05300,-0.08700,-0.05300,0.04900,0.50800,-0.58800,158.54000,-0.08000
191125_17.20.30.643,-0.02500,0.01000,0.98700,0.07000,-0.10500,-0.05300,0.04900,0.51200,-0.59000,159.16000,0.62000
191125_17.20.30.644,-0.02400,0.01000,0.99100,0.07000,-0.12300,-0.07000,0.05100,0.50700,-0.59000,159.29000,0.13000
191125_17.20.30.644,-0.02500,0.01000,0.98700,0.03500,-0.08700,-0.07000,0.05000,0.51300,-0.58500,159.38000,0.09000
191125_17.20.30.645,-0.02400,0.01100,0.99000,0.07000,-0.08700,-0.03500,0.04700,0.51200,-0.59600,158.97000,-0.41000
191125_17.20.30.646,-0.02400,0.01000,0.98900,0.07000,-0.08700,-0.07000,0.04600,0.51000,-0.58900,158.90000,-0.07000
191125_17.20.30.646,-0.02500,0.01000,0.99000,0.07000,-0.08700,-0.05300,0.05000,0.51400,-0.58300,159.00000,0.10000
191125_17.20.30.647,-0.02500,0.00900,0.98900,0.05300,-0.10500,-0.07000,0.05000,0.51500,-0.59100,158.37000,-0.63000
191125_17.20.30.648,-0.02600,0.01100,0.98800,0.05300,-0.10500,-0.05300,0.05000,0.51300,-0.58200,158.92000,0.55000
191125_17.20.30.649,-0.02400,0.01000,0.98600,0.07000,-0.10500,-0.05300,0.04900,0.51100,-0.58500,158.62000,-0.30000
191125_17.20.30.649,-0.02500,0.01000,0.99100,0.05300,-0.10500,-0.05300,0.05400,0.51400,-0.58000,158.99000,0.37000
191125_17.20.30.650,-0.02300,0.01000,0.98800,0.08700,-0.10500,-0.05300,0.05100,0.51400,-0.58500,158.24000,-0.75000
191125_17.20.30.651,-0.02500,0.01100,0.98800,0.07000,-0.14000,-0.05300,0.05100,0.51700,-0.58600,157.97000,-0.27000
191125_17.20.30.652,-0.02500,0.01000,0.98700,0.07000,-0.12300,-0.07000,0.05700,0.51000,-0.58500,158.52000,0.55000
191125_17.20.30.652,-0.02500,0.01000,0.99000,0.03500,-0.08700,-0.05300,0.05300,0.51500,-0.58100,159.01000,0.49000
191125_17.20.30.653,-0.02600,0.01100,0.98700,0.07000,-0.10500,-0.07000,0.04900,0.51400,-0.58900,158.15000,-0.86000
191125_17.20.30.654,-0.02400,0.01000,0.98900,0.08700,-0.10500,-0.05300,0.05100,0.51500,-0.58700,158.58000,0.43000
191125_17.20.30.655,-0.02500,0.00900,0.98800,0.05300,-0.10500,-0.05300,0.05100,0.51600,-0.58400,159.52000,0.94000
191125_17.20.30.655,-0.02500,0.01000,0.98900,0.07000,-0.07000,-0.07000,0.05200,0.51300,-0.58800,159.05000,-0.47000
191125_17.20.30.656,-0.02400,0.01000,0.98500,0.07000,-0.08700,-0.07000,0.05100,0.51600,-0.59000,158.74000,-0.31000
191125_17.20.30.657,-0.02400,0.01100,0.99200,0.08700,-0.10500,-0.03500,0.04900,0.51400,-0.59800,158.82000,0.08000
191125_17.20.30.658,-0.02300,0.01100,0.98900,0.07000,-0.10500,-0.05300,0.04800,0.51100,-0.58500,158.99000,0.17000
191125_17.20.30.658,-0.02500,0.01100,0.98600,0.07000,-0.10500,-0.05300,0.05000,0.51100,-0.58400,158.53000,-0.46000
191125_17.20.30.659,-0.02400,0.01000,0.98600,0.07000,-0.10500,-0.05300,0.05100,0.51500,-0.58600,158.26000,-0.27000
191125_17.20.30.660,-0.02600,0.01000,0.99200,0.07000,-0.10500,-0.07000,0.05200,0.51400,-0.58700,158.67000,0.41000
191125_17.20.30.661,-0.02400,0.01100,0.99000,0.05300,-0.10500,-0.05300,0.05000,0.51100,-0.58600,158.68000,0.01000
191125_17.20.30.661,-0.02500,0.01000,0.98800,0.07000,-0.12300,-0.05300,0.05000,0.51100,-0.58700,158.99000,0.31000
191125_17.20.30.662,-0.02500,0.01000,0.98600,0.05300,-0.10500,-0.05300,0.05100,0.51200,-0.58500,158.72000,-0.27000
191125_17.20.30.663,-0.02500,0.01000,0.98900,0.07000,-0.08700,-0.03500,0.05300,0.50900,-0.58700,159.24000,0.52000
191125_17.20.30.663,-0.02600,0.00900,0.99000,0.07000,-0.10500,-0.05300,0.04700,0.50700,-0.58600,158.88000,-0.36000
191125_17.20.30.664,-0.02500,0.01000,0.98800,0.07000,-0.10500,-0.05300,0.05200,0.51100,-0.58900,158.66000,-0.22000
191125_17.20.30.665,-0.02600,0.01000,0.98900,0.07000,-0.07000,-0.05300,0.05000,0.51000,-0.59200,158.42000,-0.24000
191125_17.20.30.666,-0.02500,0.01000,0.98900,0.05300,-0.08700,-0.05300,0.04900,0.51500,-0.58900,158.79000,0.37000
191125_17.20.30.666,-0.02500,0.01100,0.98600,0.07000,-0.12300,-0.03500,0.04600,0.51300,-0.59000,158.22000,-0.57000
191125_17.20.30.667,-0.02500,0.01100,0.98900,0.08700,-0.08700,-0.05300,0.05100,0.51400,-0.58600,159.08000,0.86000
191125_17.20.30.668,-0.02400,0.01000,0.98900,0.07000,-0.08700,-0.07000,0.04900,0.51600,-0.59400,158.51000,-0.57000
191125_17.20.30.669,-0.02500,0.01000,0.99000,0.07000,-0.10500,-0.05300,0.05000,0.51500,-0.59000,158.58000,0.07000
191125_17.20.30.669,-0.02500,0.01000,0.98800,0.03500,-0.07000,-0.05300,0.04700,0.51400,-0.59200,159.18000,0.60000
191125_17.20.30.670,-0.02500,0.01100,0.98700,0.08700,-0.10500,-0.05300,0.05100,0.51100,-0.59000,158.71000,-0.47000
191125_17.20.30.671,-0.02400,0.00900,0.98900,0.07000,-0.10500,-0.07000,0.05200,0.51100,-0.59600,159.01000,0.30000
191125_17.20.30.672,-0.02400,0.01100,0.98900,0.08700,-0.10500,-0.07000,0.05300,0.51400,-0.58900,159.29000,0.28000
191125_17.20.30.672,-0.02600,0.01200,0.98900,0.05300,-0.10500,-0.03500,0.05000,0.51200,-0.59100,158.78000,-0.51000
191125_17.20.30.673,-0.02500,0.01000,0.98900,0.10500,-0.08700,-0.05300,0.05000,0.51200,-0.58500,158.09000,-0.69000
191125_17.20.30.674,-0.02500,0.01000,0.98700,0.07000,-0.08700,-0.05300,0.05200,0.51500,-0.58500,158.49000,0.40000
191125_17.20.30.674,-0.02600,0.01000,0.99100,0.05300,-0.10500,-0.07000,0.04900,0.51200,-0.58700,158.39000,-0.10000
191125_17.20.30.675,-0.02500,0.00900,0.98800,0.03500,-0.10500,-0.07000,0.05100,0.51000,-0.58600,158.81000,0.42000
191125_17.20.30.676,-0.02500,0.01000,0.98700,0.07000,-0.10500,-0.05300,0.04900,0.51600,-0.59100,159.08000,0.27000
191125_17.20.30.677,-0.02500,0.01000,0.98700,0.05300,-0.10500,-0.05300,0.04900,0.50900,-0.59100,159.37000,0.29000
191125_17.20.30.677,-0.02500,0.01100,0.98900,0.10500,-0.10500,-0.08700,0.04700,0.50900,-0.59200,159.27000,-0.10000
191125_17.20.30.678,-0.02400,0.01000,0.99100,0.08700,-0.08700,-0.03500,0.04800,0.51000,-0.59700,159.20000,-0.07000
191125_17.20.30.679,-0.02500,0.01000,0.98800,0.08700,-0.10500,-0.05300,0.04900,0.51100,-0.59200,158.34000,-0.86000
191125_17.20.30.680,-0.02500,0.00900,0.98800,0.05300,-0.10500,-0.05300,0.05200,0.51600,-0.59900,158.43000,0.09000
191125_17.20.30.680,-0.02500,0.01000,0.98900,0.05300,-0.07000,-0.07000,0.05300,0.50900,-0.58800,159.11000,0.68000
191125_17.20.30.681,-0.02500,0.01000,0.98800,0.05300,-0.08700,-0.05300,0.05300,0.51300,-0.58500,158.84000,-0.27000
191125_17.20.30.682,-0.02500,0.01000,0.98800,0.05300,-0.08700,-0.05300,0.04800,0.51500,-0.58400,158.68000,-0.16000
191125_17.20.30.683,-0.02500,0.01100,0.98900,0.08700,-0.12300,-0.05300,0.04900,0.51600,-0.59000,159.02000,0.34000
191125_17.20.30.683,-0.02500,0.01000,0.98800,0.05300,-0.10500,-0.05300,0.05300,0.51500,-0.58800,158.78000,-0.24000
191125_17.20.30.684,-0.02400,0.01000,0.98700,0.07000,-0.10500,-0.03500,0.05100,0.51500,-0.58700,158.71000,-0.07000
191125_17.20.30.685,-0.02400,0.01000,0.98800,0.05300,-0.07000,-0.05300,0.05500,0.51300,-0.59000,158.35000,-0.36000
191125_17.20.30.686,-0.02400,0.01000,0.98800,0.08700,-0.08700,-0.05300,0.05200,0.51100,-0.59000,158.10000,-0.25000
191125_17.20.30.686,-0.02500,0.01100,0.99100,0.07000,-0.10500,-0.03500,0.04900,0.51500,-0.59200,158.76000,0.66000
191125_17.20.30.687,-0.02500,0.01000,0.98800,0.05300,-0.14000,-0.07000,0.05100,0.51500,-0.59300,158.80000,0.04000
191125_17.20.30.688,-0.02600,0.01000,0.98900,0.08700,-0.08700,-0.05300,0.05000,0.51600,-0.59100,158.61000,-0.19000
191125_17.20.30.688,-0.02500,0.01100,0.98800,0.08700,-0.08700,-0.05300,0.05000,0.51500,-0.58500,159.14000,0.53000
191125_17.20.30.689,-0.02600,0.01100,0.98900,0.05300,-0.10500,-0.05300,0.05300,0.51600,-0.58500,158.79000,-0.35000
191125_17.20.30.690,-0.02500,0.01000,0.99000,0.03500,-0.10500,-0.07000,0.05500,0.51700,-0.58500,158.45000,-0.34000
191125_17.20.30.691,-0.02400,0.01000,0.98600,0.07000,-0.08700,-0.03500,0.05200,0.51200,-0.58900,158.89000,0.44000
191125_17.20.30.691,-0.02500,0.01000,0.99000,0.08700,-0.08700,-0.07000,0.05100,0.51400,-0.58800,158.69000,-0.20000
191125_17.20.30.692,-0.02500,0.01000,0.98600,0.12300,-0.10500,-0.05300,0.04900,0.51500,-0.59200,159.38000,0.69000
191125_17.20.30.693,-0.02500,0.01100,0.98900,0.15700,-0.07000,-0.03500,0.04900,0.51400,-0.59000,158.95000,-0.43000
191125_17.20.30.694,-0.02700,0.01000,0.99900,0.15700,-0.07000,-0.01800,0.04700,0.51800,-0.59200,158.99000,0.04000
191125_17.20.30.694,-0.02400,0.01100,0.98700,0.21000,-0.10500,-0.01800,0.04700,0.51700,-0.59500,158.32000,-0.67000
191125_17.20.30.695,-0.02700,0.01000,0.99600,0.10500,-0.12300,-0.01800,0.05000,0.51600,-0.59200,158.47000,0.15000
191125_17.20.30.696,-0.02500,0.01300,0.96500,0.31500,-0.14000,-0.07000,0.05000,0.51800,-0.59000,158.77000,0.30000
191125_17.20.30.696,-0.02400,0.01200,0.99000,0.15700,-0.14000,-0.05300,0.05200,0.51400,-0.58500,159.22000,0.45000
191125_17.20.30.697,-0.02500,0.00700,0.98500,-0.03500,-0.10500,-0.05300,0.04900,0.51400,-0.58900,158.91000,-0.31000
191125_17.20.30.698,-0.02500,0.01300,0.97500,0.31500,-0.17500,-0.07000,0.05300,0.51300,-0.59000,158.75000,-0.16000
191125_17.20.30.699,-0.02400,0.01000,0.97400,-0.03500,-0.12300,-0.05300,0.05900,0.51500,-0.58900,158.89000,0.14000
191125_17.20.30.700,-0.02200,0.01200,0.96200,0.35000,-0.12300,-0.03500,0.05400,0.51300,-0.59500,159.07000,0.18000
191125_17.20.30.700,-0.02600,0.01000,0.99800,0.12300,-0.08700,-0.05300,0.05100,0.51500,-0.59300,159.05000,-0.02000
191125_17.20.30.701,-0.02400,0.01200,0.97200,0.17500,-0.10500,-0.03500,0.05400,0.51200,-0.59300,158.55000,-0.50000
191125_17.20.30.702,-0.02500,0.01100,0.99000,0.12300,-0.10500,-0.03500,0.05200,0.51300,-0.59500,158.90000,0.35000
191125_17.20.30.702,-0.02500,0.01100,0.99000,0.03500,-0.08700,-0.05300,0.04300,0.51200,-0.59100,158.89000,-0.01000
191125_17.20.30.703,-0.02500,0.01200,0.98300,0.03500,-0.08700,-0.05300,0.04500,0.51300,-0.58700,158.64000,-0.25000
191125_17.20.30.704,-0.02200,0.01400,0.97800,0.12300,-0.12300,-0.05300,0.04400,0.51100,-0.58800,158.71000,0.07000
191125_17.20.30.705,-0.02300,0.01100,0.94700,0.38500,-0.19200,-0.08700,0.04300,0.51100,-0.59800,158.85000,0.14000
191125_17.20.30.705,-0.02600,0.01000,1.00400,0.15700,-0.07000,-0.05300,0.04200,0.51600,-0.59700,158.78000,-0.07000
191125_17.20.30.706,-0.02500,0.01200,0.97000,0.14000,-0.14000,-0.07000,0.04200,0.51200,-0.59500,157.89000,-0.89000
191125_17.20.30.707,-0.02500,0.01200,0.97900,0.22800,-0.12300,-0.05300,0.04500,0.51100,-0.59700,158.86000,0.97000
191125_17.20.30.708,-0.02600,0.00800,0.99300,0.03500,-0.12300,-0.03500,0.04700,0.51100,-0.59100,158.82000,-0.04000
191125_17.20.30.708,-0.02600,0.01000,0.96100,0.14000,-0.12300,-0.01800,0.04500,0.51200,-0.59000,159.02000,0.20000
191125_17.20.30.709,-0.02600,0.00900,0.98700,0.29800,-0.12300,-0.08700,0.04600,0.51300,-0.59200,159.06000,0.04000
191125_17.20.30.710,-0.02700,0.00800,1.03900,-0.28000,-0.03500,-0.01800,0.04700,0.51500,-0.58600,157.98000,-1.08000
191125_17.20.30.711,-0.02300,0.00800,0.99000,-0.19200,-0.10500,-0.07000,0.04700,0.51400,-0.58600,159.11000,1.13000
191125_17.20.30.711,-0.02700,0.01000,0.99800,0.10500,-0.10500,-0.05300,0.04900,0.51700,-0.58700,158.67000,-0.44000
191125_17.20.30.712,-0.02300,0.01100,1.00200,-0.10500,-0.07000,-0.03500,0.05000,0.51300,-0.59000,158.33000,-0.34000
191125_17.20.30.713,-0.02600,0.01000,0.98900,0.01800,-0.08700,-0.05300,0.05400,0.51300,-0.59300,158.54000,0.21000
191125_17.20.30.713,-0.02500,0.01100,0.99000,0.08700,-0.08700,-0.05300,0.05200,0.51100,-0.59100,158.45000,-0.09000
191125_17.20.30.714,-0.02300,0.01300,0.97300,0.12300,-0.14000,-0.05300,0.04900,0.51600,-0.59300,159.09000,0.64000
191125_17.20.30.715,-0.02200,0.01200,0.95400,0.36800,-0.17500,-0.08700,0.04900,0.51400,-0.58100,159.12000,0.03000
191125_17.20.30.716,-0.02200,0.01000,1.01900,0.10500,-0.05300,-0.05300,0.05000,0.51200,-0.59000,158.97000,-0.15000
191125_17.20.30.716,-0.02400,0.01100,0.96400,0.21000,-0.10500,-0.07000,0.04800,0.51600,-0.59300,158.72000,-0.25000
191125_17.20.30.717,-0.02600,0.01000,0.98500,0.24500,-0.14000,-0.07000,0.04800,0.51500,-0.58800,159.85000,1.13000
191125_17.20.30.718,-0.02700,0.00900,1.01100,-0.14000,-0.07000,-0.05300,0.04800,0.51400,-0.59100,159.30000,-0.55000
191125_17.20.30.719,-0.02500,0.01200,0.97800,0.22800,-0.15700,-0.05300,0.05300,0.51800,-0.59100,158.98000,-0.32000
191125_17.20.30.719,-0.02500,0.01100,0.98700,0.08700,-0.10500,-0.07000,0.05500,0.51400,-0.60000,159.08000,0.10000
191125_17.20.30.720,-0.02500,0.01100,0.99200,0.03500,-0.10500,-0.03500,0.05500,0.51200,-0.59200,158.84000,-0.24000
191125_17.20.30.721,-0.02400,0.01100,0.98300,-0.01800,-0.10500,-0.07000,0.05300,0.50900,-0.58500,158.48000,-0.36000
191125_17.20.30.722,-0.02500,0.01100,0.98400,0.12300,-0.12300,-0.07000,0.05500,0.51400,-0.59000,158.47000,-0.01000
191125_17.20.30.722,-0.02500,0.01000,0.99400,0.00000,-0.12300,-0.05300,0.05200,0.51600,-0.58800,159.03000,0.56000
191125_17.20.30.723,-0.02400,0.01000,0.98800,-0.01800,-0.12300,-0.03500,0.05300,0.51500,-0.59200,158.58000,-0.45000
191125_17.20.30.724,-0.02600,0.01000,0.98600,0.03500,-0.08700,-0.05300,0.05300,0.51700,-0.58900,158.93000,0.35000
191125_17.20.30.725,-0.02500,0.01000,0.98800,0.05300,-0.08700,-0.07000,0.05100,0.51300,-0.58800,158.44000,-0.49000
191125_17.20.30.725,-0.02500,0.01100,0.99100,0.00000,-0.08700,-0.05300,0.05300,0.51600,-0.58400,158.62000,0.18000
191125_17.20.30.726,-0.02500,0.01100,0.98700,0.07000,-0.08700,-0.03500,0.05200,0.51500,-0.59500,158.68000,0.06000
191125_17.20.30.727,-0.02400,0.01000,0.98600,0.05300,-0.10500,-0.05300,0.05400,0.51700,-0.58100,158.43000,-0.25000
191125_17.20.30.728,-0.02400,0.01000,0.99100,0.00000,-0.10500,-0.07000,0.05400,0.51300,-0.59000,158.85000,0.42000
191125_17.20.30.728,-0.02500,0.01000,0.98800,0.03500,-0.08700,-0.07000,0.05200,0.51700,-0.59300,158.84000,-0.01000
191125_17.20.30.729,-0.02500,0.01000,0.98600,0.05300,-0.10500,-0.05300,0.04800,0.51900,-0.58800,158.82000,-0.02000
191125_17.20.30.730,-0.02500,0.01000,0.98900,0.07000,-0.10500,-0.03500,0.05000,0.51500,-0.59200,158.58000,-0.24000
191125_17.20.30.731,-0.02600,0.01000,0.98800,0.05300,-0.10500,-0.05300,0.04900,0.51500,-0.58800,159.03000,0.45000
191125_17.20.30.732,-0.02500,0.01100,0.99000,0.07000,-0.08700,-0.05300,0.04700,0.51800,-0.59400,158.79000,-0.24000
191125_17.20.30.733,-0.02500,0.01000,0.98800,0.05300,-0.07000,-0.05300,0.05200,0.51600,-0.59500,158.84000,0.05000
191125_17.20.30.734,-0.02500,0.01000,0.99000,0.03500,-0.10500,-0.05300,0.05000,0.51500,-0.59600,158.15000,-0.69000
191125_17.20.30.735,-0.02400,0.01000,0.98900,0.03500,-0.12300,-0.05300,0.04900,0.51300,-0.59100,158.81000,0.66000
191125_17.20.30.736,-0.02500,0.01100,0.98800,0.05300,-0.12300,-0.05300,0.04900,0.51300,-0.59200,158.90000,0.09000
191125_17.20.30.736,-0.02500,0.01000,0.98600,0.07000,-0.08700,-0.05300,0.04900,0.51500,-0.59300,159.31000,0.41000
191125_17.20.30.737,-0.02600,0.01100,0.98900,0.07000,-0.08700,-0.05300,0.05300,0.51100,-0.59900,158.82000,-0.49000
191125_17.20.30.738,-0.02400,0.01000,0.99000,0.07000,-0.10500,-0.07000,0.05000,0.51300,-0.59100,158.53000,-0.29000
191125_17.20.30.738,-0.02500,0.01000,0.98900,0.05300,-0.10500,-0.05300,0.05200,0.51100,-0.59000,159.11000,0.58000
191125_17.20.30.739,-0.02500,0.01000,0.98700,0.07000,-0.12300,-0.07000,0.05100,0.51600,-0.59200,158.81000,-0.30000
191125_17.20.30.740,-0.02300,0.01000,0.98400,0.08700,-0.10500,-0.03500,0.05300,0.51900,-0.58900,158.70000,-0.11000
191125_17.20.30.741,-0.02300,0.01000,0.99100,0.05300,-0.10500,-0.03500,0.05400,0.51500,-0.58800,158.62000,-0.08000
191125_17.20.30.741,-0.02500,0.01000,0.98900,0.05300,-0.08700,-0.05300,0.05000,0.51500,-0.59200,159.22000,0.60000
191125_17.20.30.742,-0.02500,0.00900,0.98900,0.07000,-0.12300,-0.07000,0.05400,0.51500,-0.58900,158.93000,-0.29000
191125_17.20.30.743,-0.02500,0.01000,0.98700,0.07000,-0.12300,-0.07000,0.05100,0.51400,-0.59300,158.65000,-0.28000
191125_17.20.30.744,-0.02200,0.01100,0.97900,0.07000,-0.12300,-0.05300,0.05500,0.51600,-0.59300,159.00000,0.35000
191125_17.20.30.744,-0.02300,0.01400,0.94600,0.45500,-0.15700,-0.07000,0.05100,0.51300,-0.59000,159.25000,0.25000
191125_17.20.30.745,-0.02400,0.00700,1.00200,-0.29800,-0.05300,-0.03500,0.05500,0.51300,-0.59000,158.75000,-0.50000
191125_17.20.30.746,-0.02400,0.01300,0.96500,0.15700,-0.12300,-0.08700,0.05600,0.51300,-0.58800,158.79000,0.04000
191125_17.20.30.747,-0.02600,0.01100,0.97400,0.29800,-0.14000,-0.07000,0.04900,0.51400,-0.59200,159.15000,0.36000
191125_17.20.30.748,-0.02300,0.01000,0.98800,0.03500,-0.10500,-0.07000,0.05500,0.51500,-0.59400,159.46000,0.31000
191125_17.20.30.748,-0.02500,0.01000,0.97900,0.12300,-0.10500,-0.05300,0.05600,0.51500,-0.58700,158.80000,-0.66000
191125_17.20.30.749,-0.02400,0.01100,0.98000,0.10500,-0.10500,-0.05300,0.05200,0.51400,-0.58700,158.93000,0.13000
191125_17.20.30.750,-0.02600,0.01000,0.99100,0.08700,-0.12300,-0.05300,0.05400,0.51500,-0.59000,158.77000,-0.16000
191125_17.20.30.751,-0.02500,0.01000,0.98400,0.07000,-0.10500,-0.07000,0.05200,0.51500,-0.59100,158.72000,-0.05000
191125_17.20.30.751,-0.02400,0.01100,0.98000,0.14000,-0.12300,-0.05300,0.05100,0.51400,-0.58900,158.37000,-0.35000
191125_17.20.30.752,-0.02500,0.01000,0.99000,0.07000,-0.08700,-0.07000,0.05400,0.51700,-0.59300,158.55000,0.18000
191125_17.20.30.753,-0.02500,0.01000,0.99000,0.08700,-0.08700,-0.05300,0.04900,0.51200,-0.59100,159.79000,1.24000
191125_17.20.30.754,-0.02600,0.01000,0.98800,0.05300,-0.08700,-0.07000,0.05000,0.51300,-0.59400,158.79000,-1.00000
191125_17.20.30.754,-0.02500,0.01000,0.98400,0.08700,-0.12300,-0.05300,0.05200,0.51300,-0.58900,158.26000,-0.53000
191125_17.20.30.766,-0.02500,0.01000,0.98900,0.05300,-0.10500,-0.05300,0.04700,0.51300,-0.59200,158.94000,0.68000
191125_17.20.30.782,-0.02400,0.01000,0.98700,0.10500,-0.10500,-0.07000,0.04800,0.51300,-0.59000,158.78000,-0.16000
191125_17.20.30.798,-0.02300,0.01100,0.98900,0.07000,-0.10500,-0.05300,0.05100,0.51500,-0.58400,158.72000,-0.06000
191125_17.20.30.814,-0.02500,0.01100,0.98600,0.07000,-0.10500,-0.07000,0.04900,0.51400,-0.59200,158.70000,-0.02000
191125_17.20.30.830,-0.02500,0.01000,0.98700,0.03500,-0.10500,-0.05300,0.05200,0.51500,-0.59600,158.17000,-0.53000
191125_17.20.30.846,-0.02600,0.00900,0.98800,0.08700,-0.10500,-0.05300,0.04900,0.51400,-0.59300,158.94000,0.77000
191125_17.20.30.862,-0.02400,0.00900,0.98800,0.05300,-0.10500,-0.07000,0.05100,0.51300,-0.59100,158.78000,-0.16000
191125_17.20.30.878,-0.02400,0.01000,0.98800,0.05300,-0.08700,-0.05300,0.04700,0.51400,-0.59100,158.65000,-0.13000
191125_17.20.30.894,-0.02500,0.01000,0.98800,0.07000,-0.08700,-0.05300,0.04600,0.51200,-0.58800,158.83000,0.18000
191125_17.20.30.910,-0.02500,0.01000,0.99000,0.05300,-0.10500,-0.07000,0.04800,0.51200,-0.58800,158.29000,-0.54000
191125_17.20.30.926,-0.02400,0.01000,0.98500,0.08700,-0.10500,-0.05300,0.05300,0.51700,-0.58900,159.35000,1.06000
191125_17.20.30.942,-0.02500,0.01100,0.98900,0.07000,-0.10500,-0.05300,0.05000,0.51200,-0.58800,158.75000,-0.60000
191125_17.20.30.958,-0.02500,0.01000,0.98800,0.08700,-0.10500,-0.05300,0.04800,0.50900,-0.59300,159.39000,0.64000
191125_17.20.30.974,-0.02500,0.01000,0.99000,0.05300,-0.08700,-0.05300,0.05000,0.51000,-0.59100,159.49000,0.10000
191125_17.20.30.990,-0.02500,0.01100,0.98800,0.05300,-0.10500,-0.05300,0.04800,0.51500,-0.59300,159.15000,-0.34000
191125_17.20.31.006,-0.02400,0.01000,0.98800,0.08700,-0.08700,-0.05300,0.04800,0.51500,-0.58800,159.16000,0.01000
191125_17.20.31.022,-0.02500,0.01000,0.99100,0.07000,-0.10500,-0.05300,0.05100,0.51500,-0.59700,158.92000,-0.24000
191125_17.20.31.038,-0.02400,0.01000,0.98600,0.08700,-0.08700,-0.05300,0.04900,0.51200,-0.60000,158.37000,-0.55000
191125_17.20.31.054,-0.02500,0.01100,0.98700,0.05300,-0.10500,-0.05300,0.05000,0.51600,-0.59100,159.20000,0.83000
191125_17.20.31.070,-0.02400,0.01100,0.98900,0.05300,-0.12300,-0.05300,0.04800,0.51200,-0.59600,158.98000,-0.22000
191125_17.20.31.086,-0.02400,0.01000,0.98900,0.07000,-0.08700,-0.05300,0.05100,0.51500,-0.59300,158.99000,0.01000
191125_17.20.31.102,-0.02600,0.01100,0.99000,0.07000,-0.12300,-0.05300,0.04900,0.51600,-0.58900,158.61000,-0.38000
191125_17.20.31.118,-0.02500,0.01000,0.98800,0.08700,-0.12300,-0.07000,0.05000,0.51300,-0.59000,158.32000,-0.29000
191125_17.20.31.134,-0.02500,0.01000,0.98900,0.03500,-0.08700,-0.07000,0.05000,0.51900,-0.59000,159.17000,0.85000
191125_17.20.31.150,-0.02400,0.01100,0.98800,0.07000,-0.10500,-0.05300,0.05000,0.51300,-0.59900,159.09000,-0.08000
191125_17.20.31.166,-0.02400,0.00900,0.98900,0.07000,-0.08700,-0.05300,0.04800,0.51700,-0.59500,159.32000,0.23000
191125_17.20.31.182,-0.02500,0.01000,0.98700,0.08700,-0.10500,-0.03500,0.04600,0.51600,-0.60000,158.16000,-1.16000
191125_17.20.31.198,-0.02500,0.01000,0.99100,0.05300,-0.12300,-0.05300,0.04800,0.51400,-0.59600,159.08000,0.92000
191125_17.20.31.214,-0.02400,0.01100,0.98700,0.07000,-0.08700,-0.05300,0.05000,0.51000,-0.59700,158.62000,-0.46000
191125_17.20.31.230,-0.02500,0.01100,0.98900,0.05300,-0.10500,-0.03500,0.05200,0.51600,-0.59100,158.58000,-0.04000
191125_17.20.31.246,-0.02500,0.00900,0.98800,0.07000,-0.10500,-0.03500,0.04700,0.51500,-0.59400,159.02000,0.44000
191125_17.20.31.262,-0.02400,0.01000,0.99000,0.07000,-0.10500,-0.03500,0.05000,0.51800,-0.59100,158.59000,-0.43000
191125_17.20.31.278,-0.02400,0.01000,0.98800,0.08700,-0.08700,-0.05300,0.05000,0.51300,-0.59700,158.28000,-0.31000
191125_17.20.31.294,-0.02500,0.01000,0.98900,0.07000,-0.12300,-0.05300,0.04600,0.51600,-0.59300,158.69000,0.41000
191125_17.20.31.310,-0.02400,0.01000,0.98700,0.03500,-0.12300,-0.05300,0.05100,0.51500,-0.59000,158.81000,0.12000
191125_17.20.31.326,-0.02500,0.01000,0.98600,0.07000,-0.10500,-0.07000,0.05000,0.51100,-0.59600,158.79000,-0.02000
191125_17.20.31.342,-0.02400,0.01000,0.99100,0.07000,-0.10500,-0.05300,0.04800,0.51100,-0.59400,158.82000,0.03000
191125_17.20.31.358,-0.02500,0.01000,0.98600,0.08700,-0.12300,-0.07000,0.05200,0.51300,-0.59800,158.80000,-0.02000
191125_17.20.31.374,-0.02500,0.01000,0.98800,0.05300,-0.10500,-0.08700,0.05300,0.50800,-0.59500,158.75000,-0.05000
191125_17.20.31.390,-0.02600,0.01100,0.98900,0.05300,-0.10500,-0.07000,0.05000,0.51500,-0.59600,159.37000,0.62000
191125_17.20.31.406,-0.02400,0.01100,0.98700,0.05300,-0.10500,-0.03500,0.04700,0.51200,-0.58900,158.72000,-0.65000
191125_17.20.31.422,-0.02400,0.01000,0.98800,0.07000,-0.10500,-0.05300,0.04600,0.51100,-0.59000,159.46000,0.74000
191125_17.20.31.438,-0.02500,0.01100,0.99100,0.08700,-0.08700,-0.05300,0.05000,0.51400,-0.59000,159.02000,-0.44000
191125_17.20.31.454,-0.02600,0.00900,0.98800,0.08700,-0.10500,-0.05300,0.04600,0.51300,-0.58900,159.04000,0.02000
191125_17.20.31.470,-0.02400,0.01000,0.98800,0.07000,-0.10500,-0.07000,0.05200,0.51100,-0.58900,158.89000,-0.15000
191125_17.20.31.486,-0.02400,0.01100,0.98800,0.05300,-0.12300,-0.05300,0.05000,0.51300,-0.58800,159.04000,0.15000
191125_17.20.31.502,-0.02500,0.01000,0.99000,0.07000,-0.10500,-0.05300,0.05600,0.51300,-0.58900,159.30000,0.26000
191125_17.20.31.518,-0.02500,0.01100,0.98900,0.08700,-0.12300,-0.03500,0.05300,0.51300,-0.59200,158.87000,-0.43000
191125_17.20.31.534,-0.02500,0.01000,0.98700,0.07000,-0.10500,-0.05300,0.05300,0.51400,-0.59000,159.62000,0.75000
191125_17.20.31.550,-0.02500,0.01000,0.98700,0.05300,-0.08700,-0.05300,0.05000,0.51500,-0.59100,158.64000,-0.98000
191125_17.20.31.566,-0.02400,0.01000,0.98900,0.05300,-0.10500,-0.05300,0.05100,0.51200,-0.59000,158.93000,0.29000
191125_17.20.31.582,-0.02600,0.01000,0.98900,0.07000,-0.12300,-0.07000,0.05000,0.51500,-0.58700,159.26000,0.33000
191125_17.20.31.598,-0.02500,0.01100,0.98800,0.07000,-0.08700,-0.05300,0.05000,0.50900,-0.59000,158.97000,-0.29000
191125_17.20.31.614,-0.02600,0.01100,0.98900,0.08700,-0.10500,-0.08700,0.04700,0.51300,-0.58800,158.22000,-0.75000
191125_17.20.31.630,-0.02500,0.01000,0.98600,0.05300,-0.08700,-0.07000,0.04900,0.51200,-0.59100,159.29000,1.07000
191125_17.20.31.646,-0.02500,0.00900,0.99100,0.05300,-0.08700,-0.07000,0.05000,0.51500,-0.59500,158.38000,-0.91000
191125_17.20.31.662,-0.02400,0.01000,0.98800,0.07000,-0.08700,-0.05300,0.05400,0.51500,-0.59000,158.42000,0.04000
191125_17.20.31.678,-0.02400,0.01000,0.99000,0.07000,-0.12300,-0.05300,0.04900,0.51100,-0.59000,158.76000,0.34000
191125_17.20.31.694,-0.02400,0.01000,0.98600,0.08700,-0.10500,-0.03500,0.04700,0.51100,-0.58500,158.44000,-0.32000
191125_17.20.31.710,-0.02400,0.00900,0.98600,0.07000,-0.10500,-0.05300,0.04900,0.51500,-0.58500,157.63000,-0.81000
191125_17.20.31.726,-0.02500,0.01000,0.99100,0.03500,-0.10500,-0.07000,0.05200,0.51600,-0.58900,159.27000,1.64000
191125_17.20.31.742,-0.02500,0.01100,0.98500,0.05300,-0.08700,-0.07000,0.04600,0.51500,-0.59100,158.93000,-0.34000
191125_17.20.31.758,-0.02600,0.01000,0.98800,0.03500,-0.10500,-0.05300,0.05100,0.51200,-0.58200,159.26000,0.33000
191125_17.20.31.774,-0.02600,0.01100,0.98900,0.05300,-0.08700,-0.05300,0.05000,0.51300,-0.58300,158.50000,-0.76000
191125_17.20.31.790,-0.02500,0.01100,0.99100,0.07000,-0.08700,-0.03500,0.05000,0.51300,-0.58500,158.18000,-0.32000
191125_17.20.31.806,-0.02400,0.01000,0.99000,0.07000,-0.10500,-0.05300,0.05000,0.51600,-0.58600,159.10000,0.92000
191125_17.20.31.822,-0.02300,0.01000,0.98700,0.07000,-0.12300,-0.05300,0.04900,0.51700,-0.59300,158.99000,-0.11000
191125_17.20.31.838,-0.02500,0.00900,0.98600,0.05300,-0.08700,-0.07000,0.04700,0.51700,-0.58100,158.79000,-0.20000
191125_17.20.31.854,-0.02500,0.01000,0.99000,0.07000,-0.10500,-0.03500,0.04800,0.51400,-0.59300,158.44000,-0.35000
191125_17.20.31.870,-0.02500,0.01000,0.99000,0.07000,-0.10500,-0.05300,0.04900,0.51500,-0.59200,159.13000,0.69000
191125_17.20.31.886,-0.02600,0.01100,0.98800,0.05300,-0.12300,-0.07000,0.04700,0.51700,-0.59200,158.93000,-0.20000
191125_17.20.31.902,-0.02500,0.01000,0.98600,0.08700,-0.10500,-0.03500,0.05000,0.51300,-0.59200,159.16000,0.23000
191125_17.20.31.918,-0.02500,0.01000,0.98800,0.07000,-0.10500,-0.07000,0.04900,0.51200,-0.58900,158.40000,-0.76000
191125_17.20.31.934,-0.02500,0.01100,0.99200,0.05300,-0.10500,-0.07000,0.05300,0.51700,-0.58900,158.94000,0.54000
191125_17.20.31.950,-0.02400,0.01000,0.98700,0.05300,-0.08700,-0.05300,0.05000,0.51000,-0.58600,159.09000,0.15000
191125_17.20.31.966,-0.02500,0.01000,0.99000,0.05300,-0.10500,-0.05300,0.04700,0.51200,-0.59400,159.02000,-0.07000
191125_17.20.31.982,-0.02400,0.01000,0.98500,0.08700,-0.10500,-0.05300,0.05000,0.51100,-0.59100,159.01000,-0.01000
191125_17.20.31.998,-0.02300,0.01000,0.99000,0.05300,-0.08700,-0.03500,0.05100,0.51400,-0.58600,159.08000,0.07000
191125_17.20.32.014,-0.02400,0.01100,0.99200,0.08700,-0.10500,-0.05300,0.05400,0.51600,-0.58900,159.03000,-0.05000
191125_17.20.32.030,-0.02600,0.01100,0.98800,0.10500,-0.12300,-0.05300,0.05100,0.51600,-0.59000,158.35000,-0.68000
191125_17.20.32.046,-0.02400,0.01000,0.99000,0.07000,-0.10500,-0.07000,0.04900,0.51600,-0.58600,159.30000,0.95000
191125_17.20.32.062,-0.02500,0.01000,0.98400,0.07000,-0.08700,-0.07000,0.04300,0.51400,-0.58600,159.35000,0.05000
191125_17.20.32.078,-0.02500,0.01100,0.99100,0.08700,-0.08700,-0.03500,0.04700,0.51600,-0.58300,159.18000,-0.17000
191125_17.20.32.094,-0.02500,0.01000,0.99000,0.07000,-0.08700,-0.05300,0.05100,0.51500,-0.58400,159.09000,-0.09000
191125_17.20.32.110,-0.02500,0.01000,0.98900,0.03500,-0.10500,-0.03500,0.04900,0.51400,-0.58200,159.24000,0.15000
191125_17.20.32.126,-0.02500,0.01000,0.98700,0.08700,-0.10500,-0.05300,0.05100,0.51200,-0.58000,158.93000,-0.31000
191125_17.20.32.142,-0.02500,0.01000,0.98700,0.08700,-0.12300,-0.05300,0.05200,0.51400,-0.58100,158.92000,-0.01000
191125_17.20.32.158,-0.02500,0.01000,0.99100,0.07000,-0.07000,-0.05300,0.05300,0.51600,-0.58500,159.27000,0.35000
191125_17.20.32.174,-0.02600,0.01000,0.98800,0.05300,-0.10500,-0.07000,0.05200,0.51600,-0.57900,158.84000,-0.43000
191125_17.20.32.190,-0.02400,0.00900,0.98900,0.08700,-0.10500,-0.05300,0.05200,0.52000,-0.58300,158.91000,0.07000
191125_17.20.32.206,-0.02500,0.00900,0.98900,0.07000,-0.10500,-0.05300,0.05300,0.51400,-0.58900,159.06000,0.15000
191125_17.20.32.222,-0.02400,0.01000,0.99100,0.07000,-0.08700,-0.05300,0.05000,0.51700,-0.58500,158.46000,-0.60000
191125_17.20.32.238,-0.02500,0.01100,0.98700,0.10500,-0.12300,-0.07000,0.04900,0.51800,-0.58600,158.94000,0.48000
191125_17.20.32.254,-0.02500,0.01000,0.98800,0.05300,-0.12300,-0.07000,0.05000,0.51700,-0.58300,159.36000,0.42000
191125_17.20.32.270,-0.02500,0.01100,0.98700,0.07000,-0.10500,-0.05300,0.05300,0.50900,-0.58700,159.47000,0.11000
191125_17.20.32.286,-0.02500,0.01100,0.98800,0.07000,-0.10500,-0.07000,0.05100,0.51500,-0.59400,158.54000,-0.93000
191125_17.20.32.302,-0.02400,0.01000,0.98900,0.05300,-0.07000,-0.07000,0.05300,0.51100,-0.58800,159.32000,0.78000
191125_17.20.32.318,-0.02600,0.01000,0.99100,0.05300,-0.07000,-0.07000,0.05000,0.51200,-0.58900,159.19000,-0.13000
191125_17.20.32.334,-0.02500,0.00900,0.98600,0.08700,-0.10500,-0.07000,0.05000,0.51500,-0.58800,158.35000,-0.84000
191125_17.20.32.350,-0.02400,0.01000,0.98700,0.07000,-0.08700,-0.03500,0.05000,0.51500,-0.59300,158.17000,-0.18000
191125_17.20.32.366,-0.02500,0.01100,0.98800,0.07000,-0.08700,-0.07000,0.05000,0.51600,-0.59500,158.63000,0.46000
191125_17.20.32.382,-0.02500,0.00900,0.99000,0.07000,-0.08700,-0.07000,0.05000,0.51600,-0.58900,158.90000,0.27000
191125_17.20.32.398,-0.02500,0.01000,0.98600,0.05300,-0.10500,-0.07000,0.04500,0.51200,-0.59300,159.30000,0.40000
191125_17.20.32.414,-0.02500,0.01000,0.98800,0.03500,-0.10500,-0.05300,0.04900,0.51800,-0.58400,158.43000,-0.87000
191125_17.20.32.430,-0.02400,0.01000,0.98800,0.08700,-0.07000,-0.07000,0.04900,0.51500,-0.59400,159.20000,0.77000
191125_17.20.32.446,-0.02400,0.01000,0.99100,0.05300,-0.10500,-0.05300,0.04900,0.51800,-0.59400,158.60000,-0.60000
191125_17.20.32.462,-0.02500,0.01000,0.98900,0.05300,-0.10500,-0.05300,0.05000,0.51800,-0.58500,158.56000,-0.04000
191125_17.20.32.478,-0.02400,0.01000,0.98800,0.05300,-0.12300,-0.05300,0.05100,0.51700,-0.58200,159.42000,0.86000
191125_17.20.32.494,-0.02400,0.01000,0.98800,0.07000,-0.08700,-0.05300,0.05000,0.51500,-0.58600,159.03000,-0.39000
191125_17.20.32.510,-0.02500,0.01100,0.98900,0.05300,-0.12300,-0.05300,0.05300,0.51700,-0.58900,158.65000,-0.38000
191125_17.20.32.526,-0.02600,0.01000,0.98900,0.05300,-0.10500,-0.05300,0.05300,0.51400,-0.59000,159.51000,0.86000
191125_17.20.32.542,-0.02500,0.01100,0.98900,0.07000,-0.10500,-0.07000,0.05200,0.51600,-0.59200,159.20000,-0.31000
191125_17.20.32.558,-0.02400,0.01000,0.98700,0.08700,-0.12300,-0.07000,0.04800,0.51500,-0.58600,159.08000,-0.12000
191125_17.20.32.574,-0.02400,0.00900,0.98800,0.07000,-0.10500,-0.05300,0.05200,0.51700,-0.58600,158.97000,-0.11000
191125_17.20.32.590,-0.02500,0.01100,0.99000,0.07000,-0.08700,-0.05300,0.04900,0.51300,-0.58800,159.12000,0.15000
191125_17.20.32.606,-0.02500,0.01100,0.98700,0.07000,-0.10500,-0.05300,0.05400,0.51300,-0.59100,159.02000,-0.10000
191125_17.20.32.622,-0.02500,0.01000,0.98800,0.03500,-0.07000,-0.05300,0.05200,0.51600,-0.59200,159.30000,0.28000
191125_17.20.32.638,-0.02500,0.01000,0.98900,0.05300,-0.08700,-0.07000,0.04900,0.51100,-0.58600,159.32000,0.02000
191125_17.20.32.654,-0.02500,0.01000,0.98900,0.05300,-0.12300,-0.05300,0.05100,0.51400,-0.59300,159.48000,0.16000
191125_17.20.32.670,-0.02400,0.01000,0.98700,0.08700,-0.10500,-0.05300,0.04800,0.51600,-0.59000,158.94000,-0.54000
191125_17.20.32.686,-0.02500,0.01000,0.98800,0.08700,-0.10500,-0.03500,0.05300,0.51100,-0.58800,159.14000,0.20000
191125_17.20.32.702,-0.02500,0.00900,0.98800,0.05300,-0.07000,-0.03500,0.05300,0.51400,-0.58800,158.89000,-0.25000
191125_17.20.32.718,-0.02500,0.01000,0.99100,0.05300,-0.10500,-0.05300,0.04900,0.51600,-0.58700,158.37000,-0.52000
191125_17.20.32.734,-0.02500,0.01200,0.98600,0.07000,-0.12300,-0.05300,0.05100,0.51600,-0.58900,158.77000,0.40000
191125_17.20.32.750,-0.02500,0.01000,0.98800,0.07000,-0.10500,-0.05300,0.05300,0.51500,-0.58800,159.01000,0.24000
191125_17.20.32.766,-0.02500,0.01000,0.98700,0.07000,-0.07000,-0.03500,0.05300,0.51500,-0.59100,159.43000,0.42000
191125_17.20.32.782,-0.02500,0.01000,0.99000,0.07000,-0.08700,-0.07000,0.05000,0.51200,-0.58600,159.42000,-0.01000
191125_17.20.32.798,-0.02400,0.01000,0.99000,0.05300,-0.10500,-0.05300,0.04900,0.51800,-0.59100,158.02000,-1.40000
191125_17.20.32.814,-0.02500,0.01000,0.98900,0.08700,-0.10500,-0.05300,0.05100,0.51700,-0.59100,158.89000,0.87000
191125_17.20.32.830,-0.02400,0.00900,0.99000,0.05300,-0.10500,-0.05300,0.04900,0.51600,-0.58800,158.63000,-0.26000
191125_17.20.32.846,-0.02500,0.01000,0.98700,0.07000,-0.08700,-0.07000,0.04900,0.51100,-0.58500,159.12000,0.49000
191125_17.20.32.862,-0.02600,0.01000,0.98900,0.05300,-0.08700,-0.05300,0.04900,0.51200,-0.59000,159.16000,0.04000
191125_17.20.32.878,-0.02500,0.01000,0.98800,0.07000,-0.10500,-0.05300,0.05100,0.51600,-0.58100,158.93000,-0.23000
191125_17.20.32.894,-0.02500,0.01000,0.99100,0.05300,-0.10500,-0.03500,0.04600,0.51700,-0.58400,159.28000,0.35000
191125_17.20.32.910,-0.02400,0.00900,0.98900,0.07000,-0.10500,-0.05300,0.05100,0.52000,-0.58500,158.81000,-0.47000
191125_17.20.32.926,-0.02600,0.01100,0.98900,0.07000,-0.08700,-0.05300,0.05300,0.51800,-0.57800,158.49000,-0.32000
191125_17.20.32.942,-0.02400,0.01000,0.98600,0.05300,-0.10500,-0.07000,0.05100,0.51800,-0.59100,158.76000,0.27000
191125_17.20.32.958,-0.02500,0.01000,0.98800,0.07000,-0.10500,-0.03500,0.05300,0.51600,-0.59400,158.88000,0.12000
191125_17.20.32.974,-0.02500,0.01100,0.98900,0.07000,-0.12300,-0.05300,0.05300,0.51200,-0.58700,159.15000,0.27000
191125_17.20.32.990,-0.02600,0.01000,0.99000,0.07000,-0.08700,-0.05300,0.05300,0.51100,-0.58800,159.03000,-0.12000
191125_17.20.33.006,-0.02500,0.00900,0.98600,0.08700,-0.10500,-0.05300,0.04800,0.51700,-0.58800,159.41000,0.38000
191125_17.20.33.022,-0.02500,0.01100,0.98700,0.07000,-0.08700,-0.05300,0.05300,0.51200,-0.59300,158.80000,-0.61000
191125_17.20.33.038,-0.02500,0.01100,0.99000,0.07000,-0.12300,-0.07000,0.04700,0.51500,-0.58500,157.88000,-0.92000
191125_17.20.33.054,-0.02500,0.01000,0.98900,0.07000,-0.10500,-0.07000,0.05100,0.51500,-0.58800,158.29000,0.41000
191125_17.20.33.070,-0.02500,0.01200,0.98900,0.08700,-0.12300,-0.05300,0.04800,0.51400,-0.58300,159.37000,1.08000
191125_17.20.33.086,-0.02600,0.01000,0.98800,0.05300,-0.08700,-0.05300,0.04900,0.51500,-0.58400,159.35000,-0.02000
191125_17.20.33.102,-0.02500,0.01000,0.99000,0.05300,-0.08700,-0.07000,0.05000,0.51600,-0.59400,158.57000,-0.78000
191125_17.20.33.118,-0.02600,0.01100,0.98700,0.07000,-0.10500,-0.07000,0.05400,0.51400,-0.59500,158.91000,0.34000
191125_17.20.33.134,-0.02400,0.01000,0.98800,0.07000,-0.08700,-0.07000,0.04900,0.51600,-0.58600,158.79000,-0.12000
191125_17.20.33.150,-0.02500,0.01000,0.99000,0.07000,-0.10500,-0.05300,0.05200,0.51900,-0.59000,158.31000,-0.48000
191125_17.20.33.166,-0.02500,0.01100,0.98800,0.07000,-0.08700,-0.05300,0.04800,0.51700,-0.58600,158.85000,0.54000
191125_17.20.33.182,-0.02500,0.00900,0.99000,0.03500,-0.10500,-0.05300,0.04400,0.51400,-0.58500,158.65000,-0.20000
191125_17.20.33.198,-0.02400,0.01000,0.98700,0.07000,-0.10500,-0.05300,0.04800,0.51400,-0.58800,158.48000,-0.17000
191125_17.20.33.214,-0.02500,0.01100,0.98800,0.05300,-0.08700,-0.03500,0.05100,0.51600,-0.58700,158.79000,0.31000
191125_17.20.33.230,-0.02600,0.01000,0.99100,0.05300,-0.10500,-0.03500,0.04800,0.51500,-0.58300,158.88000,0.09000
191125_17.20.33.246,-0.02500,0.01000,0.98900,0.07000,-0.10500,-0.03500,0.05000,0.51600,-0.59000,158.79000,-0.09000
191125_17.20.33.262,-0.02500,0.01000,0.98700,0.03500,-0.08700,-0.05300,0.05300,0.51800,-0.58100,159.22000,0.43000
191125_17.20.33.278,-0.02600,0.01000,0.98500,0.07000,-0.10500,-0.07000,0.05100,0.51700,-0.58400,158.77000,-0.45000
191125_17.20.33.294,-0.02400,0.01000,0.99000,0.07000,-0.05300,-0.05300,0.05200,0.51800,-0.58800,158.43000,-0.34000
191125_17.20.33.310,-0.02700,0.01000,0.98800,0.08700,-0.10500,-0.05300,0.05000,0.51800,-0.58800,158.47000,0.04000
191125_17.20.33.326,-0.02400,0.01000,0.99000,0.05300,-0.14000,-0.05300,0.04700,0.51200,-0.59000,158.88000,0.41000
191125_17.20.33.342,-0.02500,0.01000,0.98900,0.08700,-0.12300,-0.05300,0.05100,0.51600,-0.58500,158.83000,-0.05000
191125_17.20.33.358,-0.02300,0.01100,0.98600,0.07000,-0.10500,-0.05300,0.05300,0.51500,-0.58900,158.79000,-0.04000
191125_17.20.33.374,-0.02500,0.01000,0.99000,0.07000,-0.08700,-0.07000,0.04800,0.51600,-0.58300,158.78000,-0.01000
191125_17.20.33.390,-0.02500,0.00900,0.99100,0.05300,-0.10500,-0.05300,0.05100,0.52000,-0.58500,158.44000,-0.34000
191125_17.20.33.406,-0.02600,0.01000,0.98900,0.08700,-0.10500,-0.07000,0.04800,0.51800,-0.58800,159.50000,1.06000
191125_17.20.33.422,-0.02600,0.01000,0.98500,0.05300,-0.12300,-0.05300,0.04900,0.51800,-0.58600,158.40000,-1.10000
191125_17.20.33.438,-0.02600,0.01100,0.99000,0.05300,-0.08700,-0.05300,0.05100,0.51800,-0.58400,158.66000,0.26000
191125_17.20.33.454,-0.02500,0.00900,0.98900,0.05300,-0.12300,-0.07000,0.05100,0.51800,-0.59300,158.66000,0.00000
191125_17.20.33.470,-0.02500,0.00900,0.99100,0.03500,-0.12300,-0.03500,0.05400,0.51600,-0.58500,158.48000,-0.18000
191125_17.20.33.486,-0.02500,0.01000,0.98700,0.07000,-0.12300,-0.07000,0.05100,0.51600,-0.58200,159.34000,0.86000
191125_17.20.33.502,-0.02500,0.01000,0.98500,0.07000,-0.10500,-0.07000,0.04800,0.51300,-0.58500,158.88000,-0.46000
191125_17.20.33.518,-0.02400,0.01000,0.99100,0.05300,-0.07000,-0.05300,0.05600,0.51600,-0.58200,159.20000,0.32000
191125_17.20.33.534,-0.02400,0.00900,0.98800,0.07000,-0.10500,-0.03500,0.05400,0.51300,-0.58500,158.90000,-0.30000
191125_17.20.33.550,-0.02500,0.01000,0.98700,0.08700,-0.10500,-0.07000,0.05000,0.51500,-0.58500,158.81000,-0.09000
191125_17.20.33.566,-0.02400,0.01000,0.98700,0.07000,-0.10500,-0.05300,0.05000,0.51400,-0.59100,159.11000,0.30000
191125_17.20.33.582,-0.02500,0.01000,0.98900,0.07000,-0.07000,-0.05300,0.05100,0.51500,-0.58200,159.32000,0.21000
191125_17.20.33.598,-0.02600,0.00800,0.98900,0.05300,-0.10500,-0.03500,0.04800,0.51500,-0.58800,158.33000,-0.99000
191125_17.20.33.614,-0.02500,0.01000,0.98700,0.05300,-0.08700,-0.03500,0.04800,0.51500,-0.58800,158.64000,0.31000
191125_17.20.33.630,-0.02400,0.01100,0.98900,0.05300,-0.08700,-0.05300,0.05300,0.51500,-0.58900,159.10000,0.46000
191125_17.20.33.646,-0.02500,0.01000,0.98700,0.05300,-0.08700,-0.05300,0.04700,0.51300,-0.58000,159.33000,0.23000
191125_17.20.33.662,-0.02400,0.01100,0.98900,0.05300,-0.12300,-0.03500,0.04700,0.50800,-0.58800,159.29000,-0.04000
191125_17.20.33.678,-0.02600,0.01000,0.98900,0.05300,-0.08700,-0.05300,0.04800,0.51400,-0.57900,158.95000,-0.34000
191125_17.20.33.694,-0.02500,0.00900,0.98900,0.07000,-0.10500,-0.03500,0.04600,0.51300,-0.58400,159.15000,0.20000
191125_17.20.33.710,-0.02500,0.01100,0.98700,0.08700,-0.08700,-0.03500,0.05100,0.51200,-0.58900,158.50000,-0.65000
191125_17.20.33.726,-0.02700,0.01000,0.98800,0.05300,-0.08700,-0.03500,0.04600,0.51400,-0.58500,158.96000,0.46000
191125_17.20.33.742,-0.02400,0.01000,0.99000,0.08700,-0.12300,-0.05300,0.04900,0.51500,-0.58200,158.72000,-0.24000
191125_17.20.33.758,-0.02500,0.01000,0.98800,0.05300,-0.10500,-0.05300,0.04800,0.51400,-0.58300,159.06000,0.34000
191125_17.20.33.774,-0.02400,0.01000,0.98900,0.07000,-0.10500,-0.05300,0.04800,0.51000,-0.58400,158.58000,-0.48000
191125_17.20.33.790,-0.02500,0.01100,0.98900,0.05300,-0.08700,-0.07000,0.04700,0.51600,-0.58300,158.64000,0.06000
191125_17.20.33.806,-0.02500,0.01000,0.98800,0.08700,-0.12300,-0.05300,0.04600,0.51200,-0.57800,158.91000,0.27000
191125_17.20.33.822,-0.02500,0.01100,0.99000,0.07000,-0.10500,-0.07000,0.04900,0.51400,-0.58400,158.50000,-0.41000
191125_17.20.33.838,-0.02500,0.01000,0.98600,0.07000,-0.10500,-0.08700,0.04500,0.51200,-0.59200,158.88000,0.38000
191125_17.20.33.854,-0.02500,0.01100,0.99000,0.05300,-0.08700,-0.05300,0.04600,0.51500,-0.58100,158.74000,-0.14000
191125_17.20.33.870,-0.02400,0.01000,0.98700,0.08700,-0.12300,-0.05300,0.04700,0.51700,-0.59000,159.07000,0.33000
191125_17.20.33.886,-0.02500,0.01000,0.98800,0.07000,-0.07000,-0.05300,0.04800,0.51600,-0.58700,159.34000,0.27000
191125_17.20.33.902,-0.02400,0.01100,0.99000,0.07000,-0.10500,-0.05300,0.05200,0.51500,-0.58300,159.03000,-0.31000
191125_17.20.33.918,-0.02500,0.01000,0.98600,0.07000,-0.10500,-0.07000,0.04700,0.51600,-0.58500,159.20000,0.17000
191125_17.20.33.934,-0.02500,0.01000,0.99000,0.07000,-0.07000,-0.03500,0.04800,0.51200,-0.58400,159.37000,0.17000
191125_17.20.33.950,-0.02600,0.01000,0.99000,0.07000,-0.08700,-0.05300,0.04700,0.51500,-0.58100,158.67000,-0.70000
191125_17.20.33.966,-0.02400,0.01100,0.98800,0.05300,-0.08700,-0.05300,0.05000,0.51700,-0.58800,158.92000,0.25000
191125_17.20.33.982,-0.02500,0.00900,0.98800,0.07000,-0.10500,-0.05300,0.05300,0.51500,-0.58100,158.96000,0.04000
191125_17.20.33.998,-0.02500,0.00900,0.98800,0.07000,-0.12300,-0.03500,0.05100,0.51200,-0.58200,158.78000,-0.18000
191125_17.20.34.014,-0.02500,0.01000,0.98600,0.08700,-0.10500,-0.03500,0.05100,0.51400,-0.58000,159.09000,0.31000
191125_17.20.34.030,-0.02500,0.01000,0.99100,0.08700,-0.07000,-0.03500,0.04900,0.51500,-0.57800,158.83000,-0.26000
191125_17.20.34.046,-0.02500,0.01000,0.98900,0.05300,-0.10500,-0.05300,0.05100,0.51600,-0.57800,158.86000,0.03000
191125_17.20.34.062,-0.02500,0.01000,0.98800,0.03500,-0.08700,-0.05300,0.05200,0.51200,-0.57800,159.26000,0.40000
191125_17.20.34.078,-0.02500,0.01000,0.98800,0.07000,-0.10500,-0.07000,0.05200,0.51900,-0.58100,159.10000,-0.16000
191125_17.20.34.094,-0.02500,0.01000,0.99000,0.08700,-0.12300,-0.03500,0.05100,0.51600,-0.58400,159.01000,-0.09000
191125_17.20.34.110,-0.02600,0.01000,0.99100,0.08700,-0.12300,-0.05300,0.05100,0.51300,-0.57700,158.59000,-0.42000
191125_17.20.34.126,-0.02400,0.01100,0.98800,0.07000,-0.10500,-0.05300,0.05000,0.51500,-0.57400,158.38000,-0.21000
191125_17.20.34.142,-0.02500,0.01100,0.98900,0.07000,-0.08700,-0.07000,0.05200,0.51500,-0.57900,158.41000,0.03000
191125_17.20.34.158,-0.02500,0.00900,0.98900,0.07000,-0.10500,-0.05300,0.04800,0.51500,-0.58600,158.72000,0.31000
191125_17.20.34.174,-0.02500,0.01000,0.98700,0.05300,-0.08700,-0.05300,0.04700,0.51300,-0.58700,159.62000,0.90000
191125_17.20.34.190,-0.02400,0.01000,0.98900,0.05300,-0.10500,-0.05300,0.05300,0.51400,-0.59300,158.89000,-0.73000
191125_17.20.34.206,-0.02400,0.01000,0.98800,0.05300,-0.10500,-0.03500,0.05000,0.51300,-0.58400,159.37000,0.48000
191125_17.20.34.222,-0.02500,0.01000,0.99100,0.05300,-0.10500,-0.05300,0.04900,0.51300,-0.58400,159.01000,-0.36000
191125_17.20.34.238,-0.02400,0.01100,0.98600,0.07000,-0.08700,-0.07000,0.04800,0.51600,-0.59000,158.44000,-0.57000
191125_17.20.34.254,-0.02600,0.00900,0.98800,0.03500,-0.12300,-0.05300,0.05000,0.51200,-0.58800,158.75000,0.31000
191125_17.20.34.270,-0.02300,0.01000,0.98800,0.05300,-0.08700,-0.07000,0.05300,0.51200,-0.59200,159.03000,0.28000
191125_17.20.34.286,-0.02600,0.01200,0.98700,0.10500,-0.10500,-0.05300,0.05000,0.51200,-0.58100,159.05000,0.02000
191125_17.20.34.302,-0.02400,0.01100,0.98900,0.05300,-0.10500,-0.05300,0.04800,0.51300,-0.58500,158.90000,-0.15000
191125_17.20.34.318,-0.02500,0.01000,0.98800,0.05300,-0.07000,-0.05300,0.05000,0.51200,-0.59000,158.99000,0.09000
191125_17.20.34.334,-0.02500,0.01000,0.98800,0.07000,-0.08700,-0.05300,0.04900,0.51400,-0.58200,159.26000,0.27000
191125_17.20.34.350,-0.02500,0.01000,0.98900,0.07000,-0.10500,-0.03500,0.05000,0.51600,-0.58600,159.63000,0.37000
191125_17.20.34.366,-0.02600,0.01000,0.99000,0.07000,-0.07000,-0.03500,0.05000,0.51500,-0.58400,158.46000,-1.17000
191125_17.20.34.382,-0.02600,0.01000,0.99100,0.05300,-0.08700,-0.05300,0.04800,0.51300,-0.58500,158.71000,0.25000
191125_17.20.34.398,-0.02400,0.01000,0.98500,0.07000,-0.10500,-0.03500,0.05000,0.51300,-0.58300,159.22000,0.51000
191125_17.20.34.414,-0.02400,0.01000,0.98700,0.07000,-0.10500,-0.05300,0.04800,0.51200,-0.58300,158.66000,-0.56000
191125_17.20.34.430,-0.02400,0.01000,0.99000,0.03500,-0.10500,-0.05300,0.04900,0.51000,-0.59000,158.50000,-0.16000
191125_17.20.34.446,-0.02600,0.01000,0.98800,0.08700,-0.08700,-0.05300,0.05300,0.51500,-0.58700,158.67000,0.17000
191125_17.20.34.462,-0.02400,0.00800,0.98900,0.08700,-0.10500,-0.05300,0.04500,0.51400,-0.58900,159.46000,0.79000
191125_17.20.34.478,-0.02500,0.00900,0.98800,0.05300,-0.14000,-0.05300,0.05300,0.51500,-0.59100,158.52000,-0.94000
191125_17.20.34.494,-0.02500,0.01000,0.99100,0.05300,-0.12300,-0.05300,0.05200,0.51200,-0.59000,158.62000,0.10000
191125_17.20.34.510,-0.02600,0.01000,0.99000,0.05300,-0.08700,-0.07000,0.04900,0.51600,-0.59700,159.16000,0.54000
191125_17.20.34.526,-0.02300,0.01000,0.99000,0.07000,-0.10500,-0.05300,0.05400,0.51500,-0.59400,158.55000,-0.61000
191125_17.20.34.542,-0.02400,0.01000,0.98600,0.08700,-0.08700,-0.05300,0.05000,0.51000,-0.59000,158.89000,0.34000
191125_17.20.34.558,-0.02500,0.01000,0.98700,0.07000,-0.08700,-0.05300,0.05200,0.51200,-0.58900,159.06000,0.17000
191125_17.20.34.574,-0.02400,0.01100,0.99100,0.07000,-0.08700,-0.05300,0.05500,0.51000,-0.58400,158.67000,-0.39000
191125_17.20.34.590,-0.02400,0.01000,0.98800,0.07000,-0.10500,-0.05300,0.05000,0.51700,-0.59500,159.09000,0.42000
191125_17.20.34.606,-0.02400,0.01100,0.98700,0.07000,-0.08700,-0.07000,0.05000,0.51300,-0.58800,159.16000,0.07000
191125_17.20.34.622,-0.02600,0.01100,0.98700,0.07000,-0.12300,-0.05300,0.05500,0.51000,-0.59100,159.40000,0.24000
191125_17.20.34.638,-0.02400,0.01000,0.99000,0.07000,-0.10500,-0.05300,0.05300,0.51600,-0.59000,158.65000,-0.75000
191125_17.20.34.654,-0.02500,0.01000,0.98900,0.07000,-0.08700,-0.05300,0.05400,0.51600,-0.59600,158.59000,-0.06000
191125_17.20.34.670,-0.02500,0.01000,0.98900,0.05300,-0.12300,-0.05300,0.05200,0.51800,-0.59100,158.56000,-0.03000
191125_17.20.34.686,-0.02500,0.01000,0.98700,0.05300,-0.07000,-0.07000,0.05000,0.51400,-0.59500,159.08000,0.52000
191125_17.20.34.702,-0.02600,0.00900,0.98900,0.07000,-0.12300,-0.07000,0.05100,0.51300,-0.58700,159.02000,-0.06000
191125_17.20.34.718,-0.02400,0.01000,0.99000,0.07000,-0.10500,-0.07000,0.05400,0.51700,-0.59000,158.74000,-0.28000
191125_17.20.34.734,-0.02300,0.01100,0.98800,0.07000,-0.10500,-0.05300,0.05000,0.51600,-0.58600,159.08000,0.34000
191125_17.20.34.750,-0.02500,0.01100,0.99000,0.05300,-0.08700,-0.05300,0.04900,0.51300,-0.58400,158.50000,-0.58000
191125_17.20.34.766,-0.02600,0.01000,0.98800,0.03500,-0.08700,-0.05300,0.05000,0.50900,-0.59300,158.82000,0.32000
191125_17.20.34.782,-0.02500,0.01000,0.98800,0.05300,-0.10500,-0.05300,0.05200,0.50900,-0.59300,158.84000,0.02000
191125_17.20.34.798,-0.02500,0.01000,0.99000,0.08700,-0.08700,-0.05300,0.05000,0.50900,-0.58800,159.32000,0.48000
191125_17.20.34.814,-0.02400,0.01000,0.98700,0.07000,-0.12300,-0.05300,0.04600,0.50700,-0.58500,158.10000,-1.22000
191125_17.20.34.830,-0.02400,0.01100,0.98700,0.05300,-0.10500,-0.05300,0.05300,0.51100,-0.58600,158.70000,0.60000
191125_17.20.34.846,-0.02600,0.01100,0.98800,0.05300,-0.10500,-0.05300,0.05500,0.51300,-0.58900,158.74000,0.04000
191125_17.20.34.862,-0.02500,0.01000,0.99000,0.07000,-0.10500,-0.07000,0.05100,0.51500,-0.58600,159.10000,0.36000
191125_17.20.34.878,-0.02400,0.01100,0.98800,0.07000,-0.08700,-0.05300,0.05200,0.51100,-0.58300,158.64000,-0.46000
191125_17.20.34.894,-0.02500,0.00900,0.98700,0.05300,-0.10500,-0.05300,0.05500,0.51200,-0.58600,158.53000,-0.11000
191125_17.20.34.910,-0.02500,0.01000,0.98800,0.07000,-0.08700,-0.05300,0.05200,0.51800,-0.58700,159.25000,0.72000
191125_17.20.34.926,-0.02600,0.01000,0.99200,0.07000,-0.10500,-0.05300,0.05300,0.51400,-0.58700,158.92000,-0.33000
191125_17.20.34.942,-0.02500,0.01000,0.98700,0.07000,-0.12300,-0.05300,0.05000,0.51700,-0.58200,158.79000,-0.13000
191125_17.20.34.958,-0.02500,0.01000,0.98900,0.05300,-0.10500,-0.05300,0.05400,0.51400,-0.58800,158.74000,-0.05000
191125_17.20.34.974,-0.02600,0.01000,0.98600,0.05300,-0.08700,-0.07000,0.05600,0.51500,-0.59200,158.76000,0.02000
191125_17.20.34.990,-0.02600,0.01000,0.98500,0.07000,-0.07000,-0.05300,0.05100,0.51000,-0.58700,157.77000,-0.99000
191125_17.20.35.006,-0.02500,0.01100,0.99000,0.07000,-0.10500,-0.05300,0.05000,0.51500,-0.58700,158.49000,0.72000
191125_17.20.35.022,-0.02500,0.01000,0.98800,0.05300,-0.08700,-0.07000,0.05000,0.51500,-0.58700,158.44000,-0.05000
191125_17.20.35.038,-0.02400,0.01000,0.99000,0.07000,-0.12300,-0.05300,0.04900,0.51400,-0.59000,158.59000,0.15000
191125_17.20.35.054,-0.02400,0.01000,0.98800,0.07000,-0.10500,-0.03500,0.05300,0.51400,-0.59100,158.92000,0.33000
191125_17.20.35.070,-0.02500,0.01000,0.98700,0.07000,-0.10500,-0.05300,0.05300,0.51600,-0.58800,158.57000,-0.35000
191125_17.20.35.086,-0.02500,0.01000,0.98900,0.07000,-0.10500,-0.07000,0.05300,0.51500,-0.58800,158.16000,-0.41000
191125_17.20.35.102,-0.02500,0.01000,0.99000,0.05300,-0.10500,-0.07000,0.05300,0.51600,-0.58600,158.98000,0.82000
191125_17.20.35.118,-0.02400,0.01000,0.98700,0.03500,-0.10500,-0.05300,0.05000,0.50900,-0.58200,159.24000,0.26000
191125_17.20.35.134,-0.02500,0.01000,0.98800,0.07000,-0.10500,-0.05300,0.05200,0.51400,-0.57900,159.23000,-0.01000
191125_17.20.35.150,-0.02500,0.01000,0.98900,0.07000,-0.08700,-0.07000,0.05000,0.51500,-0.58200,158.48000,-0.75000
191125_17.20.35.166,-0.02700,0.00800,0.99100,0.05300,-0.10500,-0.03500,0.05200,0.51200,-0.58300,158.80000,0.32000
191125_17.20.35.182,-0.02500,0.01000,0.98700,0.07000,-0.10500,-0.07000,0.04900,0.51300,-0.58200,158.93000,0.13000
191125_17.20.35.198,-0.02500,0.00900,0.98600,0.05300,-0.10500,-0.05300,0.05100,0.51300,-0.58600,158.65000,-0.28000
191125_17.20.35.214,-0.02600,0.00900,0.98900,0.07000,-0.10500,-0.03500,0.05300,0.51600,-0.58600,158.78000,0.13000
191125_17.20.35.230,-0.02400,0.00900,0.98900,0.07000,-0.10500,-0.05300,0.05200,0.51100,-0.57900,158.64000,-0.14000
191125_17.20.35.246,-0.02500,0.01000,0.98800,0.07000,-0.08700,-0.03500,0.04700,0.51400,-0.58700,158.60000,-0.04000
191125_17.20.35.262,-0.02600,0.01000,0.98900,0.07000,-0.10500,-0.05300,0.05100,0.51300,-0.58100,159.00000,0.40000
191125_17.20.35.278,-0.02500,0.01000,0.98900,0.07000,-0.08700,-0.05300,0.05000,0.51000,-0.58200,158.63000,-0.37000
191125_17.20.35.294,-0.02400,0.00900,0.99000,0.07000,-0.08700,-0.07000,0.05100,0.51300,-0.58400,158.91000,0.28000
191125_17.20.35.310,-0.02500,0.01000,0.99000,0.05300,-0.08700,-0.05300,0.05300,0.51400,-0.58900,158.86000,-0.05000
191125_17.20.35.326,-0.02400,0.01000,0.98600,0.05300,-0.10500,-0.03500,0.05200,0.51500,-0.58500,158.38000,-0.48000
191125_17.20.35.342,-0.02500,0.01000,0.98700,0.07000,-0.10500,-0.05300,0.05200,0.51600,-0.59400,158.50000,0.12000
191125_17.20.35.358,-0.02600,0.01100,0.99000,0.07000,-0.07000,-0.03500,0.04900,0.51200,-0.58900,159.51000,1.01000
191125_17.20.35.374,-0.02600,0.01100,0.98900,0.07000,-0.08700,-0.07000,0.04800,0.51400,-0.58000,158.81000,-0.70000
191125_17.20.35.390,-0.02500,0.01000,0.99100,0.05300,-0.08700,-0.07000,0.05200,0.51400,-0.58900,159.22000,0.41000
191125_17.20.35.406,-0.02500,0.01000,0.98700,0.08700,-0.07000,-0.05300,0.04600,0.51600,-0.59000,158.08000,-1.14000
191125_17.20.35.422,-0.02500,0.00900,0.98700,0.07000,-0.10500,-0.05300,0.05000,0.51100,-0.59200,158.45000,0.37000
191125_17.20.35.438,-0.02500,0.01100,0.99000,0.07000,-0.10500,-0.05300,0.05300,0.51900,-0.58500,158.80000,0.35000
191125_17.20.35.454,-0.02500,0.00900,0.98900,0.05300,-0.12300,-0.07000,0.05100,0.51600,-0.59000,159.05000,0.25000
191125_17.20.35.470,-0.02300,0.00900,0.98700,0.07000,-0.10500,-0.05300,0.05000,0.51900,-0.59100,158.38000,-0.67000
191125_17.20.35.486,-0.02600,0.01100,0.98800,0.08700,-0.08700,-0.03500,0.05200,0.51300,-0.58000,158.20000,-0.18000
191125_17.20.35.502,-0.02500,0.01100,0.99000,0.07000,-0.08700,-0.03500,0.05500,0.51400,-0.58100,158.97000,0.77000
191125_17.20.35.518,-0.02600,0.01000,0.99000,0.05300,-0.10500,-0.03500,0.05500,0.51500,-0.58800,158.90000,-0.07000
191125_17.20.35.534,-0.02600,0.01000,0.98900,0.03500,-0.10500,-0.03500,0.05200,0.51500,-0.59100,158.54000,-0.36000
191125_17.20.35.550,-0.02600,0.01100,0.98700,0.08700,-0.10500,-0.05300,0.05100,0.51300,-0.58900,159.20000,0.66000
191125_17.20.35.566,-0.02500,0.01000,0.98800,0.07000,-0.08700,-0.03500,0.05200,0.51600,-0.58600,158.75000,-0.45000
191125_17.20.35.582,-0.02600,0.01000,0.98800,0.08700,-0.08700,-0.05300,0.05200,0.51200,-0.58800,159.07000,0.32000
191125_17.20.35.598,-0.02600,0.00900,0.99100,0.01800,-0.08700,-0.05300,0.05100,0.51700,-0.58800,159.29000,0.22000
191125_17.20.35.614,-0.02500,0.00900,0.98900,0.07000,-0.10500,-0.05300,0.05800,0.51500,-0.59000,159.22000,-0.07000
191125_17.20.35.630,-0.02600,0.00900,0.98600,0.07000,-0.08700,-0.07000,0.05600,0.51800,-0.58600,158.16000,-1.06000
191125_17.20.35.646,-0.02500,0.01000,0.98800,0.07000,-0.08700,-0.07000,0.05200,0.51800,-0.58500,158.74000,0.58000
191125_17.20.35.662,-0.02600,0.01000,0.98800,0.10500,-0.08700,-0.05300,0.05400,0.51600,-0.58400,158.77000,0.03000
191125_17.20.35.678,-0.02600,0.01000,0.99000,0.05300,-0.10500,-0.05300,0.05300,0.51500,-0.58800,158.69000,-0.08000
191125_17.20.35.694,-0.02500,0.01000,0.99100,0.05300,-0.12300,-0.07000,0.04800,0.51700,-0.57700,158.74000,0.05000
191125_17.20.35.710,-0.02400,0.01100,0.98700,0.07000,-0.10500,-0.07000,0.05000,0.51800,-0.58100,159.57000,0.83000
191125_17.20.35.726,-0.02500,0.01000,0.98800,0.07000,-0.10500,-0.05300,0.04700,0.51600,-0.58700,159.20000,-0.37000
191125_17.20.35.742,-0.02500,0.01000,0.98800,0.05300,-0.10500,-0.05300,0.05000,0.51600,-0.58600,159.52000,0.32000
191125_17.20.35.758,-0.02500,0.01100,0.99000,0.05300,-0.07000,-0.05300,0.05400,0.51700,-0.58000,158.50000,-1.02000
191125_17.20.35.774,-0.02400,0.01000,0.98800,0.08700,-0.08700,-0.03500,0.05100,0.51500,-0.58200,158.86000,0.36000
191125_17.20.35.790,-0.02500,0.01100,0.98700,0.07000,-0.14000,-0.05300,0.05100,0.51000,-0.58700,159.01000,0.15000
191125_17.20.35.806,-0.02500,0.01000,0.98800,0.05300,-0.10500,-0.05300,0.05200,0.51400,-0.58400,159.40000,0.39000
191125_17.20.35.822,-0.02500,0.01000,0.98700,0.07000,-0.08700,-0.07000,0.05300,0.51400,-0.58200,158.86000,-0.54000
191125_17.20.35.838,-0.02600,0.01000,0.99000,0.07000,-0.12300,-0.07000,0.05100,0.51600,-0.58200,158.85000,-0.01000
191125_17.20.35.855,-0.02500,0.01000,0.98900,0.08700,-0.10500,-0.07000,0.05300,0.51200,-0.58900,159.13000,0.28000
191125_17.20.35.870,-0.02300,0.01000,0.98800,0.05300,-0.10500,-0.05300,0.04900,0.51500,-0.59000,158.68000,-0.45000
191125_17.20.35.886,-0.02500,0.01000,0.98700,0.07000,-0.08700,-0.07000,0.05000,0.51200,-0.59100,158.95000,0.27000
191125_17.20.35.902,-0.02500,0.01000,0.98800,0.05300,-0.10500,-0.03500,0.05300,0.51500,-0.59400,158.98000,0.03000
191125_17.20.35.918,-0.02500,0.01100,0.99000,0.07000,-0.08700,-0.05300,0.05000,0.51700,-0.59400,158.90000,-0.08000
191125_17.20.35.934,-0.02500,0.00900,0.98800,0.07000,-0.12300,-0.07000,0.04800,0.51400,-0.58500,159.35000,0.45000
191125_17.20.35.950,-0.02500,0.01000,0.98700,0.07000,-0.08700,-0.05300,0.05100,0.51300,-0.58900,159.04000,-0.31000
191125_17.20.35.966,-0.02500,0.01000,0.98900,0.07000,-0.08700,-0.05300,0.05500,0.51600,-0.58500,158.80000,-0.24000
191125_17.20.35.982,-0.02500,0.00900,0.98900,0.05300,-0.10500,-0.05300,0.05200,0.51500,-0.59000,158.67000,-0.13000
191125_17.20.35.998,-0.02500,0.01000,0.99000,0.07000,-0.10500,-0.07000,0.04800,0.51700,-0.59100,158.62000,-0.05000
191125_17.20.36.014,-0.02500,0.01000,0.98600,0.07000,-0.10500,-0.05300,0.04800,0.51100,-0.58800,158.58000,-0.04000
191125_17.20.36.030,-0.02400,0.00900,0.98700,0.07000,-0.08700,-0.05300,0.05000,0.51500,-0.59000,158.67000,0.09000
191125_17.20.36.046,-0.02500,0.01000,0.99000,0.08700,-0.08700,-0.05300,0.04800,0.51700,-0.59000,158.83000,0.16000
191125_17.20.36.062,-0.02600,0.01000,0.98800,0.03500,-0.08700,-0.05300,0.04900,0.51200,-0.58500,158.30000,-0.53000
191125_17.20.36.078,-0.02500,0.01000,0.98800,0.05300,-0.12300,-0.05300,0.05000,0.51200,-0.58800,158.19000,-0.11000
191125_17.20.36.094,-0.02500,0.01100,0.98700,0.07000,-0.08700,-0.05300,0.05100,0.51400,-0.59000,158.66000,0.47000
191125_17.20.36.110,-0.02600,0.01000,0.99000,0.05300,-0.07000,-0.07000,0.05100,0.51500,-0.59200,158.59000,-0.07000
191125_17.20.36.126,-0.02500,0.01000,0.99200,0.08700,-0.08700,-0.03500,0.05300,0.51700,-0.60000,158.40000,-0.19000
191125_17.20.36.142,-0.02500,0.01000,0.98600,0.08700,-0.08700,-0.05300,0.05000,0.51600,-0.59600,158.64000,0.24000
191125_17.20.36.158,-0.02400,0.00900,0.99000,0.03500,-0.08700,-0.03500,0.05300,0.51400,-0.58500,158.65000,0.01000
191125_17.20.36.174,-0.02400,0.01000,0.98600,0.08700,-0.08700,-0.03500,0.05300,0.51300,-0.59200,159.01000,0.36000
191125_17.20.36.190,-0.02600,0.01000,0.98500,0.08700,-0.10500,-0.03500,0.05700,0.51700,-0.59100,158.79000,-0.22000
191125_17.20.36.206,-0.02700,0.01100,0.99000,0.08700,-0.08700,-0.05300,0.05300,0.51400,-0.59000,158.71000,-0.08000
191125_17.20.36.222,-0.02500,0.00900,0.98800,0.07000,-0.10500,-0.05300,0.05100,0.51400,-0.59200,158.38000,-0.33000
191125_17.20.36.238,-0.02500,0.01000,0.98700,0.05300,-0.14000,-0.07000,0.05000,0.51400,-0.58500,158.88000,0.50000
191125_17.20.36.254,-0.02600,0.01000,0.99000,0.07000,-0.12300,-0.03500,0.05000,0.51500,-0.59100,159.18000,0.30000
191125_17.20.36.270,-0.02600,0.01000,0.98700,0.10500,-0.10500,-0.05300,0.04800,0.51100,-0.58600,159.16000,-0.02000
191125_17.20.36.286,-0.02600,0.01000,0.99000,0.07000,-0.10500,-0.03500,0.04900,0.51100,-0.58500,158.85000,-0.31000
191125_17.20.36.302,-0.02500,0.00900,0.98800,0.07000,-0.12300,-0.03500,0.04900,0.51400,-0.58900,158.91000,0.06000
191125_17.20.36.318,-0.02500,0.01100,0.98800,0.05300,-0.10500,-0.05300,0.05100,0.51500,-0.58500,158.65000,-0.26000
191125_17.20.36.334,-0.02500,0.01000,0.98800,0.08700,-0.12300,-0.05300,0.05300,0.51200,-0.59000,158.75000,0.10000
191125_17.20.36.350,-0.02500,0.01000,0.98600,0.08700,-0.10500,-0.03500,0.05200,0.51200,-0.58900,158.43000,-0.32000
191125_17.20.36.366,-0.02600,0.01000,0.98900,0.07000,-0.08700,-0.05300,0.05100,0.51200,-0.58700,159.51000,1.08000
191125_17.20.36.382,-0.02500,0.01000,0.98900,0.07000,-0.08700,-0.03500,0.05000,0.51400,-0.59400,158.93000,-0.58000
191125_17.20.36.398,-0.02500,0.01000,0.98700,0.07000,-0.10500,-0.07000,0.05200,0.51500,-0.58600,159.16000,0.23000
191125_17.20.36.414,-0.02400,0.01000,0.99000,0.05300,-0.08700,-0.05300,0.05100,0.51500,-0.58700,158.92000,-0.24000
191125_17.20.36.430,-0.02600,0.01000,0.98800,0.07000,-0.12300,-0.05300,0.05000,0.51700,-0.58900,158.64000,-0.28000
191125_17.20.36.446,-0.02600,0.00900,0.99200,0.07000,-0.12300,-0.03500,0.04800,0.51900,-0.58500,159.26000,0.62000
191125_17.20.36.462,-0.02600,0.01100,0.98700,0.07000,-0.10500,-0.05300,0.05200,0.51200,-0.58900,159.18000,-0.08000
191125_17.20.36.478,-0.02500,0.01100,0.98800,0.07000,-0.12300,-0.05300,0.05400,0.51600,-0.59000,158.82000,-0.36000
191125_17.20.36.494,-0.02500,0.00900,0.98700,0.07000,-0.08700,-0.05300,0.05200,0.51300,-0.59000,158.78000,-0.04000
191125_17.20.36.510,-0.02500,0.00900,0.99000,0.07000,-0.08700,-0.03500,0.05400,0.51300,-0.58900,158.61000,-0.17000
191125_17.20.36.526,-0.02400,0.01100,0.99100,0.03500,-0.08700,-0.07000,0.05400,0.51100,-0.59000,158.59000,-0.02000
191125_17.20.36.542,-0.02500,0.01100,0.98800,0.07000,-0.08700,-0.05300,0.05500,0.51200,-0.59300,158.69000,0.10000
191125_17.20.36.558,-0.02500,0.01000,0.98600,0.07000,-0.07000,-0.07000,0.05100,0.51200,-0.59200,158.75000,0.06000
191125_17.20.36.574,-0.02600,0.00900,0.98900,0.07000,-0.08700,-0.05300,0.05200,0.51300,-0.59000,158.64000,-0.11000
191125_17.20.36.590,-0.02500,0.01000,0.99200,0.05300,-0.10500,-0.05300,0.05100,0.51200,-0.59600,158.41000,-0.23000
191125_17.20.36.606,-0.02700,0.00900,0.98900,0.05300,-0.14000,-0.07000,0.05000,0.51100,-0.59200,158.58000,0.17000
191125_17.20.36.622,-0.02500,0.01100,0.98700,0.08700,-0.12300,-0.07000,0.05000,0.51100,-0.59500,159.71000,1.13000
191125_17.20.36.638,-0.02400,0.01000,0.98900,0.05300,-0.10500,-0.05300,0.05100,0.51800,-0.58900,158.80000,-0.91000
191125_17.20.36.654,-0.02600,0.00900,0.99300,0.03500,-0.10500,-0.03500,0.04900,0.51200,-0.59100,158.42000,-0.38000
191125_17.20.36.670,-0.02700,0.01000,0.98700,0.10500,-0.10500,-0.05300,0.05500,0.51100,-0.59100,158.60000,0.18000
191125_17.20.36.686,-0.02400,0.00900,0.98800,0.07000,-0.10500,-0.05300,0.05300,0.51100,-0.58600,159.19000,0.59000
191125_17.20.36.702,-0.02600,0.01000,0.98600,0.08700,-0.08700,-0.05300,0.05500,0.51400,-0.58900,158.67000,-0.52000
191125_17.20.36.718,-0.02500,0.01000,0.99100,0.03500,-0.08700,-0.07000,0.05100,0.50900,-0.58400,158.48000,-0.19000
191125_17.20.36.734,-0.02400,0.01000,0.99100,0.05300,-0.08700,-0.05300,0.05400,0.51300,-0.58900,158.94000,0.46000
191125_17.20.36.750,-0.02600,0.01000,0.99000,0.05300,-0.12300,-0.05300,0.05300,0.50900,-0.58800,158.70000,-0.24000
191125_17.20.36.766,-0.02500,0.01000,0.98500,0.10500,-0.12300,-0.05300,0.04700,0.51700,-0.58900,158.57000,-0.13000
191125_17.20.36.782,-0.02500,0.01100,0.99000,0.07000,-0.10500,-0.03500,0.05200,0.51100,-0.58600,158.65000,0.08000
191125_17.20.36.798,-0.02500,0.01200,0.98900,0.07000,-0.12300,-0.05300,0.05300,0.50800,-0.58800,158.94000,0.29000
191125_17.20.36.814,-0.02600,0.01000,0.98900,0.05300,-0.12300,-0.03500,0.05000,0.51000,-0.59000,158.58000,-0.36000
191125_17.20.36.830,-0.02400,0.01000,0.98500,0.07000,-0.08700,-0.07000,0.04800,0.51300,-0.58800,158.87000,0.29000
191125_17.20.36.846,-0.02500,0.01000,0.98900,0.07000,-0.08700,-0.07000,0.05400,0.51300,-0.59300,158.20000,-0.67000
191125_17.20.36.862,-0.02400,0.01000,0.98800,0.07000,-0.10500,-0.07000,0.04500,0.51000,-0.58700,159.52000,1.32000
191125_17.20.36.877,-0.02500,0.01000,0.98700,0.07000,-0.08700,-0.05300,0.05500,0.51100,-0.58700,158.65000,-0.87000
191125_17.20.36.893,-0.02700,0.01000,0.98400,0.07000,-0.07000,-0.05300,0.05000,0.51600,-0.58500,158.92000,0.27000
191125_17.20.36.910,-0.02400,0.00900,0.99100,0.07000,-0.05300,-0.07000,0.05300,0.51000,-0.58000,158.50000,-0.42000
191125_17.20.36.925,-0.02400,0.01000,0.98700,0.10500,-0.08700,-0.03500,0.05600,0.51000,-0.58300,158.83000,0.33000
191125_17.20.36.941,-0.02600,0.01000,0.98700,0.10500,-0.07000,-0.05300,0.05300,0.50900,-0.58800,158.63000,-0.20000
191125_17.20.36.958,-0.02400,0.01000,0.98800,0.10500,-0.08700,-0.05300,0.05000,0.51200,-0.58400,158.78000,0.15000
191125_17.20.36.974,-0.02500,0.01000,0.99300,0.07000,-0.08700,-0.03500,0.05100,0.51100,-0.58700,158.59000,-0.19000
191125_17.20.36.990,-0.02600,0.01000,0.98800,0.08700,-0.10500,-0.07000,0.05500,0.51500,-0.59000,158.89000,0.30000
191125_17.20.37.006,-0.02500,0.01000,0.98500,0.07000,-0.12300,-0.05300,0.05200,0.51200,-0.59100,158.47000,-0.42000
191125_17.20.37.022,-0.02600,0.00900,0.99200,0.05300,-0.08700,-0.07000,0.05500,0.50900,-0.59300,158.97000,0.50000
191125_17.20.37.038,-0.02600,0.00900,0.99000,0.07000,-0.12300,-0.07000,0.05600,0.50900,-0.58600,158.85000,-0.12000
191125_17.20.37.054,-0.02500,0.00900,0.98700,0.03500,-0.12300,-0.03500,0.05200,0.51000,-0.58300,158.39000,-0.46000
191125_17.20.37.070,-0.02600,0.00900,0.99200,0.03500,-0.12300,-0.05300,0.04900,0.51400,-0.58600,158.79000,0.40000
191125_17.20.37.086,-0.02500,0.01100,0.98900,0.05300,-0.14000,-0.05300,0.04900,0.51000,-0.58900,158.79000,0.00000
191125_17.20.37.102,-0.02500,0.01000,0.99200,0.05300,-0.15700,-0.07000,0.05300,0.51000,-0.58300,158.54000,-0.25000
191125_17.20.37.118,-0.02500,0.00900,0.98700,0.05300,-0.15700,-0.05300,0.05500,0.51200,-0.58700,158.20000,-0.34000
191125_17.20.37.134,-0.02400,0.00900,0.98900,0.03500,-0.17500,-0.07000,0.05600,0.51200,-0.58500,158.77000,0.57000
191125_17.20.37.150,-0.02500,0.01000,0.98800,0.03500,-0.12300,-0.05300,0.05300,0.51500,-0.58400,159.21000,0.44000
191125_17.20.37.166,-0.02500,0.00900,0.98800,0.01800,-0.14000,-0.07000,0.05900,0.51500,-0.58100,158.66000,-0.55000
191125_17.20.37.182,-0.02500,0.00900,0.98800,0.05300,-0.14000,-0.07000,0.05800,0.51400,-0.58700,158.99000,0.33000
191125_17.20.37.198,-0.02400,0.00900,0.99100,0.03500,-0.17500,-0.03500,0.05200,0.51400,-0.58300,158.70000,-0.29000
191125_17.20.37.214,-0.02500,0.01000,0.98600,0.03500,-0.15700,-0.05300,0.05500,0.52000,-0.57900,158.35000,-0.35000
191125_17.20.37.230,-0.02500,0.00900,0.98800,0.03500,-0.14000,-0.07000,0.05700,0.51700,-0.58700,159.05000,0.70000
191125_17.20.37.246,-0.02400,0.01000,0.98800,0.03500,-0.15700,-0.07000,0.06000,0.51400,-0.58800,158.19000,-0.86000
191125_17.20.37.262,-0.02500,0.00900,0.99100,0.03500,-0.15700,-0.05300,0.06000,0.51500,-0.58800,158.58000,0.39000
191125_17.20.37.278,-0.02500,0.00900,0.98600,0.05300,-0.15700,-0.05300,0.05600,0.51600,-0.58700,158.76000,0.18000
191125_17.20.37.294,-0.02500,0.01000,0.99000,0.03500,-0.14000,-0.05300,0.05700,0.51200,-0.59200,158.14000,-0.62000
191125_17.20.37.310,-0.02500,0.00900,0.98800,0.01800,-0.17500,-0.07000,0.06000,0.51400,-0.58600,159.33000,1.19000
191125_17.20.37.326,-0.02600,0.00900,0.98800,0.03500,-0.14000,-0.05300,0.05900,0.51000,-0.58800,158.57000,-0.76000
191125_17.20.37.342,-0.02400,0.00900,0.98800,0.01800,-0.15700,-0.07000,0.06100,0.50900,-0.58800,158.11000,-0.46000
191125_17.20.37.358,-0.02600,0.01000,0.98900,0.07000,-0.15700,-0.05300,0.06200,0.51200,-0.59100,158.68000,0.57000
191125_17.20.37.374,-0.02400,0.01000,0.98400,0.08700,-0.14000,-0.03500,0.06200,0.51100,-0.59100,159.09000,0.41000
191125_17.20.37.389,-0.02400,0.01000,0.98700,0.03500,-0.14000,-0.05300,0.06100,0.51200,-0.58800,158.84000,-0.25000
191125_17.20.37.406,-0.02400,0.01000,0.98900,0.05300,-0.12300,-0.05300,0.05700,0.52000,-0.59000,158.19000,-0.65000
191125_17.20.37.422,-0.02400,0.00900,0.98300,0.08700,-0.10500,-0.05300,0.05700,0.51600,-0.58600,158.26000,0.07000
191125_17.20.37.437,-0.02400,0.01000,0.98900,0.07000,-0.12300,-0.07000,0.06400,0.51300,-0.58400,158.92000,0.66000
191125_17.20.37.453,-0.02500,0.01000,0.98600,0.05300,-0.10500,-0.05300,0.05900,0.51500,-0.59100,158.05000,-0.87000
191125_17.20.37.470,-0.02400,0.01000,0.98900,0.03500,-0.08700,-0.05300,0.06400,0.51100,-0.58700,158.27000,0.22000
191125_17.20.37.486,-0.02600,0.00800,1.00100,-0.01800,-0.08700,-0.05300,0.06500,0.51400,-0.58800,159.25000,0.98000
191125_17.20.37.501,-0.02400,0.00900,0.98400,0.08700,-0.10500,-0.05300,0.06200,0.51600,-0.59100,159.05000,-0.20000
191125_17.20.37.517,-0.02400,0.00800,0.99200,0.00000,-0.08700,-0.05300,0.06200,0.51200,-0.59300,158.19000,-0.86000
191125_17.20.37.534,-0.02400,0.01000,0.98800,0.07000,-0.10500,-0.07000,0.06000,0.51600,-0.59000,158.97000,0.78000
191125_17.20.37.550,-0.02500,0.00900,0.98700,0.05300,-0.10500,-0.07000,0.07000,0.51700,-0.58000,158.86000,-0.11000
191125_17.20.37.566,-0.02500,0.00900,0.99100,0.03500,-0.10500,-0.03500,0.06400,0.51300,-0.58500,159.25000,0.39000
191125_17.20.37.582,-0.02500,0.00900,0.98700,0.08700,-0.12300,-0.05300,0.06500,0.51100,-0.58500,158.89000,-0.36000
191125_17.20.37.598,-0.02500,0.01000,0.98700,0.07000,-0.08700,-0.03500,0.06500,0.51200,-0.58700,158.31000,-0.58000
191125_17.20.37.614,-0.02500,0.00900,0.98900,0.03500,-0.08700,-0.05300,0.06100,0.50900,-0.58200,158.35000,0.04000
191125_17.20.37.630,-0.02500,0.01000,0.98700,0.05300,-0.10500,-0.07000,0.06400,0.51000,-0.58400,159.40000,1.05000
191125_17.20.37.646,-0.02500,0.01000,0.98600,0.07000,-0.12300,-0.03500,0.06700,0.51600,-0.58600,159.21000,-0.19000
191125_17.20.37.662,-0.02400,0.01000,0.99200,0.07000,-0.10500,-0.05300,0.06400,0.51000,-0.58400,158.81000,-0.40000
191125_17.20.37.678,-0.02500,0.01000,0.98400,0.10500,-0.10500,-0.05300,0.06200,0.51400,-0.58800,158.57000,-0.24000
191125_17.20.37.694,-0.02400,0.01000,0.98900,0.08700,-0.12300,-0.05300,0.06700,0.51200,-0.58700,158.69000,0.12000
191125_17.20.37.710,-0.02400,0.01100,0.98600,0.03500,-0.10500,-0.05300,0.06600,0.51000,-0.57900,158.24000,-0.45000
191125_17.20.37.726,-0.02400,0.01000,0.99000,0.08700,-0.12300,-0.05300,0.06500,0.51200,-0.58200,158.47000,0.23000
191125_17.20.37.742,-0.02300,0.01000,0.98700,0.07000,-0.08700,-0.05300,0.06700,0.51200,-0.58400,158.02000,-0.45000
191125_17.20.37.758,-0.02400,0.01000,0.99000,0.05300,-0.08700,-0.05300,0.06700,0.51800,-0.58600,159.69000,1.67000
191125_17.20.37.774,-0.02500,0.00900,0.99100,0.05300,-0.10500,-0.07000,0.06600,0.51600,-0.58300,158.66000,-1.03000
191125_17.20.37.790,-0.02400,0.01000,0.98800,0.07000,-0.08700,-0.05300,0.06700,0.51400,-0.58600,158.68000,0.02000
191125_17.20.37.806,-0.02600,0.00900,0.98900,0.07000,-0.10500,-0.07000,0.06700,0.51200,-0.59000,158.99000,0.31000
191125_17.20.37.822,-0.02400,0.01000,0.99000,0.07000,-0.10500,-0.07000,0.06700,0.51200,-0.58400,158.75000,-0.24000
191125_17.20.37.838,-0.02400,0.01000,0.98900,0.05300,-0.12300,-0.07000,0.06700,0.51500,-0.58600,158.81000,0.06000
191125_17.20.37.854,-0.02400,0.00900,0.98900,0.05300,-0.08700,-0.07000,0.06600,0.51100,-0.58800,159.07000,0.26000
191125_17.20.37.870,-0.02400,0.01000,0.98800,0.07000,-0.10500,-0.03500,0.06900,0.51600,-0.58400,158.34000,-0.73000
191125_17.20.37.886,-0.02400,0.00900,0.98900,0.07000,-0.08700,-0.05300,0.06900,0.51000,-0.58800,158.89000,0.55000
191125_17.20.37.902,-0.02500,0.00900,0.98900,0.08700,-0.10500,-0.05300,0.07000,0.51800,-0.58600,158.34000,-0.55000
191125_17.20.37.918,-0.02500,0.01000,0.98800,0.07000,-0.12300,-0.05300,0.06500,0.51200,-0.58800,158.76000,0.42000
191125_17.20.37.934,-0.02500,0.00800,0.98900,0.05300,-0.10500,-0.05300,0.07100,0.51200,-0.59100,158.72000,-0.04000
191125_17.20.37.950,-0.02400,0.00900,0.98800,0.07000,-0.12300,-0.05300,0.07000,0.51100,-0.58600,158.19000,-0.53000
191125_17.20.37.966,-0.02400,0.00900,0.98700,0.07000,-0.10500,-0.05300,0.07100,0.50900,-0.58300,157.79000,-0.40000
191125_17.20.37.981,-0.02500,0.00900,0.98800,0.05300,-0.12300,-0.07000,0.06600,0.50900,-0.59300,158.99000,1.20000
191125_17.20.37.997,-0.02400,0.01000,0.98800,0.05300,-0.10500,-0.05300,0.06800,0.50800,-0.58400,158.34000,-0.65000
191125_17.20.38.013,-0.02400,0.00900,0.98800,0.08700,-0.10500,-0.03500,0.06800,0.50900,-0.58200,157.85000,-0.49000
191125_17.20.38.030,-0.02500,0.01000,0.98900,0.07000,-0.10500,-0.05300,0.07100,0.51300,-0.58400,158.33000,0.48000
191125_17.20.38.046,-0.02300,0.01000,0.98900,0.08700,-0.10500,-0.05300,0.06800,0.51500,-0.59000,158.98000,0.65000
191125_17.20.38.062,-0.02400,0.00900,0.98700,0.07000,-0.10500,-0.03500,0.06400,0.51700,-0.58500,159.03000,0.05000
191125_17.20.38.078,-0.02500,0.01000,0.99000,0.07000,-0.08700,-0.05300,0.06700,0.51500,-0.58700,158.46000,-0.57000
191125_17.20.38.094,-0.02400,0.00800,0.98700,0.05300,-0.10500,-0.05300,0.06900,0.51200,-0.58200,158.86000,0.40000
191125_17.20.38.110,-0.02500,0.01000,0.98800,0.08700,-0.10500,-0.07000,0.06600,0.51400,-0.59200,158.69000,-0.17000
191125_17.20.38.126,-0.02400,0.00900,0.98900,0.08700,-0.08700,-0.05300,0.07100,0.51600,-0.58700,158.70000,0.01000
191125_17.20.38.142,-0.02400,0.00900,0.98900,0.05300,-0.10500,-0.05300,0.07200,0.51400,-0.58300,158.80000,0.10000
191125_17.20.38.158,-0.02400,0.01000,0.99100,0.05300,-0.10500,-0.05300,0.07100,0.51400,-0.58500,158.68000,-0.12000
191125_17.20.38.174,-0.02400,0.01100,0.98800,0.05300,-0.07000,-0.05300,0.07000,0.51200,-0.58300,158.97000,0.29000
191125_17.20.38.190,-0.02500,0.00700,1.00100,-0.01800,-0.08700,-0.03500,0.07000,0.51200,-0.59000,158.59000,-0.38000
191125_17.20.38.206,-0.02400,0.01100,0.98200,0.15700,-0.12300,-0.03500,0.06800,0.51100,-0.58100,158.72000,0.13000
191125_17.20.38.222,-0.02500,0.01000,0.98800,0.08700,-0.10500,-0.05300,0.07300,0.51400,-0.58800,159.02000,0.30000
191125_17.20.38.238,-0.02400,0.00900,0.98600,0.08700,-0.12300,-0.07000,0.06500,0.51100,-0.58400,158.62000,-0.40000
191125_17.20.38.254,-0.02300,0.00900,0.99100,0.05300,-0.08700,-0.07000,0.06800,0.51300,-0.58300,158.72000,0.10000
191125_17.20.38.270,-0.02400,0.01000,0.99100,0.07000,-0.08700,-0.07000,0.07300,0.51000,-0.57700,159.14000,0.42000
191125_17.20.38.286,-0.02500,0.01000,0.98600,0.08700,-0.10500,-0.05300,0.06800,0.51000,-0.57800,158.33000,-0.81000
191125_17.20.38.302,-0.02400,0.00900,0.99000,0.07000,-0.10500,-0.03500,0.07400,0.51300,-0.58100,158.18000,-0.15000
191125_17.20.38.318,-0.02500,0.00900,0.98900,0.07000,-0.10500,-0.05300,0.06900,0.51100,-0.58200,158.20000,0.02000
191125_17.20.38.334,-0.02400,0.00900,0.98900,0.05300,-0.08700,-0.05300,0.06800,0.51800,-0.58400,159.15000,0.95000
191125_17.20.38.350,-0.02500,0.01000,0.98900,0.07000,-0.10500,-0.07000,0.06900,0.51100,-0.58400,158.73000,-0.42000
191125_17.20.38.366,-0.02400,0.00900,0.98800,0.07000,-0.10500,-0.05300,0.07100,0.51200,-0.58500,159.11000,0.38000
191125_17.20.38.382,-0.02500,0.01000,0.98700,0.07000,-0.10500,-0.07000,0.07000,0.51400,-0.58200,157.94000,-1.17000
191125_17.20.38.398,-0.02400,0.01000,0.98900,0.08700,-0.08700,-0.03500,0.06900,0.51500,-0.58900,159.27000,1.33000
191125_17.20.38.414,-0.02300,0.00900,0.98800,0.05300,-0.08700,-0.05300,0.07100,0.51500,-0.58200,159.04000,-0.23000
191125_17.20.38.430,-0.02500,0.01000,0.99000,0.07000,-0.10500,-0.03500,0.06900,0.51600,-0.57900,159.16000,0.12000
191125_17.20.38.446,-0.02400,0.01000,0.98700,0.07000,-0.10500,-0.08700,0.07400,0.51400,-0.58300,159.06000,-0.10000
191125_17.20.38.462,-0.02400,0.01000,0.99000,0.05300,-0.07000,-0.07000,0.06800,0.51300,-0.58500,158.51000,-0.55000
191125_17.20.38.478,-0.02500,0.01100,0.99000,0.08700,-0.10500,-0.03500,0.06900,0.51600,-0.57900,158.88000,0.37000
191125_17.20.38.494,-0.02400,0.00900,0.98700,0.07000,-0.07000,-0.07000,0.06700,0.51500,-0.58800,158.65000,-0.23000
191125_17.20.38.510,-0.02400,0.00900,0.99100,0.05300,-0.08700,-0.05300,0.07000,0.51500,-0.58700,159.08000,0.43000
191125_17.20.38.526,-0.02500,0.00900,0.98900,0.08700,-0.10500,-0.03500,0.06500,0.51600,-0.58900,159.01000,-0.07000
191125_17.20.38.541,-0.02500,0.01100,0.99000,0.10500,-0.08700,-0.05300,0.06600,0.51100,-0.58400,158.78000,-0.23000
191125_17.20.38.558,-0.02300,0.00900,0.98800,0.03500,-0.12300,-0.07000,0.06800,0.51300,-0.59000,158.86000,0.08000
191125_17.20.38.573,-0.02400,0.01000,0.98900,0.03500,-0.08700,-0.05300,0.06400,0.51400,-0.58200,159.12000,0.26000
191125_17.20.38.589,-0.02600,0.01000,0.99200,0.05300,-0.10500,-0.03500,0.06400,0.51200,-0.58400,159.12000,0.00000
191125_17.20.38.606,-0.02400,0.01000,0.98700,0.07000,-0.10500,-0.07000,0.06700,0.51300,-0.58500,158.20000,-0.92000
191125_17.20.38.622,-0.02500,0.01000,0.99100,0.07000,-0.10500,-0.05300,0.06700,0.51300,-0.58700,158.47000,0.27000
191125_17.20.38.638,-0.02400,0.00900,0.98700,0.05300,-0.10500,-0.05300,0.06700,0.51200,-0.58600,158.77000,0.30000
191125_17.20.38.654,-0.02400,0.01000,0.98700,0.07000,-0.08700,-0.05300,0.06700,0.51300,-0.58200,159.15000,0.38000
191125_17.20.38.670,-0.02500,0.00900,0.99000,0.08700,-0.08700,-0.07000,0.06500,0.51400,-0.58400,158.03000,-1.12000
191125_17.20.38.686,-0.02500,0.00900,0.98700,0.07000,-0.08700,-0.05300,0.07000,0.51200,-0.58400,158.50000,0.47000
191125_17.20.38.702,-0.02300,0.00900,0.98800,0.07000,-0.08700,-0.05300,0.06400,0.51300,-0.58300,158.96000,0.46000
191125_17.20.38.718,-0.02400,0.00900,0.98900,0.07000,-0.07000,-0.05300,0.07200,0.51100,-0.58600,159.65000,0.69000
191125_17.20.38.734,-0.02400,0.00800,0.98900,0.05300,-0.12300,-0.05300,0.07300,0.51200,-0.59100,158.76000,-0.89000
191125_17.20.38.750,-0.02400,0.01100,0.99000,0.08700,-0.10500,-0.05300,0.07200,0.51000,-0.58600,158.81000,0.05000
191125_17.20.38.766,-0.02500,0.00900,0.98900,0.07000,-0.10500,-0.05300,0.07100,0.51800,-0.58800,158.63000,-0.18000
191125_17.20.38.782,-0.02300,0.01100,0.98200,0.10500,-0.10500,-0.05300,0.07100,0.51500,-0.59100,158.36000,-0.27000
191125_17.20.38.798,-0.02400,0.01000,0.98200,0.19200,-0.12300,-0.05300,0.06800,0.51500,-0.59000,158.98000,0.62000
191125_17.20.38.814,-0.02500,0.01000,0.98300,0.03500,-0.12300,-0.05300,0.06700,0.51100,-0.59000,159.14000,0.16000
191125_17.20.38.830,-0.02600,0.01000,0.99500,0.07000,-0.08700,-0.03500,0.06600,0.51300,-0.58700,158.59000,-0.55000
191125_17.20.38.846,-0.02400,0.00900,0.98200,0.05300,-0.10500,-0.07000,0.06500,0.50900,-0.59000,158.31000,-0.28000
191125_17.20.38.862,-0.02500,0.01000,0.99100,0.05300,-0.07000,-0.05300,0.06700,0.51400,-0.59100,159.09000,0.78000
191125_17.20.38.878,-0.02500,0.01000,0.99200,0.05300,-0.10500,-0.05300,0.06700,0.51400,-0.58800,158.94000,-0.15000
191125_17.20.38.894,-0.02500,0.01100,0.98600,0.07000,-0.08700,-0.07000,0.06700,0.51500,-0.58700,158.38000,-0.56000
191125_17.20.38.910,-0.02300,0.01000,0.98900,0.07000,-0.08700,-0.07000,0.06500,0.51800,-0.58900,158.88000,0.50000
191125_17.20.38.926,-0.02400,0.01000,0.98700,0.08700,-0.10500,-0.07000,0.06600,0.51200,-0.58900,158.58000,-0.30000
191125_17.20.38.942,-0.02300,0.01000,0.98900,0.07000,-0.08700,-0.05300,0.06600,0.51200,-0.58800,158.61000,0.03000
191125_17.20.38.958,-0.02500,0.01000,0.98900,0.07000,-0.12300,-0.03500,0.06700,0.51100,-0.58600,158.12000,-0.49000
191125_17.20.38.973,-0.02500,0.00900,0.98800,0.07000,-0.10500,-0.05300,0.06600,0.51500,-0.59000,158.67000,0.55000
191125_17.20.38.990,-0.02400,0.01000,0.98900,0.10500,-0.08700,-0.05300,0.06500,0.51300,-0.58100,158.13000,-0.54000
191125_17.20.39.005,-0.02500,0.00900,0.98800,0.07000,-0.10500,-0.05300,0.06500,0.51300,-0.58700,158.57000,0.44000
191125_17.20.39.022,-0.02500,0.00900,0.98700,0.07000,-0.08700,-0.05300,0.06700,0.51700,-0.58500,157.90000,-0.67000
191125_17.20.39.038,-0.02500,0.00900,0.99100,0.05300,-0.10500,-0.05300,0.06500,0.51400,-0.58500,159.34000,1.44000
191125_17.20.39.054,-0.02400,0.00900,0.98800,0.08700,-0.12300,-0.07000,0.06500,0.51700,-0.58000,158.66000,-0.68000
191125_17.20.39.070,-0.02500,0.01000,0.98900,0.03500,-0.10500,-0.03500,0.07100,0.51600,-0.58600,158.91000,0.25000
191125_17.20.39.086,-0.02400,0.00800,0.99000,0.07000,-0.08700,-0.07000,0.07100,0.52000,-0.58700,159.32000,0.41000
191125_17.20.39.102,-0.02400,0.01000,0.98800,0.05300,-0.08700,-0.03500,0.07000,0.51900,-0.57700,158.52000,-0.80000
191125_17.20.39.118,-0.02500,0.00800,0.98900,0.05300,-0.10500,-0.03500,0.06600,0.51700,-0.58700,158.73000,0.21000
191125_17.20.39.134,-0.02500,0.01000,0.98900,0.08700,-0.10500,-0.07000,0.06900,0.51500,-0.59000,158.69000,-0.04000
191125_17.20.39.150,-0.02500,0.00900,0.98800,0.05300,-0.10500,-0.05300,0.06600,0.51500,-0.58300,158.98000,0.29000
191125_17.20.39.166,-0.02400,0.00900,0.98900,0.05300,-0.10500,-0.05300,0.06400,0.51600,-0.58500,158.58000,-0.40000
191125_17.20.39.182,-0.02400,0.00900,0.98900,0.07000,-0.10500,-0.07000,0.06700,0.51400,-0.58700,158.51000,-0.07000
191125_17.20.39.198,-0.02500,0.01000,0.98800,0.07000,-0.10500,-0.05300,0.06600,0.51200,-0.58500,158.27000,-0.24000
191125_17.20.39.214,-0.02500,0.00900,0.99000,0.08700,-0.08700,-0.07000,0.06600,0.51500,-0.58700,159.05000,0.78000
191125_17.20.39.230,-0.02400,0.00800,0.98800,0.08700,-0.07000,-0.03500,0.06800,0.51600,-0.58600,158.41000,-0.64000
191125_17.20.39.246,-0.02400,0.01000,0.99000,0.08700,-0.08700,-0.05300,0.06500,0.51300,-0.59300,158.78000,0.37000
191125_17.20.39.262,-0.02400,0.01000,0.98900,0.07000,-0.10500,-0.07000,0.06700,0.51400,-0.58700,158.84000,0.06000
191125_17.20.39.278,-0.02500,0.01000,0.98800,0.07000,-0.10500,-0.05300,0.06800,0.51600,-0.58300,158.45000,-0.39000
191125_17.20.39.294,-0.02500,0.01000,0.98800,0.07000,-0.10500,-0.05300,0.06700,0.51300,-0.59000,158.36000,-0.09000
191125_17.20.39.310,-0.02400,0.01000,0.98900,0.05300,-0.08700,-0.05300,0.06800,0.51300,-0.58600,159.04000,0.68000
191125_17.20.39.326,-0.02500,0.01000,0.98800,0.07000,-0.10500,-0.05300,0.06400,0.51700,-0.59200,159.34000,0.30000
191125_17.20.39.342,-0.02500,0.00900,0.98800,0.08700,-0.12300,-0.07000,0.07000,0.51200,-0.58300,158.40000,-0.94000
191125_17.20.39.358,-0.02400,0.01000,0.98700,0.08700,-0.10500,-0.05300,0.06700,0.51300,-0.58300,158.83000,0.43000
191125_17.20.39.373,-0.02400,0.01000,0.99100,0.08700,-0.10500,-0.07000,0.06900,0.51200,-0.58700,158.89000,0.06000
191125_17.20.39.389,-0.02500,0.00900,0.98700,0.08700,-0.08700,-0.05300,0.07000,0.51100,-0.58300,159.59000,0.70000
191125_17.20.39.405,-0.02400,0.01000,0.99000,0.07000,-0.10500,-0.05300,0.07200,0.51200,-0.58900,158.93000,-0.66000
191125_17.20.39.421,-0.02400,0.00900,0.98800,0.05300,-0.08700,-0.03500,0.06700,0.51200,-0.58300,158.70000,-0.23000
191125_17.20.39.438,-0.02400,0.01000,0.98900,0.07000,-0.10500,-0.05300,0.07100,0.51500,-0.58600,158.41000,-0.29000
191125_17.20.39.453,-0.02500,0.00900,0.98900,0.08700,-0.10500,-0.07000,0.07000,0.51200,-0.59000,158.96000,0.55000
191125_17.20.39.470,-0.02500,0.01000,0.98900,0.07000,-0.10500,-0.07000,0.06400,0.51100,-0.59400,159.02000,0.06000
191125_17.20.39.486,-0.02400,0.01100,0.98800,0.05300,-0.08700,-0.05300,0.06800,0.51700,-0.59300,158.11000,-0.91000
191125_17.20.39.502,-0.02500,0.01000,0.98800,0.07000,-0.12300,-0.03500,0.06800,0.51200,-0.59400,158.78000,0.67000
191125_17.20.39.518,-0.02500,0.00900,0.98800,0.08700,-0.12300,-0.05300,0.06500,0.51200,-0.58800,158.39000,-0.39000
191125_17.20.39.533,-0.02500,0.01000,0.98700,0.05300,-0.08700,-0.05300,0.06800,0.51300,-0.58900,159.12000,0.73000
191125_17.20.39.550,-0.02400,0.00900,0.98900,0.07000,-0.10500,-0.05300,0.07100,0.51100,-0.59000,158.83000,-0.29000
191125_17.20.39.566,-0.02400,0.00900,0.98800,0.07000,-0.12300,-0.03500,0.07100,0.51100,-0.59500,158.56000,-0.27000
191125_17.20.39.582,-0.02400,0.01000,0.98800,0.07000,-0.12300,-0.05300,0.06900,0.51000,-0.58600,158.18000,-0.38000
191125_17.20.39.598,-0.02400,0.01000,0.99000,0.07000,-0.08700,-0.05300,0.06700,0.51000,-0.58800,159.36000,1.18000
191125_17.20.39.614,-0.02500,0.01000,0.99000,0.07000,-0.10500,-0.05300,0.06900,0.50600,-0.58900,158.98000,-0.38000
191125_17.20.39.630,-0.02400,0.00900,0.99000,0.10500,-0.10500,-0.03500,0.06600,0.51300,-0.58700,158.77000,-0.21000
191125_17.20.39.646,-0.02500,0.00900,0.98900,0.03500,-0.10500,-0.07000,0.06900,0.50900,-0.58400,158.63000,-0.14000
191125_17.20.39.662,-0.02500,0.00900,0.98900,0.07000,-0.12300,-0.05300,0.06400,0.51100,-0.58300,159.36000,0.73000
191125_17.20.39.678,-0.02500,0.01000,0.98900,0.08700,-0.10500,-0.07000,0.06700,0.51200,-0.58100,158.30000,-1.06000
191125_17.20.39.694,-0.02500,0.01000,0.98900,0.08700,-0.10500,-0.08700,0.06500,0.50900,-0.58400,159.09000,0.79000
191125_17.20.39.710,-0.02500,0.01000,0.99000,0.07000,-0.10500,-0.07000,0.06400,0.50800,-0.58600,159.02000,-0.07000
191125_17.20.39.726,-0.02400,0.01000,0.98800,0.05300,-0.08700,-0.03500,0.06400,0.50400,-0.57800,158.87000,-0.15000
191125_17.20.39.742,-0.02300,0.00900,0.99000,0.05300,-0.10500,-0.03500,0.06900,0.50700,-0.58100,158.23000,-0.64000
191125_17.20.39.758,-0.02400,0.00900,0.98900,0.07000,-0.12300,-0.05300,0.06600,0.51000,-0.57900,158.51000,0.28000
191125_17.20.39.774,-0.02400,0.00900,0.98900,0.05300,-0.10500,-0.05300,0.06900,0.50600,-0.57800,159.02000,0.51000
191125_17.20.39.790,-0.02500,0.00900,0.99000,0.07000,-0.08700,-0.07000,0.07000,0.51300,-0.58200,158.19000,-0.83000
191125_17.20.39.806,-0.02500,0.00800,0.98900,0.05300,-0.10500,-0.05300,0.07200,0.51000,-0.57900,159.00000,0.81000
191125_17.20.39.822,-0.02300,0.01000,0.98900,0.07000,-0.10500,-0.05300,0.06900,0.50900,-0.57900,158.24000,-0.76000
191125_17.20.39.838,-0.02400,0.01000,0.98700,0.08700,-0.10500,-0.05300,0.06900,0.51000,-0.57900,158.86000,0.62000
191125_17.20.39.854,-0.02500,0.00800,0.99000,0.07000,-0.10500,-0.05300,0.06900,0.51400,-0.58000,158.84000,-0.02000
191125_17.20.39.870,-0.02300,0.01000,0.98700,0.08700,-0.10500,-0.05300,0.07000,0.51500,-0.58300,158.67000,-0.17000
191125_17.20.39.886,-0.02500,0.01000,0.99000,0.08700,-0.10500,-0.03500,0.06800,0.51100,-0.58400,158.63000,-0.04000
191125_17.20.39.902,-0.02300,0.01000,0.98900,0.08700,-0.12300,-0.03500,0.06900,0.51000,-0.58900,159.00000,0.37000
191125_17.20.39.918,-0.02500,0.01000,0.98900,0.05300,-0.07000,-0.05300,0.07100,0.51300,-0.58500,159.09000,0.09000
191125_17.20.39.934,-0.02500,0.00900,0.98800,0.08700,-0.08700,-0.05300,0.07400,0.51300,-0.58500,158.74000,-0.35000
191125_17.20.39.950,-0.02600,0.00900,0.98900,0.07000,-0.12300,-0.05300,0.07000,0.50900,-0.58700,157.96000,-0.78000
191125_17.20.39.966,-0.02400,0.01000,0.98900,0.07000,-0.12300,-0.05300,0.07200,0.51300,-0.58100,158.83000,0.87000
191125_17.20.39.982,-0.02500,0.00900,0.99000,0.08700,-0.10500,-0.05300,0.07100,0.50900,-0.57900,158.67000,-0.16000
191125_17.20.39.998,-0.02400,0.01000,0.98800,0.07000,-0.10500,-0.05300,0.06900,0.51600,-0.58700,159.43000,0.76000
191125_17.20.40.014,-0.02400,0.00800,0.98900,0.07000,-0.10500,-0.05300,0.07300,0.51300,-0.58300,159.35000,-0.08000
191125_17.20.40.030,-0.02400,0.00900,0.98900,0.07000,-0.08700,-0.05300,0.07600,0.51600,-0.58400,158.82000,-0.53000
191125_17.20.40.046,-0.02500,0.00900,0.98900,0.07000,-0.10500,-0.03500,0.07000,0.51300,-0.59200,158.59000,-0.23000
191125_17.20.40.062,-0.02400,0.00900,0.98800,0.05300,-0.08700,-0.05300,0.07300,0.51100,-0.58900,159.11000,0.52000
191125_17.20.40.078,-0.02500,0.00900,0.98900,0.03500,-0.10500,-0.05300,0.07000,0.51300,-0.58700,159.23000,0.12000
191125_17.20.40.094,-0.02500,0.01000,0.98900,0.07000,-0.12300,-0.05300,0.07100,0.51100,-0.58900,158.30000,-0.93000
191125_17.20.40.110,-0.02500,0.00800,0.98900,0.07000,-0.10500,-0.03500,0.06800,0.51300,-0.59100,159.40000,1.10000
191125_17.20.40.126,-0.02500,0.01000,0.98900,0.07000,-0.10500,-0.03500,0.07200,0.51000,-0.58500,158.61000,-0.79000
191125_17.20.40.142,-0.02500,0.01000,0.99000,0.07000,-0.08700,-0.07000,0.07100,0.51300,-0.58300,158.41000,-0.20000
191125_17.20.40.157,-0.02400,0.01000,0.98900,0.08700,-0.10500,-0.05300,0.06700,0.51400,-0.58600,158.65000,0.24000
191125_17.20.40.174,-0.02500,0.01000,0.98800,0.07000,-0.12300,-0.07000,0.06900,0.51500,-0.59400,158.57000,-0.08000
191125_17.20.40.190,-0.02400,0.01000,0.98800,0.07000,-0.12300,-0.05300,0.07100,0.50900,-0.59000,159.24000,0.67000
191125_17.20.40.206,-0.02500,0.00800,0.98900,0.07000,-0.08700,-0.05300,0.06900,0.51000,-0.58700,158.27000,-0.97000
191125_17.20.40.221,-0.02500,0.00900,0.98900,0.05300,-0.10500,-0.05300,0.06600,0.50900,-0.58800,158.27000,0.00000
191125_17.20.40.238,-0.02400,0.01000,0.98900,0.07000,-0.10500,-0.05300,0.06800,0.51400,-0.58300,159.26000,0.99000
191125_17.20.40.254,-0.02400,0.00900,0.98900,0.08700,-0.10500,-0.05300,0.06700,0.51400,-0.58700,158.67000,-0.59000
191125_17.20.40.270,-0.02600,0.00800,0.98800,0.07000,-0.10500,-0.05300,0.06600,0.51100,-0.58200,159.47000,0.80000
191125_17.20.40.286,-0.02500,0.00900,0.98900,0.07000,-0.10500,-0.05300,0.06700,0.51200,-0.58600,158.25000,-1.22000
191125_17.20.40.302,-0.02400,0.00900,0.98800,0.07000,-0.08700,-0.05300,0.07100,0.51500,-0.58700,158.89000,0.64000
191125_17.20.40.318,-0.02300,0.00800,0.98900,0.07000,-0.10500,-0.05300,0.06500,0.51200,-0.58600,159.20000,0.31000
191125_17.20.40.334,-0.02400,0.01000,0.98800,0.07000,-0.10500,-0.07000,0.06900,0.51200,-0.58500,158.96000,-0.24000
191125_17.20.40.350,-0.02600,0.00800,0.99000,0.07000,-0.10500,-0.03500,0.07100,0.51000,-0.58200,159.07000,0.11000
191125_17.20.40.366,-0.02400,0.01000,0.98800,0.07000,-0.08700,-0.07000,0.07300,0.51100,-0.58500,159.20000,0.13000
191125_17.20.40.382,-0.02400,0.00900,0.99000,0.03500,-0.10500,-0.05300,0.06600,0.51300,-0.58800,158.93000,-0.27000
191125_17.20.40.398,-0.02400,0.01000,0.98800,0.07000,-0.12300,-0.05300,0.07100,0.51700,-0.58500,158.38000,-0.55000
191125_17.20.40.414,-0.02500,0.01000,0.99000,0.07000,-0.08700,-0.05300,0.07200,0.51300,-0.58700,158.73000,0.35000
191125_17.20.40.430,-0.02400,0.01000,0.98700,0.07000,-0.08700,-0.05300,0.07100,0.51100,-0.59000,158.54000,-0.19000
191125_17.20.40.446,-0.02500,0.00900,0.98900,0.05300,-0.10500,-0.05300,0.06900,0.51400,-0.59200,158.52000,-0.02000
191125_17.20.40.462,-0.02300,0.01000,0.98800,0.08700,-0.12300,-0.05300,0.07200,0.51000,-0.59100,159.12000,0.60000
191125_17.20.40.478,-0.02500,0.00900,0.98900,0.08700,-0.08700,-0.05300,0.06800,0.51100,-0.59200,158.97000,-0.15000
191125_17.20.40.494,-0.02600,0.00900,0.98900,0.07000,-0.08700,-0.05300,0.07100,0.51100,-0.59000,158.97000,0.00000
191125_17.20.40.509,-0.02600,0.01000,0.99000,0.07000,-0.10500,-0.07000,0.07000,0.51000,-0.58700,158.64000,-0.33000
191125_17.20.40.525,-0.02500,0.00900,0.98900,0.08700,-0.10500,-0.05300,0.06600,0.50700,-0.58500,159.22000,0.58000
191125_17.20.40.541,-0.02500,0.00900,0.98900,0.05300,-0.10500,-0.07000,0.06900,0.51700,-0.58300,158.99000,-0.23000
191125_17.20.40.557,-0.02400,0.01000,0.99000,0.08700,-0.10500,-0.05300,0.06600,0.51300,-0.58800,158.75000,-0.24000
191125_17.20.40.574,-0.02600,0.01000,0.98800,0.05300,-0.10500,-0.05300,0.06700,0.51100,-0.58700,159.12000,0.37000
191125_17.20.40.590,-0.02400,0.00900,0.99100,0.07000,-0.08700,-0.05300,0.06700,0.51400,-0.58500,158.57000,-0.55000
191125_17.20.40.606,-0.02300,0.00900,0.98900,0.05300,-0.08700,-0.05300,0.06200,0.51300,-0.59200,159.05000,0.48000
191125_17.20.40.621,-0.02500,0.01000,0.98900,0.05300,-0.10500,-0.05300,0.06700,0.51200,-0.58900,158.66000,-0.39000
191125_17.20.40.638,-0.02400,0.00900,0.98900,0.08700,-0.10500,-0.08700,0.06400,0.50800,-0.59000,158.50000,-0.16000
191125_17.20.40.654,-0.02500,0.00900,0.98900,0.07000,-0.08700,-0.05300,0.06600,0.51300,-0.59300,159.30000,0.80000
191125_17.20.40.670,-0.02500,0.01000,0.98900,0.10500,-0.08700,-0.05300,0.06700,0.51500,-0.58400,158.68000,-0.62000
191125_17.20.40.686,-0.02500,0.01000,0.98800,0.05300,-0.08700,-0.05300,0.06300,0.51300,-0.58900,158.49000,-0.19000
191125_17.20.40.702,-0.02400,0.00900,0.99000,0.07000,-0.10500,-0.05300,0.06700,0.51200,-0.59000,159.12000,0.63000
191125_17.20.40.718,-0.02500,0.00900,0.98800,0.05300,-0.12300,-0.07000,0.07000,0.51200,-0.58800,158.99000,-0.13000
191125_17.20.40.734,-0.02400,0.01000,0.98900,0.07000,-0.10500,-0.05300,0.06600,0.50800,-0.59400,158.16000,-0.83000
191125_17.20.40.750,-0.02600,0.00900,0.98900,0.07000,-0.10500,-0.05300,0.06600,0.50900,-0.60000,158.81000,0.65000
191125_17.20.40.766,-0.02500,0.00900,0.98900,0.07000,-0.12300,-0.05300,0.06500,0.51200,-0.59900,158.90000,0.09000
191125_17.20.40.782,-0.02600,0.00900,0.98900,0.08700,-0.08700,-0.05300,0.06600,0.50900,-0.59300,158.77000,-0.13000
191125_17.20.40.798,-0.02400,0.01000,0.99000,0.07000,-0.08700,-0.05300,0.06700,0.51200,-0.59500,158.47000,-0.30000
191125_17.20.40.814,-0.02200,0.01000,0.98900,0.07000,-0.10500,-0.05300,0.06800,0.51400,-0.59800,158.86000,0.39000
191125_17.20.40.830,-0.02600,0.00900,0.99000,0.07000,-0.08700,-0.07000,0.06400,0.51400,-0.59100,159.11000,0.25000
191125_17.20.40.846,-0.02500,0.00900,0.98900,0.07000,-0.08700,-0.05300,0.06400,0.51400,-0.59700,159.00000,-0.11000
191125_17.20.40.861,-0.02500,0.01000,0.98700,0.08700,-0.08700,-0.07000,0.06200,0.51600,-0.58700,159.02000,0.02000
191125_17.20.40.878,-0.02500,0.01000,0.99000,0.03500,-0.08700,-0.03500,0.06700,0.50800,-0.59200,158.58000,-0.44000
191125_17.20.40.894,-0.02400,0.01000,0.98900,0.08700,-0.10500,-0.05300,0.07100,0.50800,-0.59300,158.57000,-0.01000
191125_17.20.40.910,-0.02400,0.00900,0.99100,0.07000,-0.10500,-0.05300,0.07200,0.50900,-0.59000,158.52000,-0.05000
191125_17.20.40.925,-0.02500,0.01000,0.98800,0.07000,-0.08700,-0.07000,0.06800,0.51200,-0.59400,158.48000,-0.04000
191125_17.20.40.941,-0.02500,0.00900,0.98900,0.05300,-0.10500,-0.07000,0.06600,0.50900,-0.59200,159.21000,0.73000
191125_17.20.40.958,-0.02500,0.00900,0.98900,0.05300,-0.08700,-0.05300,0.06700,0.50700,-0.58900,158.20000,-1.01000
191125_17.20.40.974,-0.02500,0.00800,0.98700,0.10500,-0.07000,-0.07000,0.06300,0.50600,-0.59400,158.81000,0.61000
191125_17.20.40.990,-0.02600,0.00900,0.99000,0.07000,-0.10500,-0.05300,0.06700,0.51000,-0.58700,159.13000,0.32000
191125_17.20.41.006,-0.02400,0.01000,0.98900,0.07000,-0.08700,-0.05300,0.06900,0.50900,-0.58800,159.04000,-0.09000
191125_17.20.41.022,-0.02500,0.00900,0.98900,0.07000,-0.10500,-0.05300,0.07300,0.51100,-0.59200,159.21000,0.17000
191125_17.20.41.038,-0.02400,0.00800,0.98900,0.05300,-0.08700,-0.07000,0.06800,0.50700,-0.59300,158.84000,-0.37000
191125_17.20.41.054,-0.02400,0.00800,0.99000,0.07000,-0.10500,-0.07000,0.06600,0.50900,-0.59000,158.48000,-0.36000
191125_17.20.41.070,-0.02500,0.01000,0.98800,0.07000,-0.08700,-0.07000,0.07100,0.51400,-0.58700,159.00000,0.52000
191125_17.20.41.086,-0.02500,0.01000,0.99000,0.05300,-0.10500,-0.05300,0.06800,0.51100,-0.58900,158.60000,-0.40000
191125_17.20.41.102,-0.02600,0.00900,0.98700,0.07000,-0.10500,-0.05300,0.06900,0.51200,-0.59300,158.49000,-0.11000
191125_17.20.41.118,-0.02400,0.00900,0.99000,0.07000,-0.10500,-0.07000,0.06600,0.51300,-0.59300,158.21000,-0.28000
191125_17.20.41.134,-0.02400,0.00900,0.98900,0.05300,-0.08700,-0.03500,0.06900,0.50800,-0.59000,158.89000,0.68000
191125_17.20.41.150,-0.02400,0.01000,0.98900,0.07000,-0.10500,-0.05300,0.07000,0.50700,-0.59000,159.19000,0.30000
191125_17.20.41.166,-0.02300,0.00900,0.98900,0.07000,-0.12300,-0.05300,0.07500,0.50900,-0.59500,159.10000,-0.09000
191125_17.20.41.181,-0.02600,0.01000,0.98900,0.08700,-0.10500,-0.05300,0.07200,0.50800,-0.59400,158.83000,-0.27000
191125_17.20.41.198,-0.02500,0.00800,0.99100,0.03500,-0.08700,-0.05300,0.07400,0.50800,-0.59400,158.92000,0.09000
191125_17.20.41.214,-0.02600,0.01100,0.98600,0.07000,-0.10500,-0.07000,0.07000,0.51200,-0.59500,158.81000,-0.11000
191125_17.20.41.230,-0.02500,0.00900,0.99100,0.07000,-0.10500,-0.03500,0.06900,0.51000,-0.59400,158.62000,-0.19000
191125_17.20.41.246,-0.02500,0.01000,0.98800,0.08700,-0.10500,-0.05300,0.06500,0.51500,-0.58900,158.84000,0.22000
191125_17.20.41.262,-0.02500,0.00900,0.98900,0.07000,-0.08700,-0.07000,0.07000,0.51200,-0.59300,158.17000,-0.67000
191125_17.20.41.278,-0.02500,0.00900,0.98900,0.07000,-0.08700,-0.05300,0.06800,0.51300,-0.58900,158.53000,0.36000
191125_17.20.41.294,-0.02500,0.00900,0.99000,0.07000,-0.08700,-0.01800,0.06800,0.51300,-0.59400,158.31000,-0.22000
191125_17.20.41.310,-0.02500,0.00800,0.98900,0.07000,-0.10500,-0.05300,0.06600,0.51200,-0.59200,158.58000,0.27000
191125_17.20.41.326,-0.02500,0.01000,0.98700,0.07000,-0.10500,-0.05300,0.07100,0.51000,-0.59000,159.42000,0.84000
191125_17.20.41.342,-0.02400,0.00900,0.98900,0.07000,-0.08700,-0.05300,0.07000,0.51200,-0.59700,158.71000,-0.71000
191125_17.20.41.358,-0.02400,0.00900,0.98800,0.05300,-0.10500,-0.03500,0.06700,0.50700,-0.59100,158.82000,0.11000
191125_17.20.41.374,-0.02500,0.00900,0.98800,0.07000,-0.08700,-0.07000,0.06600,0.51000,-0.59300,158.27000,-0.55000
191125_17.20.41.390,-0.02300,0.01000,0.98900,0.07000,-0.08700,-0.05300,0.07100,0.50900,-0.59200,159.12000,0.85000
191125_17.20.41.405,-0.02600,0.01000,0.99000,0.07000,-0.10500,-0.05300,0.06500,0.51300,-0.59000,158.79000,-0.33000
191125_17.20.41.422,-0.02500,0.00800,0.98800,0.07000,-0.10500,-0.03500,0.06900,0.51100,-0.58500,158.94000,0.15000
191125_17.20.41.437,-0.02500,0.00900,0.98900,0.07000,-0.10500,-0.03500,0.06400,0.51200,-0.59600,159.01000,0.07000
191125_17.20.41.453,-0.02400,0.01000,0.98900,0.07000,-0.10500,-0.03500,0.07100,0.51500,-0.58500,158.36000,-0.65000
191125_17.20.41.469,-0.02400,0.00900,0.98900,0.05300,-0.10500,-0.05300,0.06400,0.51400,-0.59100,158.56000,0.20000
191125_17.20.41.485,-0.02400,0.00900,0.98800,0.07000,-0.10500,-0.07000,0.06900,0.51500,-0.59000,158.88000,0.32000
191125_17.20.41.501,-0.02500,0.00900,0.99000,0.07000,-0.08700,-0.07000,0.06800,0.51200,-0.59400,158.80000,-0.08000
191125_17.20.41.518,-0.02600,0.01000,0.98900,0.08700,-0.10500,-0.05300,0.07100,0.51000,-0.59100,158.78000,-0.02000
191125_17.20.41.534,-0.02500,0.01000,0.99000,0.05300,-0.12300,-0.03500,0.06200,0.51300,-0.58500,158.40000,-0.38000
191125_17.20.41.550,-0.02400,0.01000,0.98700,0.05300,-0.10500,-0.03500,0.06400,0.51500,-0.58600,159.40000,1.00000
191125_17.20.41.566,-0.02400,0.00900,0.98900,0.05300,-0.10500,-0.03500,0.06400,0.51000,-0.58500,158.37000,-1.03000
191125_17.20.41.582,-0.02400,0.00800,0.99000,0.05300,-0.07000,-0.05300,0.06600,0.51300,-0.58600,159.03000,0.66000
191125_17.20.41.598,-0.02600,0.00900,0.99100,0.05300,-0.08700,-0.05300,0.06700,0.51100,-0.59200,159.03000,0.00000
191125_17.20.41.614,-0.02400,0.00800,0.98800,0.05300,-0.08700,-0.07000,0.06400,0.50800,-0.59300,158.73000,-0.30000
191125_17.20.41.630,-0.02500,0.00900,0.98900,0.07000,-0.12300,-0.05300,0.06600,0.51300,-0.59000,159.22000,0.49000
191125_17.20.41.646,-0.02400,0.00900,0.98800,0.07000,-0.10500,-0.07000,0.06900,0.51100,-0.58200,158.97000,-0.25000
191125_17.20.41.662,-0.02500,0.01100,0.98900,0.07000,-0.10500,-0.05300,0.06700,0.51000,-0.59000,158.47000,-0.50000
191125_17.20.41.678,-0.02400,0.01000,0.99000,0.07000,-0.08700,-0.05300,0.06800,0.50600,-0.59200,158.42000,-0.05000
191125_17.20.41.694,-0.02500,0.01100,0.98800,0.08700,-0.12300,-0.03500,0.06500,0.51100,-0.58500,159.32000,0.90000
191125_17.20.41.710,-0.02600,0.00900,0.98700,0.08700,-0.10500,-0.03500,0.06500,0.51100,-0.58600,158.97000,-0.35000
191125_17.20.41.725,-0.02400,0.01000,0.98800,0.10500,-0.08700,-0.03500,0.06600,0.51100,-0.58700,158.75000,-0.22000
191125_17.20.41.742,-0.02400,0.01000,0.99100,0.05300,-0.08700,-0.05300,0.06500,0.51100,-0.58600,158.70000,-0.05000
191125_17.20.41.758,-0.02400,0.01000,0.99200,0.08700,-0.10500,-0.07000,0.06000,0.51300,-0.58600,158.86000,0.16000
191125_17.20.41.774,-0.02500,0.01000,0.98700,0.07000,-0.10500,-0.07000,0.06300,0.51200,-0.58600,159.27000,0.41000
191125_17.20.41.789,-0.02500,0.00900,0.99100,0.07000,-0.08700,-0.05300,0.06200,0.51300,-0.59000,158.57000,-0.70000
191125_17.20.41.806,-0.02500,0.00900,0.98900,0.05300,-0.10500,-0.05300,0.06500,0.51100,-0.58600,157.95000,-0.62000
191125_17.20.41.821,-0.02500,0.01000,0.99200,0.08700,-0.12300,-0.05300,0.06200,0.51200,-0.58900,159.07000,1.12000
191125_17.20.41.837,-0.02500,0.00900,0.99100,0.03500,-0.08700,-0.05300,0.06000,0.51100,-0.58700,158.12000,-0.95000
191125_17.20.41.854,-0.02300,0.01100,0.98400,0.14000,-0.12300,-0.05300,0.06500,0.51000,-0.58300,158.98000,0.86000
191125_17.20.41.870,-0.02600,0.00900,0.98400,0.07000,-0.10500,-0.07000,0.06700,0.51300,-0.58700,158.83000,-0.15000
191125_17.20.41.886,-0.02200,0.01000,0.99000,0.08700,-0.12300,-0.05300,0.05900,0.51200,-0.58400,159.33000,0.50000
191125_17.20.41.902,-0.02500,0.00900,0.99000,0.05300,-0.10500,-0.07000,0.06400,0.51400,-0.58800,157.91000,-1.42000
191125_17.20.41.918,-0.02500,0.01000,0.98800,0.03500,-0.10500,-0.05300,0.06500,0.51300,-0.58900,158.67000,0.76000
191125_17.20.41.934,-0.02500,0.00900,0.98800,0.08700,-0.08700,-0.05300,0.06600,0.51200,-0.59100,159.68000,1.01000
191125_17.20.41.950,-0.02400,0.00900,0.99100,0.07000,-0.10500,-0.05300,0.06400,0.51100,-0.58900,157.97000,-1.71000
191125_17.20.41.966,-0.02500,0.00900,0.98800,0.05300,-0.10500,-0.05300,0.06500,0.51200,-0.58600,158.79000,0.82000
191125_17.20.41.982,-0.02400,0.00900,0.98500,0.08700,-0.10500,-0.05300,0.06200,0.51300,-0.58600,158.37000,-0.42000
191125_17.20.41.998,-0.02400,0.00900,0.98900,0.05300,-0.08700,-0.05300,0.06000,0.51300,-0.58800,158.53000,0.16000
191125_17.20.42.014,-0.02300,0.00900,0.98900,0.07000,-0.08700,-0.03500,0.06400,0.51000,-0.58300,159.22000,0.69000
191125_17.20.42.029,-0.02500,0.01000,0.98900,0.07000,-0.07000,-0.05300,0.06600,0.51200,-0.59000,158.14000,-1.08000
191125_17.20.42.046,-0.02500,0.00900,0.99100,0.03500,-0.08700,-0.05300,0.05700,0.51100,-0.59200,159.10000,0.96000
191125_17.20.42.062,-0.02300,0.01000,0.98800,0.08700,-0.10500,-0.05300,0.06300,0.51300,-0.58300,158.59000,-0.51000
191125_17.20.42.078,-0.02400,0.00900,0.98800,0.12300,-0.12300,-0.03500,0.06200,0.51000,-0.58600,159.01000,0.42000
191125_17.20.42.093,-0.02500,0.00900,0.98700,0.12300,-0.10500,-0.03500,0.06400,0.51000,-0.59100,159.12000,0.11000
191125_17.20.42.110,-0.02500,0.00900,0.98900,0.12300,-0.10500,-0.05300,0.06100,0.51400,-0.58700,158.66000,-0.46000
191125_17.20.42.126,-0.02500,0.00900,0.98900,0.12300,-0.08700,-0.03500,0.06600,0.51200,-0.58600,159.17000,0.51000
191125_17.20.42.142,-0.02400,0.01000,0.98700,0.10500,-0.10500,-0.03500,0.06200,0.51000,-0.58800,158.97000,-0.20000
191125_17.20.42.158,-0.02400,0.00900,0.99000,0.03500,-0.08700,-0.05300,0.06800,0.51300,-0.58600,158.84000,-0.13000
191125_17.20.42.174,-0.02500,0.01000,0.98800,0.07000,-0.08700,-0.03500,0.06400,0.50900,-0.58900,159.19000,0.35000
